{
    "client": {
        "type": "sona",
        "experiment_id": 2228,
        "credit_token": "b315147ae43241ea9c65086cb510cfb7",
        "survey_code": "42233",
        "sid": "sona-42233",
        "window": {
            "width": 1440,
            "height": 709
        },
        "screen": {
            "width": 1440,
            "height": 900
        },
        "userAgent": "Mozilla\/5.0 (Macintosh; Intel Mac OS X 10_15_7) AppleWebKit\/605.1.15 (KHTML, like Gecko) Version\/16.3 Safari\/605.1.15",
        "score": 0,
        "bonus": 0
    },
    "expt": {
        "saveURL": "submit.simple.php",
        "trials": 100,
        "practiceTrials": 2,
        "marblesSampled": 100,
        "probRed": 0.5,
        "lambdaAI": 5,
        "roleFirst": "receiver",
        "roles": [
            "sender",
            "receiver"
        ],
        "cost": "unif",
        "goal": "over",
        "goalInstructTxt": "below",
        "catchTrials": [
            62,
            49,
            4,
            31,
            15,
            11,
            93,
            74,
            8,
            10
        ],
        "scoreTotal": {
            "player": -777,
            "opp": 356
        },
        "sona": {
            "experiment_id": 2228,
            "credit_token": "b315147ae43241ea9c65086cb510cfb7"
        },
        "pilot": false,
        "debug": false
    },
    "trials": [
        {
            "exptPart": "practice",
            "trialNumber": 1,
            "roleCurrent": "sender",
            "marblesSampled": 100,
            "probRed": 0.5,
            "lambda": 5,
            "drawnRed": 30,
            "reportedRed": 30,
            "inferredRed": 26,
            "playerTrialScore": 0,
            "oppTrialScore": -4,
            "playerTotalScore": 0,
            "oppTotalScore": -4,
            "waitTime": 2552.1020107067916,
            "responseTime": 1678839128874,
            "catchQuestion": "How many <b class=\"r\">red<\/b> marbles did you actually draw (before any changes)? ",
            "catchKey": 30,
            "catchResponse": 30,
            "catchTime": 1678839128875,
            "trialTime": 0
        },
        {
            "exptPart": "practice",
            "trialNumber": 2,
            "roleCurrent": "receiver",
            "marblesSampled": 100,
            "probRed": 0.5,
            "lambda": 5,
            "drawnRed": 67,
            "reportedRed": 74,
            "inferredRed": 80,
            "playerTrialScore": -13,
            "oppTrialScore": 13,
            "playerTotalScore": -13,
            "oppTotalScore": 9,
            "waitTime": 7250.013318412766,
            "responseTime": 1678839159243,
            "catchQuestion": "How many <b class=\"r\">red<\/b> marbles did your opponent report drawing? ",
            "catchKey": 74,
            "catchResponse": 74,
            "catchTime": 1678839159243,
            "trialTime": 0
        },
        {
            "exptPart": "trial",
            "trialNumber": 1,
            "roleCurrent": "receiver",
            "marblesSampled": 100,
            "probRed": 0.5,
            "lambda": 5,
            "drawnRed": 14,
            "reportedRed": 18,
            "inferredRed": 20,
            "playerTrialScore": -6,
            "oppTrialScore": 6,
            "playerTotalScore": -6,
            "oppTotalScore": 6,
            "waitTime": 6929.708277962559,
            "responseTime": 1678839231081,
            "catchQuestion": "How many <b class=\"r\">red<\/b> marbles did your opponent report drawing? ",
            "catchKey": -1,
            "catchResponse": -1,
            "catchTime": 1678839159243,
            "trialTime": 0
        },
        {
            "exptPart": "trial",
            "trialNumber": 2,
            "roleCurrent": "sender",
            "marblesSampled": 100,
            "probRed": 0.5,
            "lambda": 5,
            "drawnRed": 84,
            "reportedRed": 84,
            "inferredRed": 76,
            "playerTrialScore": 0,
            "oppTrialScore": -8,
            "playerTotalScore": -6,
            "oppTotalScore": -2,
            "waitTime": 2947.3223919160837,
            "responseTime": 1678839239982,
            "catchQuestion": "How many <b class=\"r\">red<\/b> marbles did your opponent report drawing? ",
            "catchKey": -1,
            "catchResponse": -1,
            "catchTime": 1678839159243,
            "trialTime": 0
        },
        {
            "exptPart": "trial",
            "trialNumber": 3,
            "roleCurrent": "receiver",
            "marblesSampled": 100,
            "probRed": 0.5,
            "lambda": 5,
            "drawnRed": 22,
            "reportedRed": 27,
            "inferredRed": 30,
            "playerTrialScore": -8,
            "oppTrialScore": 8,
            "playerTotalScore": -14,
            "oppTotalScore": 6,
            "waitTime": 5532.6292569172,
            "responseTime": 1678839251138,
            "catchQuestion": "How many <b class=\"r\">red<\/b> marbles did your opponent report drawing? ",
            "catchKey": -1,
            "catchResponse": -1,
            "catchTime": 1678839159243,
            "trialTime": 0
        },
        {
            "exptPart": "trial",
            "trialNumber": 4,
            "roleCurrent": "sender",
            "marblesSampled": 100,
            "probRed": 0.5,
            "lambda": 5,
            "drawnRed": 31,
            "reportedRed": 31,
            "inferredRed": 23,
            "playerTrialScore": 0,
            "oppTrialScore": -8,
            "playerTotalScore": -14,
            "oppTotalScore": -2,
            "waitTime": 2249.374540977371,
            "responseTime": 1678839260174,
            "catchQuestion": "How many <b class=\"r\">red<\/b> marbles did your opponent report drawing? ",
            "catchKey": -1,
            "catchResponse": -1,
            "catchTime": 1678839159243,
            "trialTime": 0
        },
        {
            "exptPart": "trial",
            "trialNumber": 5,
            "roleCurrent": "receiver",
            "marblesSampled": 100,
            "probRed": 0.5,
            "lambda": 5,
            "drawnRed": 52,
            "reportedRed": 55,
            "inferredRed": 60,
            "playerTrialScore": -8,
            "oppTrialScore": 8,
            "playerTotalScore": -22,
            "oppTotalScore": 6,
            "waitTime": 7201.300145877741,
            "responseTime": 1678839274439,
            "catchQuestion": "How many <b class=\"r\">red<\/b> marbles did your opponent report drawing? ",
            "catchKey": 55,
            "catchResponse": 55,
            "catchTime": 1678839274439,
            "trialTime": 0
        },
        {
            "exptPart": "trial",
            "trialNumber": 6,
            "roleCurrent": "sender",
            "marblesSampled": 100,
            "probRed": 0.5,
            "lambda": 5,
            "drawnRed": 34,
            "reportedRed": 34,
            "inferredRed": 28,
            "playerTrialScore": 0,
            "oppTrialScore": -6,
            "playerTotalScore": -22,
            "oppTotalScore": 0,
            "waitTime": 2650.529505692074,
            "responseTime": 1678839292637,
            "catchQuestion": "How many <b class=\"r\">red<\/b> marbles did your opponent report drawing? ",
            "catchKey": -1,
            "catchResponse": -1,
            "catchTime": 1678839274439,
            "trialTime": 0
        },
        {
            "exptPart": "trial",
            "trialNumber": 7,
            "roleCurrent": "receiver",
            "marblesSampled": 100,
            "probRed": 0.5,
            "lambda": 5,
            "drawnRed": 56,
            "reportedRed": 68,
            "inferredRed": 69,
            "playerTrialScore": -13,
            "oppTrialScore": 13,
            "playerTotalScore": -35,
            "oppTotalScore": 13,
            "waitTime": 6664.168728962066,
            "responseTime": 1678839307421,
            "catchQuestion": "How many <b class=\"r\">red<\/b> marbles did your opponent report drawing? ",
            "catchKey": -1,
            "catchResponse": -1,
            "catchTime": 1678839274439,
            "trialTime": 0
        },
        {
            "exptPart": "trial",
            "trialNumber": 8,
            "roleCurrent": "sender",
            "marblesSampled": 100,
            "probRed": 0.5,
            "lambda": 5,
            "drawnRed": 59,
            "reportedRed": 59,
            "inferredRed": 57,
            "playerTrialScore": 0,
            "oppTrialScore": -2,
            "playerTotalScore": -35,
            "oppTotalScore": 11,
            "waitTime": 3157.052197565189,
            "responseTime": 1678839316683,
            "catchQuestion": "How many <b class=\"r\">red<\/b> marbles did your opponent report drawing? ",
            "catchKey": -1,
            "catchResponse": -1,
            "catchTime": 1678839274439,
            "trialTime": 0
        },
        {
            "exptPart": "trial",
            "trialNumber": 9,
            "roleCurrent": "receiver",
            "marblesSampled": 100,
            "probRed": 0.5,
            "lambda": 5,
            "drawnRed": 27,
            "reportedRed": 33,
            "inferredRed": 30,
            "playerTrialScore": -3,
            "oppTrialScore": 3,
            "playerTotalScore": -38,
            "oppTotalScore": 14,
            "waitTime": 7272.973474640609,
            "responseTime": 1678839328424,
            "catchQuestion": "How many <b class=\"r\">red<\/b> marbles did your opponent report drawing? ",
            "catchKey": 33,
            "catchResponse": 33,
            "catchTime": 1678839328424,
            "trialTime": 0
        },
        {
            "exptPart": "trial",
            "trialNumber": 10,
            "roleCurrent": "sender",
            "marblesSampled": 100,
            "probRed": 0.5,
            "lambda": 5,
            "drawnRed": 29,
            "reportedRed": 29,
            "inferredRed": 25,
            "playerTrialScore": 0,
            "oppTrialScore": -4,
            "playerTotalScore": -38,
            "oppTotalScore": 10,
            "waitTime": 3042.9931881435386,
            "responseTime": 1678839351505,
            "catchQuestion": "How many <b class=\"r\">red<\/b> marbles did your opponent report drawing? ",
            "catchKey": -1,
            "catchResponse": -1,
            "catchTime": 1678839351505,
            "trialTime": 0
        },
        {
            "exptPart": "trial",
            "trialNumber": 11,
            "roleCurrent": "receiver",
            "marblesSampled": 100,
            "probRed": 0.5,
            "lambda": 5,
            "drawnRed": 54,
            "reportedRed": 58,
            "inferredRed": 65,
            "playerTrialScore": -11,
            "oppTrialScore": 11,
            "playerTotalScore": -49,
            "oppTotalScore": 21,
            "waitTime": 5839.418062301292,
            "responseTime": 1678839364402,
            "catchQuestion": "How many <b class=\"r\">red<\/b> marbles did your opponent report drawing? ",
            "catchKey": 58,
            "catchResponse": 58,
            "catchTime": 1678839364402,
            "trialTime": 0
        },
        {
            "exptPart": "trial",
            "trialNumber": 12,
            "roleCurrent": "sender",
            "marblesSampled": 100,
            "probRed": 0.5,
            "lambda": 5,
            "drawnRed": 77,
            "reportedRed": 77,
            "inferredRed": 76,
            "playerTrialScore": 0,
            "oppTrialScore": -1,
            "playerTotalScore": -49,
            "oppTotalScore": 20,
            "waitTime": 2328.734855895496,
            "responseTime": 1678839377692,
            "catchQuestion": "How many <b class=\"r\">red<\/b> marbles did you actually draw (before any changes)? ",
            "catchKey": 77,
            "catchResponse": 77,
            "catchTime": 1678839377693,
            "trialTime": 0
        },
        {
            "exptPart": "trial",
            "trialNumber": 13,
            "roleCurrent": "receiver",
            "marblesSampled": 100,
            "probRed": 0.5,
            "lambda": 5,
            "drawnRed": 47,
            "reportedRed": 56,
            "inferredRed": 65,
            "playerTrialScore": -18,
            "oppTrialScore": 18,
            "playerTotalScore": -67,
            "oppTotalScore": 38,
            "waitTime": 6890.860013399226,
            "responseTime": 1678839395279,
            "catchQuestion": "How many <b class=\"r\">red<\/b> marbles did you actually draw (before any changes)? ",
            "catchKey": -1,
            "catchResponse": -1,
            "catchTime": 1678839377693,
            "trialTime": 0
        },
        {
            "exptPart": "trial",
            "trialNumber": 14,
            "roleCurrent": "sender",
            "marblesSampled": 100,
            "probRed": 0.5,
            "lambda": 5,
            "drawnRed": 15,
            "reportedRed": 15,
            "inferredRed": 11,
            "playerTrialScore": 0,
            "oppTrialScore": -4,
            "playerTotalScore": -67,
            "oppTotalScore": 34,
            "waitTime": 2086.252619622288,
            "responseTime": 1678839403834,
            "catchQuestion": "How many <b class=\"r\">red<\/b> marbles did you actually draw (before any changes)? ",
            "catchKey": -1,
            "catchResponse": -1,
            "catchTime": 1678839377693,
            "trialTime": 0
        },
        {
            "exptPart": "trial",
            "trialNumber": 15,
            "roleCurrent": "receiver",
            "marblesSampled": 100,
            "probRed": 0.5,
            "lambda": 5,
            "drawnRed": 29,
            "reportedRed": 31,
            "inferredRed": 45,
            "playerTrialScore": -16,
            "oppTrialScore": 16,
            "playerTotalScore": -83,
            "oppTotalScore": 50,
            "waitTime": 7173.30882248196,
            "responseTime": 1678839416227,
            "catchQuestion": "How many <b class=\"r\">red<\/b> marbles did you actually draw (before any changes)? ",
            "catchKey": -1,
            "catchResponse": -1,
            "catchTime": 1678839416227,
            "trialTime": 0
        },
        {
            "exptPart": "trial",
            "trialNumber": 16,
            "roleCurrent": "sender",
            "marblesSampled": 100,
            "probRed": 0.5,
            "lambda": 5,
            "drawnRed": 44,
            "reportedRed": 44,
            "inferredRed": 39,
            "playerTrialScore": 0,
            "oppTrialScore": -5,
            "playerTotalScore": -83,
            "oppTotalScore": 45,
            "waitTime": 2273.6339253090828,
            "responseTime": 1678839429411,
            "catchQuestion": "How many <b class=\"r\">red<\/b> marbles did you actually draw (before any changes)? ",
            "catchKey": 44,
            "catchResponse": 44,
            "catchTime": 1678839429412,
            "trialTime": 0
        },
        {
            "exptPart": "trial",
            "trialNumber": 17,
            "roleCurrent": "receiver",
            "marblesSampled": 100,
            "probRed": 0.5,
            "lambda": 5,
            "drawnRed": 60,
            "reportedRed": 65,
            "inferredRed": 65,
            "playerTrialScore": -5,
            "oppTrialScore": 5,
            "playerTotalScore": -88,
            "oppTotalScore": 50,
            "waitTime": 7261.198797157499,
            "responseTime": 1678839445892,
            "catchQuestion": "How many <b class=\"r\">red<\/b> marbles did you actually draw (before any changes)? ",
            "catchKey": -1,
            "catchResponse": -1,
            "catchTime": 1678839429412,
            "trialTime": 0
        },
        {
            "exptPart": "trial",
            "trialNumber": 18,
            "roleCurrent": "sender",
            "marblesSampled": 100,
            "probRed": 0.5,
            "lambda": 5,
            "drawnRed": 41,
            "reportedRed": 41,
            "inferredRed": 39,
            "playerTrialScore": 0,
            "oppTrialScore": -2,
            "playerTotalScore": -88,
            "oppTotalScore": 48,
            "waitTime": 2819.7198446803986,
            "responseTime": 1678839454848,
            "catchQuestion": "How many <b class=\"r\">red<\/b> marbles did you actually draw (before any changes)? ",
            "catchKey": -1,
            "catchResponse": -1,
            "catchTime": 1678839429412,
            "trialTime": 0
        },
        {
            "exptPart": "trial",
            "trialNumber": 19,
            "roleCurrent": "receiver",
            "marblesSampled": 100,
            "probRed": 0.5,
            "lambda": 5,
            "drawnRed": 38,
            "reportedRed": 42,
            "inferredRed": 60,
            "playerTrialScore": -22,
            "oppTrialScore": 22,
            "playerTotalScore": -110,
            "oppTotalScore": 70,
            "waitTime": 6730.763074975952,
            "responseTime": 1678839553487,
            "catchQuestion": "How many <b class=\"r\">red<\/b> marbles did you actually draw (before any changes)? ",
            "catchKey": -1,
            "catchResponse": -1,
            "catchTime": 1678839429412,
            "trialTime": 0
        },
        {
            "exptPart": "trial",
            "trialNumber": 20,
            "roleCurrent": "sender",
            "marblesSampled": 100,
            "probRed": 0.5,
            "lambda": 5,
            "drawnRed": 37,
            "reportedRed": 37,
            "inferredRed": 30,
            "playerTrialScore": 0,
            "oppTrialScore": -7,
            "playerTotalScore": -110,
            "oppTotalScore": 63,
            "waitTime": 3026.096666425001,
            "responseTime": 1678839566359,
            "catchQuestion": "How many <b class=\"r\">red<\/b> marbles did you actually draw (before any changes)? ",
            "catchKey": -1,
            "catchResponse": -1,
            "catchTime": 1678839566360,
            "trialTime": 0
        },
        {
            "exptPart": "trial",
            "trialNumber": 21,
            "roleCurrent": "receiver",
            "marblesSampled": 100,
            "probRed": 0.5,
            "lambda": 5,
            "drawnRed": 60,
            "reportedRed": 66,
            "inferredRed": 66,
            "playerTrialScore": -6,
            "oppTrialScore": 6,
            "playerTotalScore": -116,
            "oppTotalScore": 69,
            "waitTime": 7181.112788458273,
            "responseTime": 1678839578431,
            "catchQuestion": "How many <b class=\"r\">red<\/b> marbles did you actually draw (before any changes)? ",
            "catchKey": -1,
            "catchResponse": -1,
            "catchTime": 1678839566360,
            "trialTime": 0
        },
        {
            "exptPart": "trial",
            "trialNumber": 22,
            "roleCurrent": "sender",
            "marblesSampled": 100,
            "probRed": 0.5,
            "lambda": 5,
            "drawnRed": 36,
            "reportedRed": 36,
            "inferredRed": 33,
            "playerTrialScore": 0,
            "oppTrialScore": -3,
            "playerTotalScore": -116,
            "oppTotalScore": 66,
            "waitTime": 2480.1384809328556,
            "responseTime": 1678839588072,
            "catchQuestion": "How many <b class=\"r\">red<\/b> marbles did you actually draw (before any changes)? ",
            "catchKey": -1,
            "catchResponse": -1,
            "catchTime": 1678839566360,
            "trialTime": 0
        },
        {
            "exptPart": "trial",
            "trialNumber": 23,
            "roleCurrent": "receiver",
            "marblesSampled": 100,
            "probRed": 0.5,
            "lambda": 5,
            "drawnRed": 89,
            "reportedRed": 92,
            "inferredRed": 100,
            "playerTrialScore": -11,
            "oppTrialScore": 11,
            "playerTotalScore": -127,
            "oppTotalScore": 77,
            "waitTime": 6898.535592317663,
            "responseTime": 1678839598604,
            "catchQuestion": "How many <b class=\"r\">red<\/b> marbles did you actually draw (before any changes)? ",
            "catchKey": -1,
            "catchResponse": -1,
            "catchTime": 1678839566360,
            "trialTime": 0
        },
        {
            "exptPart": "trial",
            "trialNumber": 24,
            "roleCurrent": "sender",
            "marblesSampled": 100,
            "probRed": 0.5,
            "lambda": 5,
            "drawnRed": 47,
            "reportedRed": 47,
            "inferredRed": 45,
            "playerTrialScore": 0,
            "oppTrialScore": -2,
            "playerTotalScore": -127,
            "oppTotalScore": 75,
            "waitTime": 3194.787177817612,
            "responseTime": 1678839610184,
            "catchQuestion": "How many <b class=\"r\">red<\/b> marbles did you actually draw (before any changes)? ",
            "catchKey": -1,
            "catchResponse": -1,
            "catchTime": 1678839566360,
            "trialTime": 0
        },
        {
            "exptPart": "trial",
            "trialNumber": 25,
            "roleCurrent": "receiver",
            "marblesSampled": 100,
            "probRed": 0.5,
            "lambda": 5,
            "drawnRed": 84,
            "reportedRed": 93,
            "inferredRed": 95,
            "playerTrialScore": -11,
            "oppTrialScore": 11,
            "playerTotalScore": -138,
            "oppTotalScore": 86,
            "waitTime": 5300.511147087723,
            "responseTime": 1678839621614,
            "catchQuestion": "How many <b class=\"r\">red<\/b> marbles did you actually draw (before any changes)? ",
            "catchKey": -1,
            "catchResponse": -1,
            "catchTime": 1678839621614,
            "trialTime": 0
        },
        {
            "exptPart": "trial",
            "trialNumber": 26,
            "roleCurrent": "sender",
            "marblesSampled": 100,
            "probRed": 0.5,
            "lambda": 5,
            "drawnRed": 40,
            "reportedRed": 40,
            "inferredRed": 38,
            "playerTrialScore": 0,
            "oppTrialScore": -2,
            "playerTotalScore": -138,
            "oppTotalScore": 84,
            "waitTime": 2299.489766107853,
            "responseTime": 1678839636541,
            "catchQuestion": "How many <b class=\"r\">red<\/b> marbles did you actually draw (before any changes)? ",
            "catchKey": -1,
            "catchResponse": -1,
            "catchTime": 1678839621614,
            "trialTime": 0
        },
        {
            "exptPart": "trial",
            "trialNumber": 27,
            "roleCurrent": "receiver",
            "marblesSampled": 100,
            "probRed": 0.5,
            "lambda": 5,
            "drawnRed": 39,
            "reportedRed": 44,
            "inferredRed": 50,
            "playerTrialScore": -11,
            "oppTrialScore": 11,
            "playerTotalScore": -149,
            "oppTotalScore": 95,
            "waitTime": 5843.700430471827,
            "responseTime": 1678839645801,
            "catchQuestion": "How many <b class=\"r\">red<\/b> marbles did you actually draw (before any changes)? ",
            "catchKey": -1,
            "catchResponse": -1,
            "catchTime": 1678839621614,
            "trialTime": 0
        },
        {
            "exptPart": "trial",
            "trialNumber": 28,
            "roleCurrent": "sender",
            "marblesSampled": 100,
            "probRed": 0.5,
            "lambda": 5,
            "drawnRed": 33,
            "reportedRed": 33,
            "inferredRed": 29,
            "playerTrialScore": 0,
            "oppTrialScore": -4,
            "playerTotalScore": -149,
            "oppTotalScore": 91,
            "waitTime": 2107.232147298588,
            "responseTime": 1678839653945,
            "catchQuestion": "How many <b class=\"r\">red<\/b> marbles did you actually draw (before any changes)? ",
            "catchKey": -1,
            "catchResponse": -1,
            "catchTime": 1678839621614,
            "trialTime": 0
        },
        {
            "exptPart": "trial",
            "trialNumber": 29,
            "roleCurrent": "receiver",
            "marblesSampled": 100,
            "probRed": 0.5,
            "lambda": 5,
            "drawnRed": 39,
            "reportedRed": 44,
            "inferredRed": 50,
            "playerTrialScore": -11,
            "oppTrialScore": 11,
            "playerTotalScore": -160,
            "oppTotalScore": 102,
            "waitTime": 7452.1730470176935,
            "responseTime": 1678839666344,
            "catchQuestion": "How many <b class=\"r\">red<\/b> marbles did you actually draw (before any changes)? ",
            "catchKey": -1,
            "catchResponse": -1,
            "catchTime": 1678839621614,
            "trialTime": 0
        },
        {
            "exptPart": "trial",
            "trialNumber": 30,
            "roleCurrent": "sender",
            "marblesSampled": 100,
            "probRed": 0.5,
            "lambda": 5,
            "drawnRed": 90,
            "reportedRed": 90,
            "inferredRed": 85,
            "playerTrialScore": 0,
            "oppTrialScore": -5,
            "playerTotalScore": -160,
            "oppTotalScore": 97,
            "waitTime": 2370.025920213707,
            "responseTime": 1678839673765,
            "catchQuestion": "How many <b class=\"r\">red<\/b> marbles did you actually draw (before any changes)? ",
            "catchKey": -1,
            "catchResponse": -1,
            "catchTime": 1678839673765,
            "trialTime": 0
        },
        {
            "exptPart": "trial",
            "trialNumber": 31,
            "roleCurrent": "receiver",
            "marblesSampled": 100,
            "probRed": 0.5,
            "lambda": 5,
            "drawnRed": 37,
            "reportedRed": 40,
            "inferredRed": 50,
            "playerTrialScore": -13,
            "oppTrialScore": 13,
            "playerTotalScore": -173,
            "oppTotalScore": 110,
            "waitTime": 5857.495551223636,
            "responseTime": 1678839692332,
            "catchQuestion": "How many <b class=\"r\">red<\/b> marbles did you actually draw (before any changes)? ",
            "catchKey": -1,
            "catchResponse": -1,
            "catchTime": 1678839673765,
            "trialTime": 0
        },
        {
            "exptPart": "trial",
            "trialNumber": 32,
            "roleCurrent": "sender",
            "marblesSampled": 100,
            "probRed": 0.5,
            "lambda": 5,
            "drawnRed": 65,
            "reportedRed": 65,
            "inferredRed": 59,
            "playerTrialScore": 0,
            "oppTrialScore": -6,
            "playerTotalScore": -173,
            "oppTotalScore": 104,
            "waitTime": 2354.761973552936,
            "responseTime": 1678839707819,
            "catchQuestion": "How many <b class=\"r\">red<\/b> marbles did you actually draw (before any changes)? ",
            "catchKey": 65,
            "catchResponse": 60,
            "catchTime": 1678839707819,
            "trialTime": 0
        },
        {
            "exptPart": "trial",
            "trialNumber": 33,
            "roleCurrent": "receiver",
            "marblesSampled": 100,
            "probRed": 0.5,
            "lambda": 5,
            "drawnRed": 73,
            "reportedRed": 78,
            "inferredRed": 80,
            "playerTrialScore": -7,
            "oppTrialScore": 7,
            "playerTotalScore": -180,
            "oppTotalScore": 111,
            "waitTime": 5750.853800227098,
            "responseTime": 1678839730920,
            "catchQuestion": "How many <b class=\"r\">red<\/b> marbles did you actually draw (before any changes)? ",
            "catchKey": -1,
            "catchResponse": -1,
            "catchTime": 1678839707819,
            "trialTime": 0
        },
        {
            "exptPart": "trial",
            "trialNumber": 34,
            "roleCurrent": "sender",
            "marblesSampled": 100,
            "probRed": 0.5,
            "lambda": 5,
            "drawnRed": 20,
            "reportedRed": 20,
            "inferredRed": 17,
            "playerTrialScore": 0,
            "oppTrialScore": -3,
            "playerTotalScore": -180,
            "oppTotalScore": 108,
            "waitTime": 2175.0596972755593,
            "responseTime": 1678839737084,
            "catchQuestion": "How many <b class=\"r\">red<\/b> marbles did you actually draw (before any changes)? ",
            "catchKey": -1,
            "catchResponse": -1,
            "catchTime": 1678839707819,
            "trialTime": 0
        },
        {
            "exptPart": "trial",
            "trialNumber": 35,
            "roleCurrent": "receiver",
            "marblesSampled": 100,
            "probRed": 0.5,
            "lambda": 5,
            "drawnRed": 45,
            "reportedRed": 48,
            "inferredRed": 50,
            "playerTrialScore": -5,
            "oppTrialScore": 5,
            "playerTotalScore": -185,
            "oppTotalScore": 113,
            "waitTime": 6111.579469926699,
            "responseTime": 1678839746593,
            "catchQuestion": "How many <b class=\"r\">red<\/b> marbles did you actually draw (before any changes)? ",
            "catchKey": -1,
            "catchResponse": -1,
            "catchTime": 1678839746593,
            "trialTime": 0
        },
        {
            "exptPart": "trial",
            "trialNumber": 36,
            "roleCurrent": "sender",
            "marblesSampled": 100,
            "probRed": 0.5,
            "lambda": 5,
            "drawnRed": 70,
            "reportedRed": 70,
            "inferredRed": 64,
            "playerTrialScore": 0,
            "oppTrialScore": -6,
            "playerTotalScore": -185,
            "oppTotalScore": 107,
            "waitTime": 3233.74955210219,
            "responseTime": 1678839755545,
            "catchQuestion": "How many <b class=\"r\">red<\/b> marbles did you actually draw (before any changes)? ",
            "catchKey": -1,
            "catchResponse": -1,
            "catchTime": 1678839746593,
            "trialTime": 0
        },
        {
            "exptPart": "trial",
            "trialNumber": 37,
            "roleCurrent": "receiver",
            "marblesSampled": 100,
            "probRed": 0.5,
            "lambda": 5,
            "drawnRed": 24,
            "reportedRed": 30,
            "inferredRed": 70,
            "playerTrialScore": -46,
            "oppTrialScore": 46,
            "playerTotalScore": -231,
            "oppTotalScore": 153,
            "waitTime": 6473.769488334512,
            "responseTime": 1678839767423,
            "catchQuestion": "How many <b class=\"r\">red<\/b> marbles did you actually draw (before any changes)? ",
            "catchKey": -1,
            "catchResponse": -1,
            "catchTime": 1678839746593,
            "trialTime": 0
        },
        {
            "exptPart": "trial",
            "trialNumber": 38,
            "roleCurrent": "sender",
            "marblesSampled": 100,
            "probRed": 0.5,
            "lambda": 5,
            "drawnRed": 49,
            "reportedRed": 49,
            "inferredRed": 45,
            "playerTrialScore": 0,
            "oppTrialScore": -4,
            "playerTotalScore": -231,
            "oppTotalScore": 149,
            "waitTime": 2392.5985966347007,
            "responseTime": 1678839774498,
            "catchQuestion": "How many <b class=\"r\">red<\/b> marbles did you actually draw (before any changes)? ",
            "catchKey": -1,
            "catchResponse": -1,
            "catchTime": 1678839746593,
            "trialTime": 0
        },
        {
            "exptPart": "trial",
            "trialNumber": 39,
            "roleCurrent": "receiver",
            "marblesSampled": 100,
            "probRed": 0.5,
            "lambda": 5,
            "drawnRed": 42,
            "reportedRed": 47,
            "inferredRed": 49,
            "playerTrialScore": -7,
            "oppTrialScore": 7,
            "playerTotalScore": -238,
            "oppTotalScore": 156,
            "waitTime": 5196.433856657841,
            "responseTime": 1678839782935,
            "catchQuestion": "How many <b class=\"r\">red<\/b> marbles did you actually draw (before any changes)? ",
            "catchKey": -1,
            "catchResponse": -1,
            "catchTime": 1678839746593,
            "trialTime": 0
        },
        {
            "exptPart": "trial",
            "trialNumber": 40,
            "roleCurrent": "sender",
            "marblesSampled": 100,
            "probRed": 0.5,
            "lambda": 5,
            "drawnRed": 56,
            "reportedRed": 56,
            "inferredRed": 54,
            "playerTrialScore": 0,
            "oppTrialScore": -2,
            "playerTotalScore": -238,
            "oppTotalScore": 154,
            "waitTime": 3029.8421885067974,
            "responseTime": 1678839791163,
            "catchQuestion": "How many <b class=\"r\">red<\/b> marbles did you actually draw (before any changes)? ",
            "catchKey": -1,
            "catchResponse": -1,
            "catchTime": 1678839791163,
            "trialTime": 0
        },
        {
            "exptPart": "trial",
            "trialNumber": 41,
            "roleCurrent": "receiver",
            "marblesSampled": 100,
            "probRed": 0.5,
            "lambda": 5,
            "drawnRed": 59,
            "reportedRed": 64,
            "inferredRed": 65,
            "playerTrialScore": -6,
            "oppTrialScore": 6,
            "playerTotalScore": -244,
            "oppTotalScore": 160,
            "waitTime": 5743.837427807267,
            "responseTime": 1678839802698,
            "catchQuestion": "How many <b class=\"r\">red<\/b> marbles did you actually draw (before any changes)? ",
            "catchKey": -1,
            "catchResponse": -1,
            "catchTime": 1678839791163,
            "trialTime": 0
        },
        {
            "exptPart": "trial",
            "trialNumber": 42,
            "roleCurrent": "sender",
            "marblesSampled": 100,
            "probRed": 0.5,
            "lambda": 5,
            "drawnRed": 47,
            "reportedRed": 47,
            "inferredRed": 41,
            "playerTrialScore": 0,
            "oppTrialScore": -6,
            "playerTotalScore": -244,
            "oppTotalScore": 154,
            "waitTime": 2431.529293369834,
            "responseTime": 1678839810306,
            "catchQuestion": "How many <b class=\"r\">red<\/b> marbles did you actually draw (before any changes)? ",
            "catchKey": -1,
            "catchResponse": -1,
            "catchTime": 1678839791163,
            "trialTime": 0
        },
        {
            "exptPart": "trial",
            "trialNumber": 43,
            "roleCurrent": "receiver",
            "marblesSampled": 100,
            "probRed": 0.5,
            "lambda": 5,
            "drawnRed": 38,
            "reportedRed": 43,
            "inferredRed": 47,
            "playerTrialScore": -9,
            "oppTrialScore": 9,
            "playerTotalScore": -253,
            "oppTotalScore": 163,
            "waitTime": 5924.7512550838055,
            "responseTime": 1678839819330,
            "catchQuestion": "How many <b class=\"r\">red<\/b> marbles did you actually draw (before any changes)? ",
            "catchKey": -1,
            "catchResponse": -1,
            "catchTime": 1678839791163,
            "trialTime": 0
        },
        {
            "exptPart": "trial",
            "trialNumber": 44,
            "roleCurrent": "sender",
            "marblesSampled": 100,
            "probRed": 0.5,
            "lambda": 5,
            "drawnRed": 51,
            "reportedRed": 51,
            "inferredRed": 48,
            "playerTrialScore": 0,
            "oppTrialScore": -3,
            "playerTotalScore": -253,
            "oppTotalScore": 160,
            "waitTime": 3003.5895074826885,
            "responseTime": 1678839827051,
            "catchQuestion": "How many <b class=\"r\">red<\/b> marbles did you actually draw (before any changes)? ",
            "catchKey": -1,
            "catchResponse": -1,
            "catchTime": 1678839791163,
            "trialTime": 0
        },
        {
            "exptPart": "trial",
            "trialNumber": 45,
            "roleCurrent": "receiver",
            "marblesSampled": 100,
            "probRed": 0.5,
            "lambda": 5,
            "drawnRed": 44,
            "reportedRed": 49,
            "inferredRed": 57,
            "playerTrialScore": -13,
            "oppTrialScore": 13,
            "playerTotalScore": -266,
            "oppTotalScore": 173,
            "waitTime": 6221.503230912214,
            "responseTime": 1678839836487,
            "catchQuestion": "How many <b class=\"r\">red<\/b> marbles did you actually draw (before any changes)? ",
            "catchKey": -1,
            "catchResponse": -1,
            "catchTime": 1678839836488,
            "trialTime": 0
        },
        {
            "exptPart": "trial",
            "trialNumber": 46,
            "roleCurrent": "sender",
            "marblesSampled": 100,
            "probRed": 0.5,
            "lambda": 5,
            "drawnRed": 63,
            "reportedRed": 63,
            "inferredRed": 56,
            "playerTrialScore": 0,
            "oppTrialScore": -7,
            "playerTotalScore": -266,
            "oppTotalScore": 166,
            "waitTime": 2558.6705385436744,
            "responseTime": 1678839848133,
            "catchQuestion": "How many <b class=\"r\">red<\/b> marbles did you actually draw (before any changes)? ",
            "catchKey": -1,
            "catchResponse": -1,
            "catchTime": 1678839836488,
            "trialTime": 0
        },
        {
            "exptPart": "trial",
            "trialNumber": 47,
            "roleCurrent": "receiver",
            "marblesSampled": 100,
            "probRed": 0.5,
            "lambda": 5,
            "drawnRed": 46,
            "reportedRed": 48,
            "inferredRed": 63,
            "playerTrialScore": -17,
            "oppTrialScore": 17,
            "playerTotalScore": -283,
            "oppTotalScore": 183,
            "waitTime": 7025.193957691332,
            "responseTime": 1678839857872,
            "catchQuestion": "How many <b class=\"r\">red<\/b> marbles did you actually draw (before any changes)? ",
            "catchKey": -1,
            "catchResponse": -1,
            "catchTime": 1678839836488,
            "trialTime": 0
        },
        {
            "exptPart": "trial",
            "trialNumber": 48,
            "roleCurrent": "sender",
            "marblesSampled": 100,
            "probRed": 0.5,
            "lambda": 5,
            "drawnRed": 41,
            "reportedRed": 41,
            "inferredRed": 36,
            "playerTrialScore": 0,
            "oppTrialScore": -5,
            "playerTotalScore": -283,
            "oppTotalScore": 178,
            "waitTime": 2698.3832126421553,
            "responseTime": 1678839863996,
            "catchQuestion": "How many <b class=\"r\">red<\/b> marbles did you actually draw (before any changes)? ",
            "catchKey": -1,
            "catchResponse": -1,
            "catchTime": 1678839836488,
            "trialTime": 0
        },
        {
            "exptPart": "trial",
            "trialNumber": 49,
            "roleCurrent": "receiver",
            "marblesSampled": 100,
            "probRed": 0.5,
            "lambda": 5,
            "drawnRed": 40,
            "reportedRed": 47,
            "inferredRed": 51,
            "playerTrialScore": -11,
            "oppTrialScore": 11,
            "playerTotalScore": -294,
            "oppTotalScore": 189,
            "waitTime": 5687.615470844437,
            "responseTime": 1678839873464,
            "catchQuestion": "How many <b class=\"r\">red<\/b> marbles did you actually draw (before any changes)? ",
            "catchKey": -1,
            "catchResponse": -1,
            "catchTime": 1678839836488,
            "trialTime": 0
        },
        {
            "exptPart": "trial",
            "trialNumber": 50,
            "roleCurrent": "sender",
            "marblesSampled": 100,
            "probRed": 0.5,
            "lambda": 5,
            "drawnRed": 62,
            "reportedRed": 62,
            "inferredRed": 60,
            "playerTrialScore": 0,
            "oppTrialScore": -2,
            "playerTotalScore": -294,
            "oppTotalScore": 187,
            "waitTime": 2069.399741162248,
            "responseTime": 1678839880503,
            "catchQuestion": "How many <b class=\"r\">red<\/b> marbles did you actually draw (before any changes)? ",
            "catchKey": 62,
            "catchResponse": 62,
            "catchTime": 1678839880503,
            "trialTime": 0
        },
        {
            "exptPart": "trial",
            "trialNumber": 51,
            "roleCurrent": "receiver",
            "marblesSampled": 100,
            "probRed": 0.5,
            "lambda": 5,
            "drawnRed": 60,
            "reportedRed": 62,
            "inferredRed": 62,
            "playerTrialScore": -2,
            "oppTrialScore": 2,
            "playerTotalScore": -296,
            "oppTotalScore": 189,
            "waitTime": 5600.191884850473,
            "responseTime": 1678839896608,
            "catchQuestion": "How many <b class=\"r\">red<\/b> marbles did you actually draw (before any changes)? ",
            "catchKey": -1,
            "catchResponse": -1,
            "catchTime": 1678839880503,
            "trialTime": 0
        },
        {
            "exptPart": "trial",
            "trialNumber": 52,
            "roleCurrent": "sender",
            "marblesSampled": 100,
            "probRed": 0.5,
            "lambda": 5,
            "drawnRed": 30,
            "reportedRed": 30,
            "inferredRed": 24,
            "playerTrialScore": 0,
            "oppTrialScore": -6,
            "playerTotalScore": -296,
            "oppTotalScore": 183,
            "waitTime": 2308.7525822466405,
            "responseTime": 1678839903906,
            "catchQuestion": "How many <b class=\"r\">red<\/b> marbles did you actually draw (before any changes)? ",
            "catchKey": -1,
            "catchResponse": -1,
            "catchTime": 1678839880503,
            "trialTime": 0
        },
        {
            "exptPart": "trial",
            "trialNumber": 53,
            "roleCurrent": "receiver",
            "marblesSampled": 100,
            "probRed": 0.5,
            "lambda": 5,
            "drawnRed": 61,
            "reportedRed": 67,
            "inferredRed": 70,
            "playerTrialScore": -9,
            "oppTrialScore": 9,
            "playerTotalScore": -305,
            "oppTotalScore": 192,
            "waitTime": 5922.540498773802,
            "responseTime": 1678839913060,
            "catchQuestion": "How many <b class=\"r\">red<\/b> marbles did you actually draw (before any changes)? ",
            "catchKey": -1,
            "catchResponse": -1,
            "catchTime": 1678839880503,
            "trialTime": 0
        },
        {
            "exptPart": "trial",
            "trialNumber": 54,
            "roleCurrent": "sender",
            "marblesSampled": 100,
            "probRed": 0.5,
            "lambda": 5,
            "drawnRed": 61,
            "reportedRed": 61,
            "inferredRed": 55,
            "playerTrialScore": 0,
            "oppTrialScore": -6,
            "playerTotalScore": -305,
            "oppTotalScore": 186,
            "waitTime": 2817.792642669704,
            "responseTime": 1678839919966,
            "catchQuestion": "How many <b class=\"r\">red<\/b> marbles did you actually draw (before any changes)? ",
            "catchKey": -1,
            "catchResponse": -1,
            "catchTime": 1678839880503,
            "trialTime": 0
        },
        {
            "exptPart": "trial",
            "trialNumber": 55,
            "roleCurrent": "receiver",
            "marblesSampled": 100,
            "probRed": 0.5,
            "lambda": 5,
            "drawnRed": 23,
            "reportedRed": 28,
            "inferredRed": 61,
            "playerTrialScore": -38,
            "oppTrialScore": 38,
            "playerTotalScore": -343,
            "oppTotalScore": 224,
            "waitTime": 5901.525747942864,
            "responseTime": 1678839928419,
            "catchQuestion": "How many <b class=\"r\">red<\/b> marbles did you actually draw (before any changes)? ",
            "catchKey": -1,
            "catchResponse": -1,
            "catchTime": 1678839928419,
            "trialTime": 0
        },
        {
            "exptPart": "trial",
            "trialNumber": 56,
            "roleCurrent": "sender",
            "marblesSampled": 100,
            "probRed": 0.5,
            "lambda": 5,
            "drawnRed": 55,
            "reportedRed": 55,
            "inferredRed": 46,
            "playerTrialScore": 0,
            "oppTrialScore": -9,
            "playerTotalScore": -343,
            "oppTotalScore": 215,
            "waitTime": 2232.6586013277683,
            "responseTime": 1678839938890,
            "catchQuestion": "How many <b class=\"r\">red<\/b> marbles did you actually draw (before any changes)? ",
            "catchKey": -1,
            "catchResponse": -1,
            "catchTime": 1678839928419,
            "trialTime": 0
        },
        {
            "exptPart": "trial",
            "trialNumber": 57,
            "roleCurrent": "receiver",
            "marblesSampled": 100,
            "probRed": 0.5,
            "lambda": 5,
            "drawnRed": 54,
            "reportedRed": 59,
            "inferredRed": 70,
            "playerTrialScore": -16,
            "oppTrialScore": 16,
            "playerTotalScore": -359,
            "oppTotalScore": 231,
            "waitTime": 6812.611813360012,
            "responseTime": 1678839954874,
            "catchQuestion": "How many <b class=\"r\">red<\/b> marbles did you actually draw (before any changes)? ",
            "catchKey": -1,
            "catchResponse": -1,
            "catchTime": 1678839928419,
            "trialTime": 0
        },
        {
            "exptPart": "trial",
            "trialNumber": 58,
            "roleCurrent": "sender",
            "marblesSampled": 100,
            "probRed": 0.5,
            "lambda": 5,
            "drawnRed": 48,
            "reportedRed": 48,
            "inferredRed": 42,
            "playerTrialScore": 0,
            "oppTrialScore": -6,
            "playerTotalScore": -359,
            "oppTotalScore": 225,
            "waitTime": 3103.2057012627647,
            "responseTime": 1678839961742,
            "catchQuestion": "How many <b class=\"r\">red<\/b> marbles did you actually draw (before any changes)? ",
            "catchKey": -1,
            "catchResponse": -1,
            "catchTime": 1678839928419,
            "trialTime": 0
        },
        {
            "exptPart": "trial",
            "trialNumber": 59,
            "roleCurrent": "receiver",
            "marblesSampled": 100,
            "probRed": 0.5,
            "lambda": 5,
            "drawnRed": 58,
            "reportedRed": 63,
            "inferredRed": 48,
            "playerTrialScore": -10,
            "oppTrialScore": 0,
            "playerTotalScore": -369,
            "oppTotalScore": 225,
            "waitTime": 7063.870852123867,
            "responseTime": 1678839971812,
            "catchQuestion": "How many <b class=\"r\">red<\/b> marbles did you actually draw (before any changes)? ",
            "catchKey": -1,
            "catchResponse": -1,
            "catchTime": 1678839928419,
            "trialTime": 0
        },
        {
            "exptPart": "trial",
            "trialNumber": 60,
            "roleCurrent": "sender",
            "marblesSampled": 100,
            "probRed": 0.5,
            "lambda": 5,
            "drawnRed": 37,
            "reportedRed": 37,
            "inferredRed": 34,
            "playerTrialScore": 0,
            "oppTrialScore": -3,
            "playerTotalScore": -369,
            "oppTotalScore": 222,
            "waitTime": 2766.099221733832,
            "responseTime": 1678839979930,
            "catchQuestion": "How many <b class=\"r\">red<\/b> marbles did you actually draw (before any changes)? ",
            "catchKey": -1,
            "catchResponse": -1,
            "catchTime": 1678839979931,
            "trialTime": 0
        },
        {
            "exptPart": "trial",
            "trialNumber": 61,
            "roleCurrent": "receiver",
            "marblesSampled": 100,
            "probRed": 0.5,
            "lambda": 5,
            "drawnRed": 79,
            "reportedRed": 88,
            "inferredRed": 38,
            "playerTrialScore": -41,
            "oppTrialScore": 0,
            "playerTotalScore": -410,
            "oppTotalScore": 222,
            "waitTime": 5684.350767361079,
            "responseTime": 1678839998556,
            "catchQuestion": "How many <b class=\"r\">red<\/b> marbles did you actually draw (before any changes)? ",
            "catchKey": -1,
            "catchResponse": -1,
            "catchTime": 1678839979931,
            "trialTime": 0
        },
        {
            "exptPart": "trial",
            "trialNumber": 62,
            "roleCurrent": "sender",
            "marblesSampled": 100,
            "probRed": 0.5,
            "lambda": 5,
            "drawnRed": 34,
            "reportedRed": 34,
            "inferredRed": 27,
            "playerTrialScore": 0,
            "oppTrialScore": -7,
            "playerTotalScore": -410,
            "oppTotalScore": 215,
            "waitTime": 2355.985076956388,
            "responseTime": 1678840004590,
            "catchQuestion": "How many <b class=\"r\">red<\/b> marbles did you actually draw (before any changes)? ",
            "catchKey": -1,
            "catchResponse": -1,
            "catchTime": 1678839979931,
            "trialTime": 0
        },
        {
            "exptPart": "trial",
            "trialNumber": 63,
            "roleCurrent": "receiver",
            "marblesSampled": 100,
            "probRed": 0.5,
            "lambda": 5,
            "drawnRed": 45,
            "reportedRed": 53,
            "inferredRed": 34,
            "playerTrialScore": -11,
            "oppTrialScore": 0,
            "playerTotalScore": -421,
            "oppTotalScore": 215,
            "waitTime": 5226.420784889637,
            "responseTime": 1678840012348,
            "catchQuestion": "How many <b class=\"r\">red<\/b> marbles did your opponent report drawing? ",
            "catchKey": 53,
            "catchResponse": 53,
            "catchTime": 1678840012348,
            "trialTime": 0
        },
        {
            "exptPart": "trial",
            "trialNumber": 64,
            "roleCurrent": "sender",
            "marblesSampled": 100,
            "probRed": 0.5,
            "lambda": 5,
            "drawnRed": 61,
            "reportedRed": 61,
            "inferredRed": 56,
            "playerTrialScore": 0,
            "oppTrialScore": -5,
            "playerTotalScore": -421,
            "oppTotalScore": 210,
            "waitTime": 2228.6301564278083,
            "responseTime": 1678840022946,
            "catchQuestion": "How many <b class=\"r\">red<\/b> marbles did your opponent report drawing? ",
            "catchKey": -1,
            "catchResponse": -1,
            "catchTime": 1678840012348,
            "trialTime": 0
        },
        {
            "exptPart": "trial",
            "trialNumber": 65,
            "roleCurrent": "receiver",
            "marblesSampled": 100,
            "probRed": 0.5,
            "lambda": 5,
            "drawnRed": 22,
            "reportedRed": 28,
            "inferredRed": 61,
            "playerTrialScore": -39,
            "oppTrialScore": 39,
            "playerTotalScore": -460,
            "oppTotalScore": 249,
            "waitTime": 6025.989448485366,
            "responseTime": 1678840031228,
            "catchQuestion": "How many <b class=\"r\">red<\/b> marbles did your opponent report drawing? ",
            "catchKey": -1,
            "catchResponse": -1,
            "catchTime": 1678840031228,
            "trialTime": 0
        },
        {
            "exptPart": "trial",
            "trialNumber": 66,
            "roleCurrent": "sender",
            "marblesSampled": 100,
            "probRed": 0.5,
            "lambda": 5,
            "drawnRed": 36,
            "reportedRed": 36,
            "inferredRed": 29,
            "playerTrialScore": 0,
            "oppTrialScore": -7,
            "playerTotalScore": -460,
            "oppTotalScore": 242,
            "waitTime": 2556.0256044184944,
            "responseTime": 1678840038355,
            "catchQuestion": "How many <b class=\"r\">red<\/b> marbles did your opponent report drawing? ",
            "catchKey": -1,
            "catchResponse": -1,
            "catchTime": 1678840031228,
            "trialTime": 0
        },
        {
            "exptPart": "trial",
            "trialNumber": 67,
            "roleCurrent": "receiver",
            "marblesSampled": 100,
            "probRed": 0.5,
            "lambda": 5,
            "drawnRed": 81,
            "reportedRed": 86,
            "inferredRed": 64,
            "playerTrialScore": -17,
            "oppTrialScore": 0,
            "playerTotalScore": -477,
            "oppTotalScore": 242,
            "waitTime": 6258.564923237457,
            "responseTime": 1678840048251,
            "catchQuestion": "How many <b class=\"r\">red<\/b> marbles did your opponent report drawing? ",
            "catchKey": -1,
            "catchResponse": -1,
            "catchTime": 1678840031228,
            "trialTime": 0
        },
        {
            "exptPart": "trial",
            "trialNumber": 68,
            "roleCurrent": "sender",
            "marblesSampled": 100,
            "probRed": 0.5,
            "lambda": 5,
            "drawnRed": 50,
            "reportedRed": 50,
            "inferredRed": 45,
            "playerTrialScore": 0,
            "oppTrialScore": -5,
            "playerTotalScore": -477,
            "oppTotalScore": 237,
            "waitTime": 3143.1453722992574,
            "responseTime": 1678840054917,
            "catchQuestion": "How many <b class=\"r\">red<\/b> marbles did your opponent report drawing? ",
            "catchKey": -1,
            "catchResponse": -1,
            "catchTime": 1678840031228,
            "trialTime": 0
        },
        {
            "exptPart": "trial",
            "trialNumber": 69,
            "roleCurrent": "receiver",
            "marblesSampled": 100,
            "probRed": 0.5,
            "lambda": 5,
            "drawnRed": 42,
            "reportedRed": 43,
            "inferredRed": 50,
            "playerTrialScore": -8,
            "oppTrialScore": 8,
            "playerTotalScore": -485,
            "oppTotalScore": 245,
            "waitTime": 5138.057692401666,
            "responseTime": 1678840062777,
            "catchQuestion": "How many <b class=\"r\">red<\/b> marbles did your opponent report drawing? ",
            "catchKey": -1,
            "catchResponse": -1,
            "catchTime": 1678840031228,
            "trialTime": 0
        },
        {
            "exptPart": "trial",
            "trialNumber": 70,
            "roleCurrent": "sender",
            "marblesSampled": 100,
            "probRed": 0.5,
            "lambda": 5,
            "drawnRed": 64,
            "reportedRed": 64,
            "inferredRed": 58,
            "playerTrialScore": 0,
            "oppTrialScore": -6,
            "playerTotalScore": -485,
            "oppTotalScore": 239,
            "waitTime": 2361.3004588701397,
            "responseTime": 1678840070796,
            "catchQuestion": "How many <b class=\"r\">red<\/b> marbles did your opponent report drawing? ",
            "catchKey": -1,
            "catchResponse": -1,
            "catchTime": 1678840070796,
            "trialTime": 0
        },
        {
            "exptPart": "trial",
            "trialNumber": 71,
            "roleCurrent": "receiver",
            "marblesSampled": 100,
            "probRed": 0.5,
            "lambda": 5,
            "drawnRed": 47,
            "reportedRed": 54,
            "inferredRed": 60,
            "playerTrialScore": -13,
            "oppTrialScore": 13,
            "playerTotalScore": -498,
            "oppTotalScore": 252,
            "waitTime": 5271.005071702916,
            "responseTime": 1678840081799,
            "catchQuestion": "How many <b class=\"r\">red<\/b> marbles did your opponent report drawing? ",
            "catchKey": -1,
            "catchResponse": -1,
            "catchTime": 1678840070796,
            "trialTime": 0
        },
        {
            "exptPart": "trial",
            "trialNumber": 72,
            "roleCurrent": "sender",
            "marblesSampled": 100,
            "probRed": 0.5,
            "lambda": 5,
            "drawnRed": 39,
            "reportedRed": 39,
            "inferredRed": 38,
            "playerTrialScore": 0,
            "oppTrialScore": -1,
            "playerTotalScore": -498,
            "oppTotalScore": 251,
            "waitTime": 2664.5737508222883,
            "responseTime": 1678840087961,
            "catchQuestion": "How many <b class=\"r\">red<\/b> marbles did your opponent report drawing? ",
            "catchKey": -1,
            "catchResponse": -1,
            "catchTime": 1678840070796,
            "trialTime": 0
        },
        {
            "exptPart": "trial",
            "trialNumber": 73,
            "roleCurrent": "receiver",
            "marblesSampled": 100,
            "probRed": 0.5,
            "lambda": 5,
            "drawnRed": 32,
            "reportedRed": 39,
            "inferredRed": 39,
            "playerTrialScore": -7,
            "oppTrialScore": 7,
            "playerTotalScore": -505,
            "oppTotalScore": 258,
            "waitTime": 7282.806822010102,
            "responseTime": 1678840098640,
            "catchQuestion": "How many <b class=\"r\">red<\/b> marbles did your opponent report drawing? ",
            "catchKey": -1,
            "catchResponse": -1,
            "catchTime": 1678840070796,
            "trialTime": 0
        },
        {
            "exptPart": "trial",
            "trialNumber": 74,
            "roleCurrent": "sender",
            "marblesSampled": 100,
            "probRed": 0.5,
            "lambda": 5,
            "drawnRed": 42,
            "reportedRed": 42,
            "inferredRed": 33,
            "playerTrialScore": 0,
            "oppTrialScore": -9,
            "playerTotalScore": -505,
            "oppTotalScore": 249,
            "waitTime": 2789.94821263262,
            "responseTime": 1678840107792,
            "catchQuestion": "How many <b class=\"r\">red<\/b> marbles did your opponent report drawing? ",
            "catchKey": -1,
            "catchResponse": -1,
            "catchTime": 1678840070796,
            "trialTime": 0
        },
        {
            "exptPart": "trial",
            "trialNumber": 75,
            "roleCurrent": "receiver",
            "marblesSampled": 100,
            "probRed": 0.5,
            "lambda": 5,
            "drawnRed": 64,
            "reportedRed": 69,
            "inferredRed": 42,
            "playerTrialScore": -22,
            "oppTrialScore": 0,
            "playerTotalScore": -527,
            "oppTotalScore": 249,
            "waitTime": 5151.83254633186,
            "responseTime": 1678840115586,
            "catchQuestion": "How many <b class=\"r\">red<\/b> marbles did your opponent report drawing? ",
            "catchKey": 69,
            "catchResponse": 68,
            "catchTime": 1678840115586,
            "trialTime": 0
        },
        {
            "exptPart": "trial",
            "trialNumber": 76,
            "roleCurrent": "sender",
            "marblesSampled": 100,
            "probRed": 0.5,
            "lambda": 5,
            "drawnRed": 64,
            "reportedRed": 64,
            "inferredRed": 61,
            "playerTrialScore": 0,
            "oppTrialScore": -3,
            "playerTotalScore": -527,
            "oppTotalScore": 246,
            "waitTime": 3130.4923909014788,
            "responseTime": 1678840129792,
            "catchQuestion": "How many <b class=\"r\">red<\/b> marbles did your opponent report drawing? ",
            "catchKey": -1,
            "catchResponse": -1,
            "catchTime": 1678840115586,
            "trialTime": 0
        },
        {
            "exptPart": "trial",
            "trialNumber": 77,
            "roleCurrent": "receiver",
            "marblesSampled": 100,
            "probRed": 0.5,
            "lambda": 5,
            "drawnRed": 50,
            "reportedRed": 55,
            "inferredRed": 64,
            "playerTrialScore": -14,
            "oppTrialScore": 14,
            "playerTotalScore": -541,
            "oppTotalScore": 260,
            "waitTime": 5837.762169470614,
            "responseTime": 1678840138543,
            "catchQuestion": "How many <b class=\"r\">red<\/b> marbles did your opponent report drawing? ",
            "catchKey": -1,
            "catchResponse": -1,
            "catchTime": 1678840115586,
            "trialTime": 0
        },
        {
            "exptPart": "trial",
            "trialNumber": 78,
            "roleCurrent": "sender",
            "marblesSampled": 100,
            "probRed": 0.5,
            "lambda": 5,
            "drawnRed": 17,
            "reportedRed": 17,
            "inferredRed": 8,
            "playerTrialScore": 0,
            "oppTrialScore": -9,
            "playerTotalScore": -541,
            "oppTotalScore": 251,
            "waitTime": 2378.1805721391734,
            "responseTime": 1678840145140,
            "catchQuestion": "How many <b class=\"r\">red<\/b> marbles did your opponent report drawing? ",
            "catchKey": -1,
            "catchResponse": -1,
            "catchTime": 1678840115586,
            "trialTime": 0
        },
        {
            "exptPart": "trial",
            "trialNumber": 79,
            "roleCurrent": "receiver",
            "marblesSampled": 100,
            "probRed": 0.5,
            "lambda": 5,
            "drawnRed": 56,
            "reportedRed": 62,
            "inferredRed": 17,
            "playerTrialScore": -39,
            "oppTrialScore": 0,
            "playerTotalScore": -580,
            "oppTotalScore": 251,
            "waitTime": 6273.465879945303,
            "responseTime": 1678840153735,
            "catchQuestion": "How many <b class=\"r\">red<\/b> marbles did your opponent report drawing? ",
            "catchKey": -1,
            "catchResponse": -1,
            "catchTime": 1678840115586,
            "trialTime": 0
        },
        {
            "exptPart": "trial",
            "trialNumber": 80,
            "roleCurrent": "sender",
            "marblesSampled": 100,
            "probRed": 0.5,
            "lambda": 5,
            "drawnRed": 41,
            "reportedRed": 41,
            "inferredRed": 35,
            "playerTrialScore": 0,
            "oppTrialScore": -6,
            "playerTotalScore": -580,
            "oppTotalScore": 245,
            "waitTime": 2692.9840161177253,
            "responseTime": 1678840161445,
            "catchQuestion": "How many <b class=\"r\">red<\/b> marbles did your opponent report drawing? ",
            "catchKey": -1,
            "catchResponse": -1,
            "catchTime": 1678840161445,
            "trialTime": 0
        },
        {
            "exptPart": "trial",
            "trialNumber": 81,
            "roleCurrent": "receiver",
            "marblesSampled": 100,
            "probRed": 0.5,
            "lambda": 5,
            "drawnRed": 42,
            "reportedRed": 47,
            "inferredRed": 41,
            "playerTrialScore": -1,
            "oppTrialScore": 0,
            "playerTotalScore": -581,
            "oppTotalScore": 245,
            "waitTime": 5158.545187033576,
            "responseTime": 1678840169706,
            "catchQuestion": "How many <b class=\"r\">red<\/b> marbles did your opponent report drawing? ",
            "catchKey": -1,
            "catchResponse": -1,
            "catchTime": 1678840161445,
            "trialTime": 0
        },
        {
            "exptPart": "trial",
            "trialNumber": 82,
            "roleCurrent": "sender",
            "marblesSampled": 100,
            "probRed": 0.5,
            "lambda": 5,
            "drawnRed": 59,
            "reportedRed": 59,
            "inferredRed": 45,
            "playerTrialScore": 0,
            "oppTrialScore": -14,
            "playerTotalScore": -581,
            "oppTotalScore": 231,
            "waitTime": 3111.259107742414,
            "responseTime": 1678840181825,
            "catchQuestion": "How many <b class=\"r\">red<\/b> marbles did your opponent report drawing? ",
            "catchKey": -1,
            "catchResponse": -1,
            "catchTime": 1678840161445,
            "trialTime": 0
        },
        {
            "exptPart": "trial",
            "trialNumber": 83,
            "roleCurrent": "receiver",
            "marblesSampled": 100,
            "probRed": 0.5,
            "lambda": 5,
            "drawnRed": 36,
            "reportedRed": 41,
            "inferredRed": 59,
            "playerTrialScore": -23,
            "oppTrialScore": 23,
            "playerTotalScore": -604,
            "oppTotalScore": 254,
            "waitTime": 6004.60331653315,
            "responseTime": 1678840189999,
            "catchQuestion": "How many <b class=\"r\">red<\/b> marbles did your opponent report drawing? ",
            "catchKey": -1,
            "catchResponse": -1,
            "catchTime": 1678840161445,
            "trialTime": 0
        },
        {
            "exptPart": "trial",
            "trialNumber": 84,
            "roleCurrent": "sender",
            "marblesSampled": 100,
            "probRed": 0.5,
            "lambda": 5,
            "drawnRed": 55,
            "reportedRed": 55,
            "inferredRed": 51,
            "playerTrialScore": 0,
            "oppTrialScore": -4,
            "playerTotalScore": -604,
            "oppTotalScore": 250,
            "waitTime": 2615.0649448873896,
            "responseTime": 1678840200412,
            "catchQuestion": "How many <b class=\"r\">red<\/b> marbles did your opponent report drawing? ",
            "catchKey": -1,
            "catchResponse": -1,
            "catchTime": 1678840161445,
            "trialTime": 0
        },
        {
            "exptPart": "trial",
            "trialNumber": 85,
            "roleCurrent": "receiver",
            "marblesSampled": 100,
            "probRed": 0.5,
            "lambda": 5,
            "drawnRed": 47,
            "reportedRed": 55,
            "inferredRed": 55,
            "playerTrialScore": -8,
            "oppTrialScore": 8,
            "playerTotalScore": -612,
            "oppTotalScore": 258,
            "waitTime": 6027.111736753113,
            "responseTime": 1678840208656,
            "catchQuestion": "How many <b class=\"r\">red<\/b> marbles did your opponent report drawing? ",
            "catchKey": -1,
            "catchResponse": -1,
            "catchTime": 1678840208656,
            "trialTime": 0
        },
        {
            "exptPart": "trial",
            "trialNumber": 86,
            "roleCurrent": "sender",
            "marblesSampled": 100,
            "probRed": 0.5,
            "lambda": 5,
            "drawnRed": 53,
            "reportedRed": 53,
            "inferredRed": 49,
            "playerTrialScore": 0,
            "oppTrialScore": -4,
            "playerTotalScore": -612,
            "oppTotalScore": 254,
            "waitTime": 2621.098574404048,
            "responseTime": 1678840217770,
            "catchQuestion": "How many <b class=\"r\">red<\/b> marbles did your opponent report drawing? ",
            "catchKey": -1,
            "catchResponse": -1,
            "catchTime": 1678840208656,
            "trialTime": 0
        },
        {
            "exptPart": "trial",
            "trialNumber": 87,
            "roleCurrent": "receiver",
            "marblesSampled": 100,
            "probRed": 0.5,
            "lambda": 5,
            "drawnRed": 24,
            "reportedRed": 29,
            "inferredRed": 53,
            "playerTrialScore": -29,
            "oppTrialScore": 29,
            "playerTotalScore": -641,
            "oppTotalScore": 283,
            "waitTime": 6407.864486486028,
            "responseTime": 1678840228131,
            "catchQuestion": "How many <b class=\"r\">red<\/b> marbles did your opponent report drawing? ",
            "catchKey": -1,
            "catchResponse": -1,
            "catchTime": 1678840208656,
            "trialTime": 0
        },
        {
            "exptPart": "trial",
            "trialNumber": 88,
            "roleCurrent": "sender",
            "marblesSampled": 100,
            "probRed": 0.5,
            "lambda": 5,
            "drawnRed": 44,
            "reportedRed": 44,
            "inferredRed": 39,
            "playerTrialScore": 0,
            "oppTrialScore": -5,
            "playerTotalScore": -641,
            "oppTotalScore": 278,
            "waitTime": 2809.0318467166717,
            "responseTime": 1678840235723,
            "catchQuestion": "How many <b class=\"r\">red<\/b> marbles did your opponent report drawing? ",
            "catchKey": -1,
            "catchResponse": -1,
            "catchTime": 1678840208656,
            "trialTime": 0
        },
        {
            "exptPart": "trial",
            "trialNumber": 89,
            "roleCurrent": "receiver",
            "marblesSampled": 100,
            "probRed": 0.5,
            "lambda": 5,
            "drawnRed": 13,
            "reportedRed": 20,
            "inferredRed": 44,
            "playerTrialScore": -31,
            "oppTrialScore": 31,
            "playerTotalScore": -672,
            "oppTotalScore": 309,
            "waitTime": 6167.316546085742,
            "responseTime": 1678840243568,
            "catchQuestion": "How many <b class=\"r\">red<\/b> marbles did your opponent report drawing? ",
            "catchKey": -1,
            "catchResponse": -1,
            "catchTime": 1678840208656,
            "trialTime": 0
        },
        {
            "exptPart": "trial",
            "trialNumber": 90,
            "roleCurrent": "sender",
            "marblesSampled": 100,
            "probRed": 0.5,
            "lambda": 5,
            "drawnRed": 33,
            "reportedRed": 33,
            "inferredRed": 30,
            "playerTrialScore": 0,
            "oppTrialScore": -3,
            "playerTotalScore": -672,
            "oppTotalScore": 306,
            "waitTime": 3176.7889030967617,
            "responseTime": 1678840250834,
            "catchQuestion": "How many <b class=\"r\">red<\/b> marbles did your opponent report drawing? ",
            "catchKey": -1,
            "catchResponse": -1,
            "catchTime": 1678840250834,
            "trialTime": 0
        },
        {
            "exptPart": "trial",
            "trialNumber": 91,
            "roleCurrent": "receiver",
            "marblesSampled": 100,
            "probRed": 0.5,
            "lambda": 5,
            "drawnRed": 57,
            "reportedRed": 60,
            "inferredRed": 33,
            "playerTrialScore": -24,
            "oppTrialScore": 0,
            "playerTotalScore": -696,
            "oppTotalScore": 306,
            "waitTime": 7003.222009098928,
            "responseTime": 1678840262092,
            "catchQuestion": "How many <b class=\"r\">red<\/b> marbles did your opponent report drawing? ",
            "catchKey": -1,
            "catchResponse": -1,
            "catchTime": 1678840250834,
            "trialTime": 0
        },
        {
            "exptPart": "trial",
            "trialNumber": 92,
            "roleCurrent": "sender",
            "marblesSampled": 100,
            "probRed": 0.5,
            "lambda": 5,
            "drawnRed": 64,
            "reportedRed": 64,
            "inferredRed": 58,
            "playerTrialScore": 0,
            "oppTrialScore": -6,
            "playerTotalScore": -696,
            "oppTotalScore": 300,
            "waitTime": 3108.039193940392,
            "responseTime": 1678840268737,
            "catchQuestion": "How many <b class=\"r\">red<\/b> marbles did your opponent report drawing? ",
            "catchKey": -1,
            "catchResponse": -1,
            "catchTime": 1678840250834,
            "trialTime": 0
        },
        {
            "exptPart": "trial",
            "trialNumber": 93,
            "roleCurrent": "receiver",
            "marblesSampled": 100,
            "probRed": 0.5,
            "lambda": 5,
            "drawnRed": 44,
            "reportedRed": 49,
            "inferredRed": 64,
            "playerTrialScore": -20,
            "oppTrialScore": 20,
            "playerTotalScore": -716,
            "oppTotalScore": 320,
            "waitTime": 6316.252080975484,
            "responseTime": 1678840278593,
            "catchQuestion": "How many <b class=\"r\">red<\/b> marbles did your opponent report drawing? ",
            "catchKey": -1,
            "catchResponse": -1,
            "catchTime": 1678840250834,
            "trialTime": 0
        },
        {
            "exptPart": "trial",
            "trialNumber": 94,
            "roleCurrent": "sender",
            "marblesSampled": 100,
            "probRed": 0.5,
            "lambda": 5,
            "drawnRed": 66,
            "reportedRed": 66,
            "inferredRed": 60,
            "playerTrialScore": 0,
            "oppTrialScore": -6,
            "playerTotalScore": -716,
            "oppTotalScore": 314,
            "waitTime": 3108.8417462060984,
            "responseTime": 1678840289265,
            "catchQuestion": "How many <b class=\"r\">red<\/b> marbles did you actually draw (before any changes)? ",
            "catchKey": 66,
            "catchResponse": 66,
            "catchTime": 1678840289265,
            "trialTime": 0
        },
        {
            "exptPart": "trial",
            "trialNumber": 95,
            "roleCurrent": "receiver",
            "marblesSampled": 100,
            "probRed": 0.5,
            "lambda": 5,
            "drawnRed": 34,
            "reportedRed": 41,
            "inferredRed": 66,
            "playerTrialScore": -32,
            "oppTrialScore": 32,
            "playerTotalScore": -748,
            "oppTotalScore": 346,
            "waitTime": 6286.25993356959,
            "responseTime": 1678840303220,
            "catchQuestion": "How many <b class=\"r\">red<\/b> marbles did you actually draw (before any changes)? ",
            "catchKey": -1,
            "catchResponse": -1,
            "catchTime": 1678840303220,
            "trialTime": 0
        },
        {
            "exptPart": "trial",
            "trialNumber": 96,
            "roleCurrent": "sender",
            "marblesSampled": 100,
            "probRed": 0.5,
            "lambda": 5,
            "drawnRed": 85,
            "reportedRed": 85,
            "inferredRed": 83,
            "playerTrialScore": 0,
            "oppTrialScore": -2,
            "playerTotalScore": -748,
            "oppTotalScore": 344,
            "waitTime": 3154.9463060038215,
            "responseTime": 1678840317626,
            "catchQuestion": "How many <b class=\"r\">red<\/b> marbles did you actually draw (before any changes)? ",
            "catchKey": -1,
            "catchResponse": -1,
            "catchTime": 1678840303220,
            "trialTime": 0
        },
        {
            "exptPart": "trial",
            "trialNumber": 97,
            "roleCurrent": "receiver",
            "marblesSampled": 100,
            "probRed": 0.5,
            "lambda": 5,
            "drawnRed": 61,
            "reportedRed": 65,
            "inferredRed": 85,
            "playerTrialScore": -24,
            "oppTrialScore": 24,
            "playerTotalScore": -772,
            "oppTotalScore": 368,
            "waitTime": 5133.0488967063375,
            "responseTime": 1678840325949,
            "catchQuestion": "How many <b class=\"r\">red<\/b> marbles did you actually draw (before any changes)? ",
            "catchKey": -1,
            "catchResponse": -1,
            "catchTime": 1678840303220,
            "trialTime": 0
        },
        {
            "exptPart": "trial",
            "trialNumber": 98,
            "roleCurrent": "sender",
            "marblesSampled": 100,
            "probRed": 0.5,
            "lambda": 5,
            "drawnRed": 61,
            "reportedRed": 61,
            "inferredRed": 55,
            "playerTrialScore": 0,
            "oppTrialScore": -6,
            "playerTotalScore": -772,
            "oppTotalScore": 362,
            "waitTime": 2797.993625826119,
            "responseTime": 1678840339114,
            "catchQuestion": "How many <b class=\"r\">red<\/b> marbles did you actually draw (before any changes)? ",
            "catchKey": -1,
            "catchResponse": -1,
            "catchTime": 1678840303220,
            "trialTime": 0
        },
        {
            "exptPart": "trial",
            "trialNumber": 99,
            "roleCurrent": "receiver",
            "marblesSampled": 100,
            "probRed": 0.5,
            "lambda": 5,
            "drawnRed": 66,
            "reportedRed": 67,
            "inferredRed": 61,
            "playerTrialScore": -5,
            "oppTrialScore": 0,
            "playerTotalScore": -777,
            "oppTotalScore": 362,
            "waitTime": 5907.070713851649,
            "responseTime": 1678840348782,
            "catchQuestion": "How many <b class=\"r\">red<\/b> marbles did you actually draw (before any changes)? ",
            "catchKey": -1,
            "catchResponse": -1,
            "catchTime": 1678840303220,
            "trialTime": 0
        },
        {
            "exptPart": "trial",
            "trialNumber": 100,
            "roleCurrent": "sender",
            "marblesSampled": 100,
            "probRed": 0.5,
            "lambda": 5,
            "drawnRed": 59,
            "reportedRed": 59,
            "inferredRed": 53,
            "playerTrialScore": 0,
            "oppTrialScore": -6,
            "playerTotalScore": -777,
            "oppTotalScore": 356,
            "waitTime": 2695.3099103978366,
            "responseTime": 1678840357263,
            "catchQuestion": "How many <b class=\"r\">red<\/b> marbles did you actually draw (before any changes)? ",
            "catchKey": -1,
            "catchResponse": -1,
            "catchTime": 1678840357263,
            "trialTime": 0
        }
    ]
}