{
    "client": {
        "type": "sona",
        "experiment_id": 2228,
        "credit_token": "b315147ae43241ea9c65086cb510cfb7",
        "survey_code": "44942",
        "sid": "sona-44942",
        "window": {
            "width": 1512,
            "height": 816
        },
        "screen": {
            "width": 1512,
            "height": 982
        },
        "userAgent": "Mozilla\/5.0 (Macintosh; Intel Mac OS X 10_15_7) AppleWebKit\/537.36 (KHTML, like Gecko) Chrome\/111.0.0.0 Safari\/537.36",
        "score": 0,
        "bonus": 0
    },
    "expt": {
        "saveURL": "submit.simple.php",
        "trials": 100,
        "practiceTrials": 2,
        "marblesSampled": 100,
        "probRed": 0.5,
        "lambdaAI": 5,
        "roleFirst": "sender",
        "roles": [
            "sender",
            "receiver"
        ],
        "cost": "linear",
        "goal": "over",
        "goalInstructTxt": "below",
        "catchTrials": [
            75,
            47,
            57,
            20,
            28,
            43,
            63,
            27,
            12,
            8
        ],
        "scoreTotal": {
            "player": -315,
            "opp": -53
        },
        "sona": {
            "experiment_id": 2228,
            "credit_token": "b315147ae43241ea9c65086cb510cfb7"
        },
        "pilot": false,
        "debug": false
    },
    "trials": [
        {
            "exptPart": "practice",
            "trialNumber": 1,
            "roleCurrent": "sender",
            "marblesSampled": 100,
            "probRed": 0.5,
            "lambda": 5,
            "drawnRed": 62,
            "reportedRed": 68,
            "inferredRed": 62,
            "playerTrialScore": 0,
            "oppTrialScore": 0,
            "playerTotalScore": 0,
            "oppTotalScore": 0,
            "waitTime": 2179.991812794817,
            "responseTime": 1680631274051,
            "catchQuestion": "How many <b class=\"r\">red<\/b> marbles did you actually draw (before any changes)? ",
            "catchKey": 62,
            "catchResponse": 63,
            "catchTime": 1680631274051,
            "trialTime": 0
        },
        {
            "exptPart": "practice",
            "trialNumber": 2,
            "roleCurrent": "receiver",
            "marblesSampled": 100,
            "probRed": 0.5,
            "lambda": 5,
            "drawnRed": 62,
            "reportedRed": 69,
            "inferredRed": 58,
            "playerTrialScore": -4,
            "oppTrialScore": 0,
            "playerTotalScore": -4,
            "oppTotalScore": 0,
            "waitTime": 5252.014576244514,
            "responseTime": 1680631365997,
            "catchQuestion": "How many <b class=\"r\">red<\/b> marbles did your opponent report drawing? ",
            "catchKey": 69,
            "catchResponse": 69,
            "catchTime": 1680631365998,
            "trialTime": 0
        },
        {
            "exptPart": "trial",
            "trialNumber": 1,
            "roleCurrent": "sender",
            "marblesSampled": 100,
            "probRed": 0.5,
            "lambda": 5,
            "drawnRed": 30,
            "reportedRed": 30,
            "inferredRed": 28,
            "playerTrialScore": 0,
            "oppTrialScore": -2,
            "playerTotalScore": 0,
            "oppTotalScore": -2,
            "waitTime": 2324.850381415406,
            "responseTime": 1680631446247,
            "catchQuestion": "How many <b class=\"r\">red<\/b> marbles did your opponent report drawing? ",
            "catchKey": -1,
            "catchResponse": -1,
            "catchTime": 1680631365998,
            "trialTime": 0
        },
        {
            "exptPart": "trial",
            "trialNumber": 2,
            "roleCurrent": "receiver",
            "marblesSampled": 100,
            "probRed": 0.5,
            "lambda": 5,
            "drawnRed": 70,
            "reportedRed": 74,
            "inferredRed": 67,
            "playerTrialScore": -3,
            "oppTrialScore": 0,
            "playerTotalScore": -3,
            "oppTotalScore": -2,
            "waitTime": 6138.688296426075,
            "responseTime": 1680631473847,
            "catchQuestion": "How many <b class=\"r\">red<\/b> marbles did your opponent report drawing? ",
            "catchKey": -1,
            "catchResponse": -1,
            "catchTime": 1680631365998,
            "trialTime": 0
        },
        {
            "exptPart": "trial",
            "trialNumber": 3,
            "roleCurrent": "sender",
            "marblesSampled": 100,
            "probRed": 0.5,
            "lambda": 5,
            "drawnRed": 70,
            "reportedRed": 70,
            "inferredRed": 67,
            "playerTrialScore": 0,
            "oppTrialScore": -3,
            "playerTotalScore": -3,
            "oppTotalScore": -5,
            "waitTime": 2232.273406397284,
            "responseTime": 1680631504231,
            "catchQuestion": "How many <b class=\"r\">red<\/b> marbles did your opponent report drawing? ",
            "catchKey": -1,
            "catchResponse": -1,
            "catchTime": 1680631365998,
            "trialTime": 0
        },
        {
            "exptPart": "trial",
            "trialNumber": 4,
            "roleCurrent": "receiver",
            "marblesSampled": 100,
            "probRed": 0.5,
            "lambda": 5,
            "drawnRed": 52,
            "reportedRed": 53,
            "inferredRed": 53,
            "playerTrialScore": -1,
            "oppTrialScore": 1,
            "playerTotalScore": -4,
            "oppTotalScore": -4,
            "waitTime": 6915.272355609649,
            "responseTime": 1680631522263,
            "catchQuestion": "How many <b class=\"r\">red<\/b> marbles did your opponent report drawing? ",
            "catchKey": -1,
            "catchResponse": -1,
            "catchTime": 1680631365998,
            "trialTime": 0
        },
        {
            "exptPart": "trial",
            "trialNumber": 5,
            "roleCurrent": "sender",
            "marblesSampled": 100,
            "probRed": 0.5,
            "lambda": 5,
            "drawnRed": 54,
            "reportedRed": 56,
            "inferredRed": 53,
            "playerTrialScore": 0,
            "oppTrialScore": -1,
            "playerTotalScore": -4,
            "oppTotalScore": -5,
            "waitTime": 2385.9170820630584,
            "responseTime": 1680631559448,
            "catchQuestion": "How many <b class=\"r\">red<\/b> marbles did your opponent report drawing? ",
            "catchKey": -1,
            "catchResponse": -1,
            "catchTime": 1680631559448,
            "trialTime": 0
        },
        {
            "exptPart": "trial",
            "trialNumber": 6,
            "roleCurrent": "receiver",
            "marblesSampled": 100,
            "probRed": 0.5,
            "lambda": 5,
            "drawnRed": 40,
            "reportedRed": 48,
            "inferredRed": 49,
            "playerTrialScore": -9,
            "oppTrialScore": 9,
            "playerTotalScore": -13,
            "oppTotalScore": 4,
            "waitTime": 6244.083536479309,
            "responseTime": 1680631593664,
            "catchQuestion": "How many <b class=\"r\">red<\/b> marbles did your opponent report drawing? ",
            "catchKey": -1,
            "catchResponse": -1,
            "catchTime": 1680631559448,
            "trialTime": 0
        },
        {
            "exptPart": "trial",
            "trialNumber": 7,
            "roleCurrent": "sender",
            "marblesSampled": 100,
            "probRed": 0.5,
            "lambda": 5,
            "drawnRed": 53,
            "reportedRed": 55,
            "inferredRed": 49,
            "playerTrialScore": 0,
            "oppTrialScore": -4,
            "playerTotalScore": -13,
            "oppTotalScore": 0,
            "waitTime": 2468.0956572125824,
            "responseTime": 1680631622881,
            "catchQuestion": "How many <b class=\"r\">red<\/b> marbles did your opponent report drawing? ",
            "catchKey": -1,
            "catchResponse": -1,
            "catchTime": 1680631559448,
            "trialTime": 0
        },
        {
            "exptPart": "trial",
            "trialNumber": 8,
            "roleCurrent": "receiver",
            "marblesSampled": 100,
            "probRed": 0.5,
            "lambda": 5,
            "drawnRed": 92,
            "reportedRed": 95,
            "inferredRed": 88,
            "playerTrialScore": -4,
            "oppTrialScore": 0,
            "playerTotalScore": -17,
            "oppTotalScore": 0,
            "waitTime": 6485.061443722028,
            "responseTime": 1680631639493,
            "catchQuestion": "How many <b class=\"r\">red<\/b> marbles did your opponent report drawing? ",
            "catchKey": -1,
            "catchResponse": -1,
            "catchTime": 1680631559448,
            "trialTime": 0
        },
        {
            "exptPart": "trial",
            "trialNumber": 9,
            "roleCurrent": "sender",
            "marblesSampled": 100,
            "probRed": 0.5,
            "lambda": 5,
            "drawnRed": 45,
            "reportedRed": 57,
            "inferredRed": 50,
            "playerTrialScore": 5,
            "oppTrialScore": -5,
            "playerTotalScore": -12,
            "oppTotalScore": -5,
            "waitTime": 2237.116532365376,
            "responseTime": 1680631682111,
            "catchQuestion": "How many <b class=\"r\">red<\/b> marbles did you actually draw (before any changes)? ",
            "catchKey": 45,
            "catchResponse": 53,
            "catchTime": 1680631682112,
            "trialTime": 0
        },
        {
            "exptPart": "trial",
            "trialNumber": 10,
            "roleCurrent": "receiver",
            "marblesSampled": 100,
            "probRed": 0.5,
            "lambda": 5,
            "drawnRed": 72,
            "reportedRed": 75,
            "inferredRed": 66,
            "playerTrialScore": -6,
            "oppTrialScore": 0,
            "playerTotalScore": -18,
            "oppTotalScore": -5,
            "waitTime": 6604.891186406286,
            "responseTime": 1680631707592,
            "catchQuestion": "How many <b class=\"r\">red<\/b> marbles did you actually draw (before any changes)? ",
            "catchKey": -1,
            "catchResponse": -1,
            "catchTime": 1680631707592,
            "trialTime": 0
        },
        {
            "exptPart": "trial",
            "trialNumber": 11,
            "roleCurrent": "sender",
            "marblesSampled": 100,
            "probRed": 0.5,
            "lambda": 5,
            "drawnRed": 53,
            "reportedRed": 52,
            "inferredRed": 47,
            "playerTrialScore": 0,
            "oppTrialScore": -6,
            "playerTotalScore": -18,
            "oppTotalScore": -11,
            "waitTime": 2724.8944906506695,
            "responseTime": 1680631789576,
            "catchQuestion": "How many <b class=\"r\">red<\/b> marbles did you actually draw (before any changes)? ",
            "catchKey": -1,
            "catchResponse": -1,
            "catchTime": 1680631707592,
            "trialTime": 0
        },
        {
            "exptPart": "trial",
            "trialNumber": 12,
            "roleCurrent": "receiver",
            "marblesSampled": 100,
            "probRed": 0.5,
            "lambda": 5,
            "drawnRed": 55,
            "reportedRed": 58,
            "inferredRed": 44,
            "playerTrialScore": -11,
            "oppTrialScore": 0,
            "playerTotalScore": -29,
            "oppTotalScore": -11,
            "waitTime": 5252.188897250292,
            "responseTime": 1680631807343,
            "catchQuestion": "How many <b class=\"r\">red<\/b> marbles did you actually draw (before any changes)? ",
            "catchKey": -1,
            "catchResponse": -1,
            "catchTime": 1680631707592,
            "trialTime": 0
        },
        {
            "exptPart": "trial",
            "trialNumber": 13,
            "roleCurrent": "sender",
            "marblesSampled": 100,
            "probRed": 0.5,
            "lambda": 5,
            "drawnRed": 55,
            "reportedRed": 49,
            "inferredRed": 47,
            "playerTrialScore": 0,
            "oppTrialScore": -8,
            "playerTotalScore": -29,
            "oppTotalScore": -19,
            "waitTime": 2980.925786331032,
            "responseTime": 1680631848276,
            "catchQuestion": "How many <b class=\"r\">red<\/b> marbles did you actually draw (before any changes)? ",
            "catchKey": 55,
            "catchResponse": 55,
            "catchTime": 1680631848276,
            "trialTime": 0
        },
        {
            "exptPart": "trial",
            "trialNumber": 14,
            "roleCurrent": "receiver",
            "marblesSampled": 100,
            "probRed": 0.5,
            "lambda": 5,
            "drawnRed": 70,
            "reportedRed": 79,
            "inferredRed": 55,
            "playerTrialScore": -15,
            "oppTrialScore": 0,
            "playerTotalScore": -44,
            "oppTotalScore": -19,
            "waitTime": 7331.783600173936,
            "responseTime": 1680631881691,
            "catchQuestion": "How many <b class=\"r\">red<\/b> marbles did you actually draw (before any changes)? ",
            "catchKey": -1,
            "catchResponse": -1,
            "catchTime": 1680631848276,
            "trialTime": 0
        },
        {
            "exptPart": "trial",
            "trialNumber": 15,
            "roleCurrent": "sender",
            "marblesSampled": 100,
            "probRed": 0.5,
            "lambda": 5,
            "drawnRed": 37,
            "reportedRed": 44,
            "inferredRed": 36,
            "playerTrialScore": 0,
            "oppTrialScore": -1,
            "playerTotalScore": -44,
            "oppTotalScore": -20,
            "waitTime": 3154.2437116099927,
            "responseTime": 1680631945974,
            "catchQuestion": "How many <b class=\"r\">red<\/b> marbles did you actually draw (before any changes)? ",
            "catchKey": -1,
            "catchResponse": -1,
            "catchTime": 1680631945974,
            "trialTime": 0
        },
        {
            "exptPart": "trial",
            "trialNumber": 16,
            "roleCurrent": "receiver",
            "marblesSampled": 100,
            "probRed": 0.5,
            "lambda": 5,
            "drawnRed": 33,
            "reportedRed": 41,
            "inferredRed": 39,
            "playerTrialScore": -6,
            "oppTrialScore": 6,
            "playerTotalScore": -50,
            "oppTotalScore": -14,
            "waitTime": 5321.811154302603,
            "responseTime": 1680631963808,
            "catchQuestion": "How many <b class=\"r\">red<\/b> marbles did you actually draw (before any changes)? ",
            "catchKey": -1,
            "catchResponse": -1,
            "catchTime": 1680631945974,
            "trialTime": 0
        },
        {
            "exptPart": "trial",
            "trialNumber": 17,
            "roleCurrent": "sender",
            "marblesSampled": 100,
            "probRed": 0.5,
            "lambda": 5,
            "drawnRed": 49,
            "reportedRed": 49,
            "inferredRed": 41,
            "playerTrialScore": 0,
            "oppTrialScore": -8,
            "playerTotalScore": -50,
            "oppTotalScore": -22,
            "waitTime": 3177.357778731488,
            "responseTime": 1680631973009,
            "catchQuestion": "How many <b class=\"r\">red<\/b> marbles did you actually draw (before any changes)? ",
            "catchKey": -1,
            "catchResponse": -1,
            "catchTime": 1680631945974,
            "trialTime": 0
        },
        {
            "exptPart": "trial",
            "trialNumber": 18,
            "roleCurrent": "receiver",
            "marblesSampled": 100,
            "probRed": 0.5,
            "lambda": 5,
            "drawnRed": 48,
            "reportedRed": 54,
            "inferredRed": 50,
            "playerTrialScore": -2,
            "oppTrialScore": 2,
            "playerTotalScore": -52,
            "oppTotalScore": -20,
            "waitTime": 6990.809580452094,
            "responseTime": 1680631989124,
            "catchQuestion": "How many <b class=\"r\">red<\/b> marbles did you actually draw (before any changes)? ",
            "catchKey": -1,
            "catchResponse": -1,
            "catchTime": 1680631945974,
            "trialTime": 0
        },
        {
            "exptPart": "trial",
            "trialNumber": 19,
            "roleCurrent": "sender",
            "marblesSampled": 100,
            "probRed": 0.5,
            "lambda": 5,
            "drawnRed": 69,
            "reportedRed": 74,
            "inferredRed": 70,
            "playerTrialScore": 1,
            "oppTrialScore": -1,
            "playerTotalScore": -51,
            "oppTotalScore": -21,
            "waitTime": 2089.3713845041148,
            "responseTime": 1680632034826,
            "catchQuestion": "How many <b class=\"r\">red<\/b> marbles did you actually draw (before any changes)? ",
            "catchKey": -1,
            "catchResponse": -1,
            "catchTime": 1680631945974,
            "trialTime": 0
        },
        {
            "exptPart": "trial",
            "trialNumber": 20,
            "roleCurrent": "receiver",
            "marblesSampled": 100,
            "probRed": 0.5,
            "lambda": 5,
            "drawnRed": 45,
            "reportedRed": 48,
            "inferredRed": 40,
            "playerTrialScore": -5,
            "oppTrialScore": 0,
            "playerTotalScore": -56,
            "oppTotalScore": -21,
            "waitTime": 6203.263956592865,
            "responseTime": 1680632047341,
            "catchQuestion": "How many <b class=\"r\">red<\/b> marbles did you actually draw (before any changes)? ",
            "catchKey": -1,
            "catchResponse": -1,
            "catchTime": 1680632047341,
            "trialTime": 0
        },
        {
            "exptPart": "trial",
            "trialNumber": 21,
            "roleCurrent": "sender",
            "marblesSampled": 100,
            "probRed": 0.5,
            "lambda": 5,
            "drawnRed": 25,
            "reportedRed": 25,
            "inferredRed": 21,
            "playerTrialScore": 0,
            "oppTrialScore": -4,
            "playerTotalScore": -56,
            "oppTotalScore": -25,
            "waitTime": 2621.8183609157704,
            "responseTime": 1680632062323,
            "catchQuestion": "How many <b class=\"r\">red<\/b> marbles did you actually draw (before any changes)? ",
            "catchKey": 25,
            "catchResponse": 25,
            "catchTime": 1680632062324,
            "trialTime": 0
        },
        {
            "exptPart": "trial",
            "trialNumber": 22,
            "roleCurrent": "receiver",
            "marblesSampled": 100,
            "probRed": 0.5,
            "lambda": 5,
            "drawnRed": 71,
            "reportedRed": 77,
            "inferredRed": 76,
            "playerTrialScore": -5,
            "oppTrialScore": 5,
            "playerTotalScore": -61,
            "oppTotalScore": -20,
            "waitTime": 5128.103126121916,
            "responseTime": 1680632079273,
            "catchQuestion": "How many <b class=\"r\">red<\/b> marbles did you actually draw (before any changes)? ",
            "catchKey": -1,
            "catchResponse": -1,
            "catchTime": 1680632062324,
            "trialTime": 0
        },
        {
            "exptPart": "trial",
            "trialNumber": 23,
            "roleCurrent": "sender",
            "marblesSampled": 100,
            "probRed": 0.5,
            "lambda": 5,
            "drawnRed": 7,
            "reportedRed": 7,
            "inferredRed": 2,
            "playerTrialScore": 0,
            "oppTrialScore": -5,
            "playerTotalScore": -61,
            "oppTotalScore": -25,
            "waitTime": 2862.809602099389,
            "responseTime": 1680632092389,
            "catchQuestion": "How many <b class=\"r\">red<\/b> marbles did you actually draw (before any changes)? ",
            "catchKey": -1,
            "catchResponse": -1,
            "catchTime": 1680632062324,
            "trialTime": 0
        },
        {
            "exptPart": "trial",
            "trialNumber": 24,
            "roleCurrent": "receiver",
            "marblesSampled": 100,
            "probRed": 0.5,
            "lambda": 5,
            "drawnRed": 26,
            "reportedRed": 29,
            "inferredRed": 29,
            "playerTrialScore": -3,
            "oppTrialScore": 3,
            "playerTotalScore": -64,
            "oppTotalScore": -22,
            "waitTime": 6619.529106941622,
            "responseTime": 1680632111873,
            "catchQuestion": "How many <b class=\"r\">red<\/b> marbles did you actually draw (before any changes)? ",
            "catchKey": -1,
            "catchResponse": -1,
            "catchTime": 1680632062324,
            "trialTime": 0
        },
        {
            "exptPart": "trial",
            "trialNumber": 25,
            "roleCurrent": "sender",
            "marblesSampled": 100,
            "probRed": 0.5,
            "lambda": 5,
            "drawnRed": 50,
            "reportedRed": 48,
            "inferredRed": 44,
            "playerTrialScore": 0,
            "oppTrialScore": -6,
            "playerTotalScore": -64,
            "oppTotalScore": -28,
            "waitTime": 2590.3038143525055,
            "responseTime": 1680632144838,
            "catchQuestion": "How many <b class=\"r\">red<\/b> marbles did you actually draw (before any changes)? ",
            "catchKey": -1,
            "catchResponse": -1,
            "catchTime": 1680632144838,
            "trialTime": 0
        },
        {
            "exptPart": "trial",
            "trialNumber": 26,
            "roleCurrent": "receiver",
            "marblesSampled": 100,
            "probRed": 0.5,
            "lambda": 5,
            "drawnRed": 25,
            "reportedRed": 28,
            "inferredRed": 30,
            "playerTrialScore": -5,
            "oppTrialScore": 5,
            "playerTotalScore": -69,
            "oppTotalScore": -23,
            "waitTime": 5731.619925475572,
            "responseTime": 1680632162372,
            "catchQuestion": "How many <b class=\"r\">red<\/b> marbles did you actually draw (before any changes)? ",
            "catchKey": -1,
            "catchResponse": -1,
            "catchTime": 1680632144838,
            "trialTime": 0
        },
        {
            "exptPart": "trial",
            "trialNumber": 27,
            "roleCurrent": "sender",
            "marblesSampled": 100,
            "probRed": 0.5,
            "lambda": 5,
            "drawnRed": 47,
            "reportedRed": 47,
            "inferredRed": 44,
            "playerTrialScore": 0,
            "oppTrialScore": -3,
            "playerTotalScore": -69,
            "oppTotalScore": -26,
            "waitTime": 2271.3049982512284,
            "responseTime": 1680632190657,
            "catchQuestion": "How many <b class=\"r\">red<\/b> marbles did you actually draw (before any changes)? ",
            "catchKey": -1,
            "catchResponse": -1,
            "catchTime": 1680632144838,
            "trialTime": 0
        },
        {
            "exptPart": "trial",
            "trialNumber": 28,
            "roleCurrent": "receiver",
            "marblesSampled": 100,
            "probRed": 0.5,
            "lambda": 5,
            "drawnRed": 55,
            "reportedRed": 59,
            "inferredRed": 55,
            "playerTrialScore": 0,
            "oppTrialScore": 0,
            "playerTotalScore": -69,
            "oppTotalScore": -26,
            "waitTime": 5760.6250468683065,
            "responseTime": 1680632204155,
            "catchQuestion": "How many <b class=\"r\">red<\/b> marbles did your opponent report drawing? ",
            "catchKey": 59,
            "catchResponse": 55,
            "catchTime": 1680632204155,
            "trialTime": 0
        },
        {
            "exptPart": "trial",
            "trialNumber": 29,
            "roleCurrent": "sender",
            "marblesSampled": 100,
            "probRed": 0.5,
            "lambda": 5,
            "drawnRed": 71,
            "reportedRed": 68,
            "inferredRed": 61,
            "playerTrialScore": 0,
            "oppTrialScore": -10,
            "playerTotalScore": -69,
            "oppTotalScore": -36,
            "waitTime": 3052.6137460749374,
            "responseTime": 1680632254372,
            "catchQuestion": "How many <b class=\"r\">red<\/b> marbles did you actually draw (before any changes)? ",
            "catchKey": 71,
            "catchResponse": 62,
            "catchTime": 1680632254372,
            "trialTime": 0
        },
        {
            "exptPart": "trial",
            "trialNumber": 30,
            "roleCurrent": "receiver",
            "marblesSampled": 100,
            "probRed": 0.5,
            "lambda": 5,
            "drawnRed": 54,
            "reportedRed": 61,
            "inferredRed": 58,
            "playerTrialScore": -4,
            "oppTrialScore": 4,
            "playerTotalScore": -73,
            "oppTotalScore": -32,
            "waitTime": 6445.411418157431,
            "responseTime": 1680632298970,
            "catchQuestion": "How many <b class=\"r\">red<\/b> marbles did you actually draw (before any changes)? ",
            "catchKey": -1,
            "catchResponse": -1,
            "catchTime": 1680632298970,
            "trialTime": 0
        },
        {
            "exptPart": "trial",
            "trialNumber": 31,
            "roleCurrent": "sender",
            "marblesSampled": 100,
            "probRed": 0.5,
            "lambda": 5,
            "drawnRed": 37,
            "reportedRed": 37,
            "inferredRed": 35,
            "playerTrialScore": 0,
            "oppTrialScore": -2,
            "playerTotalScore": -73,
            "oppTotalScore": -34,
            "waitTime": 2100.3661408522885,
            "responseTime": 1680632314621,
            "catchQuestion": "How many <b class=\"r\">red<\/b> marbles did you actually draw (before any changes)? ",
            "catchKey": -1,
            "catchResponse": -1,
            "catchTime": 1680632298970,
            "trialTime": 0
        },
        {
            "exptPart": "trial",
            "trialNumber": 32,
            "roleCurrent": "receiver",
            "marblesSampled": 100,
            "probRed": 0.5,
            "lambda": 5,
            "drawnRed": 45,
            "reportedRed": 50,
            "inferredRed": 55,
            "playerTrialScore": -10,
            "oppTrialScore": 10,
            "playerTotalScore": -83,
            "oppTotalScore": -24,
            "waitTime": 5514.177620893688,
            "responseTime": 1680632327553,
            "catchQuestion": "How many <b class=\"r\">red<\/b> marbles did you actually draw (before any changes)? ",
            "catchKey": -1,
            "catchResponse": -1,
            "catchTime": 1680632298970,
            "trialTime": 0
        },
        {
            "exptPart": "trial",
            "trialNumber": 33,
            "roleCurrent": "sender",
            "marblesSampled": 100,
            "probRed": 0.5,
            "lambda": 5,
            "drawnRed": 66,
            "reportedRed": 63,
            "inferredRed": 57,
            "playerTrialScore": 0,
            "oppTrialScore": -9,
            "playerTotalScore": -83,
            "oppTotalScore": -33,
            "waitTime": 2401.1444884178964,
            "responseTime": 1680632351902,
            "catchQuestion": "How many <b class=\"r\">red<\/b> marbles did you actually draw (before any changes)? ",
            "catchKey": -1,
            "catchResponse": -1,
            "catchTime": 1680632298970,
            "trialTime": 0
        },
        {
            "exptPart": "trial",
            "trialNumber": 34,
            "roleCurrent": "receiver",
            "marblesSampled": 100,
            "probRed": 0.5,
            "lambda": 5,
            "drawnRed": 39,
            "reportedRed": 40,
            "inferredRed": 39,
            "playerTrialScore": 0,
            "oppTrialScore": 0,
            "playerTotalScore": -83,
            "oppTotalScore": -33,
            "waitTime": 5431.404429177241,
            "responseTime": 1680632382137,
            "catchQuestion": "How many <b class=\"r\">red<\/b> marbles did you actually draw (before any changes)? ",
            "catchKey": -1,
            "catchResponse": -1,
            "catchTime": 1680632298970,
            "trialTime": 0
        },
        {
            "exptPart": "trial",
            "trialNumber": 35,
            "roleCurrent": "sender",
            "marblesSampled": 100,
            "probRed": 0.5,
            "lambda": 5,
            "drawnRed": 12,
            "reportedRed": 12,
            "inferredRed": 4,
            "playerTrialScore": 0,
            "oppTrialScore": -8,
            "playerTotalScore": -83,
            "oppTotalScore": -41,
            "waitTime": 2302.17665734186,
            "responseTime": 1680632398552,
            "catchQuestion": "How many <b class=\"r\">red<\/b> marbles did you actually draw (before any changes)? ",
            "catchKey": -1,
            "catchResponse": -1,
            "catchTime": 1680632398552,
            "trialTime": 0
        },
        {
            "exptPart": "trial",
            "trialNumber": 36,
            "roleCurrent": "receiver",
            "marblesSampled": 100,
            "probRed": 0.5,
            "lambda": 5,
            "drawnRed": 54,
            "reportedRed": 65,
            "inferredRed": 64,
            "playerTrialScore": -10,
            "oppTrialScore": 10,
            "playerTotalScore": -93,
            "oppTotalScore": -31,
            "waitTime": 5402.801460676103,
            "responseTime": 1680632427152,
            "catchQuestion": "How many <b class=\"r\">red<\/b> marbles did you actually draw (before any changes)? ",
            "catchKey": -1,
            "catchResponse": -1,
            "catchTime": 1680632398552,
            "trialTime": 0
        },
        {
            "exptPart": "trial",
            "trialNumber": 37,
            "roleCurrent": "sender",
            "marblesSampled": 100,
            "probRed": 0.5,
            "lambda": 5,
            "drawnRed": 48,
            "reportedRed": 54,
            "inferredRed": 43,
            "playerTrialScore": 0,
            "oppTrialScore": -5,
            "playerTotalScore": -93,
            "oppTotalScore": -36,
            "waitTime": 2846.2027211579953,
            "responseTime": 1680632461984,
            "catchQuestion": "How many <b class=\"r\">red<\/b> marbles did you actually draw (before any changes)? ",
            "catchKey": -1,
            "catchResponse": -1,
            "catchTime": 1680632398552,
            "trialTime": 0
        },
        {
            "exptPart": "trial",
            "trialNumber": 38,
            "roleCurrent": "receiver",
            "marblesSampled": 100,
            "probRed": 0.5,
            "lambda": 5,
            "drawnRed": 52,
            "reportedRed": 54,
            "inferredRed": 53,
            "playerTrialScore": -1,
            "oppTrialScore": 1,
            "playerTotalScore": -94,
            "oppTotalScore": -35,
            "waitTime": 5999.713624081189,
            "responseTime": 1680632476718,
            "catchQuestion": "How many <b class=\"r\">red<\/b> marbles did you actually draw (before any changes)? ",
            "catchKey": -1,
            "catchResponse": -1,
            "catchTime": 1680632398552,
            "trialTime": 0
        },
        {
            "exptPart": "trial",
            "trialNumber": 39,
            "roleCurrent": "sender",
            "marblesSampled": 100,
            "probRed": 0.5,
            "lambda": 5,
            "drawnRed": 42,
            "reportedRed": 45,
            "inferredRed": 39,
            "playerTrialScore": 0,
            "oppTrialScore": -3,
            "playerTotalScore": -94,
            "oppTotalScore": -38,
            "waitTime": 3168.1008388260307,
            "responseTime": 1680632504835,
            "catchQuestion": "How many <b class=\"r\">red<\/b> marbles did you actually draw (before any changes)? ",
            "catchKey": -1,
            "catchResponse": -1,
            "catchTime": 1680632398552,
            "trialTime": 0
        },
        {
            "exptPart": "trial",
            "trialNumber": 40,
            "roleCurrent": "receiver",
            "marblesSampled": 100,
            "probRed": 0.5,
            "lambda": 5,
            "drawnRed": 62,
            "reportedRed": 65,
            "inferredRed": 65,
            "playerTrialScore": -3,
            "oppTrialScore": 3,
            "playerTotalScore": -97,
            "oppTotalScore": -35,
            "waitTime": 5210.667053971819,
            "responseTime": 1680632527201,
            "catchQuestion": "How many <b class=\"r\">red<\/b> marbles did you actually draw (before any changes)? ",
            "catchKey": -1,
            "catchResponse": -1,
            "catchTime": 1680632527201,
            "trialTime": 0
        },
        {
            "exptPart": "trial",
            "trialNumber": 41,
            "roleCurrent": "sender",
            "marblesSampled": 100,
            "probRed": 0.5,
            "lambda": 5,
            "drawnRed": 24,
            "reportedRed": 24,
            "inferredRed": 22,
            "playerTrialScore": 0,
            "oppTrialScore": -2,
            "playerTotalScore": -97,
            "oppTotalScore": -37,
            "waitTime": 2359.6891010045665,
            "responseTime": 1680632549151,
            "catchQuestion": "How many <b class=\"r\">red<\/b> marbles did you actually draw (before any changes)? ",
            "catchKey": -1,
            "catchResponse": -1,
            "catchTime": 1680632527201,
            "trialTime": 0
        },
        {
            "exptPart": "trial",
            "trialNumber": 42,
            "roleCurrent": "receiver",
            "marblesSampled": 100,
            "probRed": 0.5,
            "lambda": 5,
            "drawnRed": 94,
            "reportedRed": 100,
            "inferredRed": 90,
            "playerTrialScore": -4,
            "oppTrialScore": 0,
            "playerTotalScore": -101,
            "oppTotalScore": -37,
            "waitTime": 5779.2176136440885,
            "responseTime": 1680632564367,
            "catchQuestion": "How many <b class=\"r\">red<\/b> marbles did you actually draw (before any changes)? ",
            "catchKey": -1,
            "catchResponse": -1,
            "catchTime": 1680632527201,
            "trialTime": 0
        },
        {
            "exptPart": "trial",
            "trialNumber": 43,
            "roleCurrent": "sender",
            "marblesSampled": 100,
            "probRed": 0.5,
            "lambda": 5,
            "drawnRed": 36,
            "reportedRed": 42,
            "inferredRed": 40,
            "playerTrialScore": 4,
            "oppTrialScore": -4,
            "playerTotalScore": -97,
            "oppTotalScore": -41,
            "waitTime": 2886.813879068489,
            "responseTime": 1680632595518,
            "catchQuestion": "How many <b class=\"r\">red<\/b> marbles did you actually draw (before any changes)? ",
            "catchKey": -1,
            "catchResponse": -1,
            "catchTime": 1680632527201,
            "trialTime": 0
        },
        {
            "exptPart": "trial",
            "trialNumber": 44,
            "roleCurrent": "receiver",
            "marblesSampled": 100,
            "probRed": 0.5,
            "lambda": 5,
            "drawnRed": 63,
            "reportedRed": 71,
            "inferredRed": 50,
            "playerTrialScore": -13,
            "oppTrialScore": 0,
            "playerTotalScore": -110,
            "oppTotalScore": -41,
            "waitTime": 6118.656842453034,
            "responseTime": 1680632610934,
            "catchQuestion": "How many <b class=\"r\">red<\/b> marbles did your opponent report drawing? ",
            "catchKey": 71,
            "catchResponse": 77,
            "catchTime": 1680632610934,
            "trialTime": 0
        },
        {
            "exptPart": "trial",
            "trialNumber": 45,
            "roleCurrent": "sender",
            "marblesSampled": 100,
            "probRed": 0.5,
            "lambda": 5,
            "drawnRed": 81,
            "reportedRed": 86,
            "inferredRed": 77,
            "playerTrialScore": 0,
            "oppTrialScore": -4,
            "playerTotalScore": -110,
            "oppTotalScore": -45,
            "waitTime": 2743.4149579154587,
            "responseTime": 1680632642350,
            "catchQuestion": "How many <b class=\"r\">red<\/b> marbles did your opponent report drawing? ",
            "catchKey": -1,
            "catchResponse": -1,
            "catchTime": 1680632642351,
            "trialTime": 0
        },
        {
            "exptPart": "trial",
            "trialNumber": 46,
            "roleCurrent": "receiver",
            "marblesSampled": 100,
            "probRed": 0.5,
            "lambda": 5,
            "drawnRed": 55,
            "reportedRed": 62,
            "inferredRed": 55,
            "playerTrialScore": 0,
            "oppTrialScore": 0,
            "playerTotalScore": -110,
            "oppTotalScore": -45,
            "waitTime": 5805.232115089835,
            "responseTime": 1680632656450,
            "catchQuestion": "How many <b class=\"r\">red<\/b> marbles did your opponent report drawing? ",
            "catchKey": -1,
            "catchResponse": -1,
            "catchTime": 1680632642351,
            "trialTime": 0
        },
        {
            "exptPart": "trial",
            "trialNumber": 47,
            "roleCurrent": "sender",
            "marblesSampled": 100,
            "probRed": 0.5,
            "lambda": 5,
            "drawnRed": 81,
            "reportedRed": 81,
            "inferredRed": 77,
            "playerTrialScore": 0,
            "oppTrialScore": -4,
            "playerTotalScore": -110,
            "oppTotalScore": -49,
            "waitTime": 2795.6450334306655,
            "responseTime": 1680632667633,
            "catchQuestion": "How many <b class=\"r\">red<\/b> marbles did your opponent report drawing? ",
            "catchKey": -1,
            "catchResponse": -1,
            "catchTime": 1680632642351,
            "trialTime": 0
        },
        {
            "exptPart": "trial",
            "trialNumber": 48,
            "roleCurrent": "receiver",
            "marblesSampled": 100,
            "probRed": 0.5,
            "lambda": 5,
            "drawnRed": 42,
            "reportedRed": 48,
            "inferredRed": 66,
            "playerTrialScore": -24,
            "oppTrialScore": 24,
            "playerTotalScore": -134,
            "oppTotalScore": -25,
            "waitTime": 7103.491825473059,
            "responseTime": 1680632678667,
            "catchQuestion": "How many <b class=\"r\">red<\/b> marbles did your opponent report drawing? ",
            "catchKey": 48,
            "catchResponse": 48,
            "catchTime": 1680632678667,
            "trialTime": 0
        },
        {
            "exptPart": "trial",
            "trialNumber": 49,
            "roleCurrent": "sender",
            "marblesSampled": 100,
            "probRed": 0.5,
            "lambda": 5,
            "drawnRed": 48,
            "reportedRed": 48,
            "inferredRed": 42,
            "playerTrialScore": 0,
            "oppTrialScore": -6,
            "playerTotalScore": -134,
            "oppTotalScore": -31,
            "waitTime": 2730.2451711189387,
            "responseTime": 1680632695900,
            "catchQuestion": "How many <b class=\"r\">red<\/b> marbles did your opponent report drawing? ",
            "catchKey": -1,
            "catchResponse": -1,
            "catchTime": 1680632678667,
            "trialTime": 0
        },
        {
            "exptPart": "trial",
            "trialNumber": 50,
            "roleCurrent": "receiver",
            "marblesSampled": 100,
            "probRed": 0.5,
            "lambda": 5,
            "drawnRed": 15,
            "reportedRed": 18,
            "inferredRed": 16,
            "playerTrialScore": -1,
            "oppTrialScore": 1,
            "playerTotalScore": -135,
            "oppTotalScore": -30,
            "waitTime": 7019.6662734017345,
            "responseTime": 1680632711049,
            "catchQuestion": "How many <b class=\"r\">red<\/b> marbles did your opponent report drawing? ",
            "catchKey": -1,
            "catchResponse": -1,
            "catchTime": 1680632711049,
            "trialTime": 0
        },
        {
            "exptPart": "trial",
            "trialNumber": 51,
            "roleCurrent": "sender",
            "marblesSampled": 100,
            "probRed": 0.5,
            "lambda": 5,
            "drawnRed": 37,
            "reportedRed": 37,
            "inferredRed": 33,
            "playerTrialScore": 0,
            "oppTrialScore": -4,
            "playerTotalScore": -135,
            "oppTotalScore": -34,
            "waitTime": 2999.9135275432163,
            "responseTime": 1680632773967,
            "catchQuestion": "How many <b class=\"r\">red<\/b> marbles did your opponent report drawing? ",
            "catchKey": -1,
            "catchResponse": -1,
            "catchTime": 1680632711049,
            "trialTime": 0
        },
        {
            "exptPart": "trial",
            "trialNumber": 52,
            "roleCurrent": "receiver",
            "marblesSampled": 100,
            "probRed": 0.5,
            "lambda": 5,
            "drawnRed": 35,
            "reportedRed": 42,
            "inferredRed": 30,
            "playerTrialScore": -5,
            "oppTrialScore": 0,
            "playerTotalScore": -140,
            "oppTotalScore": -34,
            "waitTime": 5202.345835664432,
            "responseTime": 1680632803398,
            "catchQuestion": "How many <b class=\"r\">red<\/b> marbles did your opponent report drawing? ",
            "catchKey": -1,
            "catchResponse": -1,
            "catchTime": 1680632711049,
            "trialTime": 0
        },
        {
            "exptPart": "trial",
            "trialNumber": 53,
            "roleCurrent": "sender",
            "marblesSampled": 100,
            "probRed": 0.5,
            "lambda": 5,
            "drawnRed": 83,
            "reportedRed": 85,
            "inferredRed": 81,
            "playerTrialScore": 0,
            "oppTrialScore": -2,
            "playerTotalScore": -140,
            "oppTotalScore": -36,
            "waitTime": 2902.8556859665387,
            "responseTime": 1680632829633,
            "catchQuestion": "How many <b class=\"r\">red<\/b> marbles did your opponent report drawing? ",
            "catchKey": -1,
            "catchResponse": -1,
            "catchTime": 1680632711049,
            "trialTime": 0
        },
        {
            "exptPart": "trial",
            "trialNumber": 54,
            "roleCurrent": "receiver",
            "marblesSampled": 100,
            "probRed": 0.5,
            "lambda": 5,
            "drawnRed": 54,
            "reportedRed": 59,
            "inferredRed": 58,
            "playerTrialScore": -4,
            "oppTrialScore": 4,
            "playerTotalScore": -144,
            "oppTotalScore": -32,
            "waitTime": 6344.177234383347,
            "responseTime": 1680632855099,
            "catchQuestion": "How many <b class=\"r\">red<\/b> marbles did your opponent report drawing? ",
            "catchKey": -1,
            "catchResponse": -1,
            "catchTime": 1680632711049,
            "trialTime": 0
        },
        {
            "exptPart": "trial",
            "trialNumber": 55,
            "roleCurrent": "sender",
            "marblesSampled": 100,
            "probRed": 0.5,
            "lambda": 5,
            "drawnRed": 42,
            "reportedRed": 42,
            "inferredRed": 38,
            "playerTrialScore": 0,
            "oppTrialScore": -4,
            "playerTotalScore": -144,
            "oppTotalScore": -36,
            "waitTime": 2450.348466929031,
            "responseTime": 1680632897165,
            "catchQuestion": "How many <b class=\"r\">red<\/b> marbles did your opponent report drawing? ",
            "catchKey": -1,
            "catchResponse": -1,
            "catchTime": 1680632897165,
            "trialTime": 0
        },
        {
            "exptPart": "trial",
            "trialNumber": 56,
            "roleCurrent": "receiver",
            "marblesSampled": 100,
            "probRed": 0.5,
            "lambda": 5,
            "drawnRed": 30,
            "reportedRed": 34,
            "inferredRed": 0,
            "playerTrialScore": -30,
            "oppTrialScore": 0,
            "playerTotalScore": -174,
            "oppTotalScore": -36,
            "waitTime": 6046.544797753297,
            "responseTime": 1680632967847,
            "catchQuestion": "How many <b class=\"r\">red<\/b> marbles did your opponent report drawing? ",
            "catchKey": -1,
            "catchResponse": -1,
            "catchTime": 1680632897165,
            "trialTime": 0
        },
        {
            "exptPart": "trial",
            "trialNumber": 57,
            "roleCurrent": "sender",
            "marblesSampled": 100,
            "probRed": 0.5,
            "lambda": 5,
            "drawnRed": 38,
            "reportedRed": 36,
            "inferredRed": 31,
            "playerTrialScore": 0,
            "oppTrialScore": -7,
            "playerTotalScore": -174,
            "oppTotalScore": -43,
            "waitTime": 2463.2095082587903,
            "responseTime": 1680632988779,
            "catchQuestion": "How many <b class=\"r\">red<\/b> marbles did your opponent report drawing? ",
            "catchKey": -1,
            "catchResponse": -1,
            "catchTime": 1680632897165,
            "trialTime": 0
        },
        {
            "exptPart": "trial",
            "trialNumber": 58,
            "roleCurrent": "receiver",
            "marblesSampled": 100,
            "probRed": 0.5,
            "lambda": 5,
            "drawnRed": 73,
            "reportedRed": 79,
            "inferredRed": 40,
            "playerTrialScore": -33,
            "oppTrialScore": 0,
            "playerTotalScore": -207,
            "oppTotalScore": -43,
            "waitTime": 6147.463607392916,
            "responseTime": 1680633000830,
            "catchQuestion": "How many <b class=\"r\">red<\/b> marbles did your opponent report drawing? ",
            "catchKey": 79,
            "catchResponse": 79,
            "catchTime": 1680633000830,
            "trialTime": 0
        },
        {
            "exptPart": "trial",
            "trialNumber": 59,
            "roleCurrent": "sender",
            "marblesSampled": 100,
            "probRed": 0.5,
            "lambda": 5,
            "drawnRed": 48,
            "reportedRed": 48,
            "inferredRed": 40,
            "playerTrialScore": 0,
            "oppTrialScore": -8,
            "playerTotalScore": -207,
            "oppTotalScore": -51,
            "waitTime": 2286.5033394773527,
            "responseTime": 1680633021212,
            "catchQuestion": "How many <b class=\"r\">red<\/b> marbles did your opponent report drawing? ",
            "catchKey": -1,
            "catchResponse": -1,
            "catchTime": 1680633000830,
            "trialTime": 0
        },
        {
            "exptPart": "trial",
            "trialNumber": 60,
            "roleCurrent": "receiver",
            "marblesSampled": 100,
            "probRed": 0.5,
            "lambda": 5,
            "drawnRed": 45,
            "reportedRed": 47,
            "inferredRed": 30,
            "playerTrialScore": -15,
            "oppTrialScore": 0,
            "playerTotalScore": -222,
            "oppTotalScore": -51,
            "waitTime": 6570.314272193546,
            "responseTime": 1680633036529,
            "catchQuestion": "How many <b class=\"r\">red<\/b> marbles did your opponent report drawing? ",
            "catchKey": -1,
            "catchResponse": -1,
            "catchTime": 1680633036529,
            "trialTime": 0
        },
        {
            "exptPart": "trial",
            "trialNumber": 61,
            "roleCurrent": "sender",
            "marblesSampled": 100,
            "probRed": 0.5,
            "lambda": 5,
            "drawnRed": 16,
            "reportedRed": 16,
            "inferredRed": 11,
            "playerTrialScore": 0,
            "oppTrialScore": -5,
            "playerTotalScore": -222,
            "oppTotalScore": -56,
            "waitTime": 2648.2093248755714,
            "responseTime": 1680633057096,
            "catchQuestion": "How many <b class=\"r\">red<\/b> marbles did your opponent report drawing? ",
            "catchKey": -1,
            "catchResponse": -1,
            "catchTime": 1680633036529,
            "trialTime": 0
        },
        {
            "exptPart": "trial",
            "trialNumber": 62,
            "roleCurrent": "receiver",
            "marblesSampled": 100,
            "probRed": 0.5,
            "lambda": 5,
            "drawnRed": 38,
            "reportedRed": 39,
            "inferredRed": 60,
            "playerTrialScore": -22,
            "oppTrialScore": 22,
            "playerTotalScore": -244,
            "oppTotalScore": -34,
            "waitTime": 5462.557666816294,
            "responseTime": 1680633067096,
            "catchQuestion": "How many <b class=\"r\">red<\/b> marbles did your opponent report drawing? ",
            "catchKey": -1,
            "catchResponse": -1,
            "catchTime": 1680633036529,
            "trialTime": 0
        },
        {
            "exptPart": "trial",
            "trialNumber": 63,
            "roleCurrent": "sender",
            "marblesSampled": 100,
            "probRed": 0.5,
            "lambda": 5,
            "drawnRed": 34,
            "reportedRed": 34,
            "inferredRed": 31,
            "playerTrialScore": 0,
            "oppTrialScore": -3,
            "playerTotalScore": -244,
            "oppTotalScore": -37,
            "waitTime": 2557.066429368786,
            "responseTime": 1680633095811,
            "catchQuestion": "How many <b class=\"r\">red<\/b> marbles did your opponent report drawing? ",
            "catchKey": -1,
            "catchResponse": -1,
            "catchTime": 1680633036529,
            "trialTime": 0
        },
        {
            "exptPart": "trial",
            "trialNumber": 64,
            "roleCurrent": "receiver",
            "marblesSampled": 100,
            "probRed": 0.5,
            "lambda": 5,
            "drawnRed": 50,
            "reportedRed": 55,
            "inferredRed": 55,
            "playerTrialScore": -5,
            "oppTrialScore": 5,
            "playerTotalScore": -249,
            "oppTotalScore": -32,
            "waitTime": 5200.669041812749,
            "responseTime": 1680633108094,
            "catchQuestion": "How many <b class=\"r\">red<\/b> marbles did your opponent report drawing? ",
            "catchKey": 55,
            "catchResponse": 55,
            "catchTime": 1680633108094,
            "trialTime": 0
        },
        {
            "exptPart": "trial",
            "trialNumber": 65,
            "roleCurrent": "sender",
            "marblesSampled": 100,
            "probRed": 0.5,
            "lambda": 5,
            "drawnRed": 50,
            "reportedRed": 53,
            "inferredRed": 47,
            "playerTrialScore": 0,
            "oppTrialScore": -3,
            "playerTotalScore": -249,
            "oppTotalScore": -35,
            "waitTime": 3095.7835353931087,
            "responseTime": 1680633148712,
            "catchQuestion": "How many <b class=\"r\">red<\/b> marbles did your opponent report drawing? ",
            "catchKey": -1,
            "catchResponse": -1,
            "catchTime": 1680633148712,
            "trialTime": 0
        },
        {
            "exptPart": "trial",
            "trialNumber": 66,
            "roleCurrent": "receiver",
            "marblesSampled": 100,
            "probRed": 0.5,
            "lambda": 5,
            "drawnRed": 54,
            "reportedRed": 62,
            "inferredRed": 62,
            "playerTrialScore": -8,
            "oppTrialScore": 8,
            "playerTotalScore": -257,
            "oppTotalScore": -27,
            "waitTime": 5611.803330314381,
            "responseTime": 1680633165062,
            "catchQuestion": "How many <b class=\"r\">red<\/b> marbles did your opponent report drawing? ",
            "catchKey": -1,
            "catchResponse": -1,
            "catchTime": 1680633148712,
            "trialTime": 0
        },
        {
            "exptPart": "trial",
            "trialNumber": 67,
            "roleCurrent": "sender",
            "marblesSampled": 100,
            "probRed": 0.5,
            "lambda": 5,
            "drawnRed": 35,
            "reportedRed": 35,
            "inferredRed": 30,
            "playerTrialScore": 0,
            "oppTrialScore": -5,
            "playerTotalScore": -257,
            "oppTotalScore": -32,
            "waitTime": 2651.943104209669,
            "responseTime": 1680633174730,
            "catchQuestion": "How many <b class=\"r\">red<\/b> marbles did your opponent report drawing? ",
            "catchKey": -1,
            "catchResponse": -1,
            "catchTime": 1680633148712,
            "trialTime": 0
        },
        {
            "exptPart": "trial",
            "trialNumber": 68,
            "roleCurrent": "receiver",
            "marblesSampled": 100,
            "probRed": 0.5,
            "lambda": 5,
            "drawnRed": 65,
            "reportedRed": 65,
            "inferredRed": 65,
            "playerTrialScore": 0,
            "oppTrialScore": 0,
            "playerTotalScore": -257,
            "oppTotalScore": -32,
            "waitTime": 6702.741630927028,
            "responseTime": 1680633194877,
            "catchQuestion": "How many <b class=\"r\">red<\/b> marbles did your opponent report drawing? ",
            "catchKey": -1,
            "catchResponse": -1,
            "catchTime": 1680633148712,
            "trialTime": 0
        },
        {
            "exptPart": "trial",
            "trialNumber": 69,
            "roleCurrent": "sender",
            "marblesSampled": 100,
            "probRed": 0.5,
            "lambda": 5,
            "drawnRed": 52,
            "reportedRed": 52,
            "inferredRed": 47,
            "playerTrialScore": 0,
            "oppTrialScore": -5,
            "playerTotalScore": -257,
            "oppTotalScore": -37,
            "waitTime": 2534.801934084406,
            "responseTime": 1680633204861,
            "catchQuestion": "How many <b class=\"r\">red<\/b> marbles did your opponent report drawing? ",
            "catchKey": -1,
            "catchResponse": -1,
            "catchTime": 1680633148712,
            "trialTime": 0
        },
        {
            "exptPart": "trial",
            "trialNumber": 70,
            "roleCurrent": "receiver",
            "marblesSampled": 100,
            "probRed": 0.5,
            "lambda": 5,
            "drawnRed": 49,
            "reportedRed": 51,
            "inferredRed": 51,
            "playerTrialScore": -2,
            "oppTrialScore": 2,
            "playerTotalScore": -259,
            "oppTotalScore": -35,
            "waitTime": 5338.983017007302,
            "responseTime": 1680633217877,
            "catchQuestion": "How many <b class=\"r\">red<\/b> marbles did your opponent report drawing? ",
            "catchKey": -1,
            "catchResponse": -1,
            "catchTime": 1680633217878,
            "trialTime": 0
        },
        {
            "exptPart": "trial",
            "trialNumber": 71,
            "roleCurrent": "sender",
            "marblesSampled": 100,
            "probRed": 0.5,
            "lambda": 5,
            "drawnRed": 87,
            "reportedRed": 90,
            "inferredRed": 83,
            "playerTrialScore": 0,
            "oppTrialScore": -4,
            "playerTotalScore": -259,
            "oppTotalScore": -39,
            "waitTime": 2829.652470532451,
            "responseTime": 1680633245910,
            "catchQuestion": "How many <b class=\"r\">red<\/b> marbles did your opponent report drawing? ",
            "catchKey": -1,
            "catchResponse": -1,
            "catchTime": 1680633217878,
            "trialTime": 0
        },
        {
            "exptPart": "trial",
            "trialNumber": 72,
            "roleCurrent": "receiver",
            "marblesSampled": 100,
            "probRed": 0.5,
            "lambda": 5,
            "drawnRed": 75,
            "reportedRed": 79,
            "inferredRed": 66,
            "playerTrialScore": -9,
            "oppTrialScore": 0,
            "playerTotalScore": -268,
            "oppTotalScore": -39,
            "waitTime": 5713.9163469295945,
            "responseTime": 1680633259777,
            "catchQuestion": "How many <b class=\"r\">red<\/b> marbles did your opponent report drawing? ",
            "catchKey": -1,
            "catchResponse": -1,
            "catchTime": 1680633217878,
            "trialTime": 0
        },
        {
            "exptPart": "trial",
            "trialNumber": 73,
            "roleCurrent": "sender",
            "marblesSampled": 100,
            "probRed": 0.5,
            "lambda": 5,
            "drawnRed": 49,
            "reportedRed": 49,
            "inferredRed": 44,
            "playerTrialScore": 0,
            "oppTrialScore": -5,
            "playerTotalScore": -268,
            "oppTotalScore": -44,
            "waitTime": 2279.1251742655422,
            "responseTime": 1680633285843,
            "catchQuestion": "How many <b class=\"r\">red<\/b> marbles did your opponent report drawing? ",
            "catchKey": -1,
            "catchResponse": -1,
            "catchTime": 1680633217878,
            "trialTime": 0
        },
        {
            "exptPart": "trial",
            "trialNumber": 74,
            "roleCurrent": "receiver",
            "marblesSampled": 100,
            "probRed": 0.5,
            "lambda": 5,
            "drawnRed": 71,
            "reportedRed": 73,
            "inferredRed": 70,
            "playerTrialScore": -1,
            "oppTrialScore": 0,
            "playerTotalScore": -269,
            "oppTotalScore": -44,
            "waitTime": 5321.546983115832,
            "responseTime": 1680633298993,
            "catchQuestion": "How many <b class=\"r\">red<\/b> marbles did your opponent report drawing? ",
            "catchKey": -1,
            "catchResponse": -1,
            "catchTime": 1680633217878,
            "trialTime": 0
        },
        {
            "exptPart": "trial",
            "trialNumber": 75,
            "roleCurrent": "sender",
            "marblesSampled": 100,
            "probRed": 0.5,
            "lambda": 5,
            "drawnRed": 40,
            "reportedRed": 40,
            "inferredRed": 35,
            "playerTrialScore": 0,
            "oppTrialScore": -5,
            "playerTotalScore": -269,
            "oppTotalScore": -49,
            "waitTime": 2624.8690093755645,
            "responseTime": 1680633308445,
            "catchQuestion": "How many <b class=\"r\">red<\/b> marbles did your opponent report drawing? ",
            "catchKey": -1,
            "catchResponse": -1,
            "catchTime": 1680633308445,
            "trialTime": 0
        },
        {
            "exptPart": "trial",
            "trialNumber": 76,
            "roleCurrent": "receiver",
            "marblesSampled": 100,
            "probRed": 0.5,
            "lambda": 5,
            "drawnRed": 70,
            "reportedRed": 77,
            "inferredRed": 76,
            "playerTrialScore": -6,
            "oppTrialScore": 6,
            "playerTotalScore": -275,
            "oppTotalScore": -43,
            "waitTime": 5143.066488646828,
            "responseTime": 1680633320643,
            "catchQuestion": "How many <b class=\"r\">red<\/b> marbles did your opponent report drawing? ",
            "catchKey": 77,
            "catchResponse": 77,
            "catchTime": 1680633320643,
            "trialTime": 0
        },
        {
            "exptPart": "trial",
            "trialNumber": 77,
            "roleCurrent": "sender",
            "marblesSampled": 100,
            "probRed": 0.5,
            "lambda": 5,
            "drawnRed": 42,
            "reportedRed": 42,
            "inferredRed": 40,
            "playerTrialScore": 0,
            "oppTrialScore": -2,
            "playerTotalScore": -275,
            "oppTotalScore": -45,
            "waitTime": 2203.2165014181655,
            "responseTime": 1680633338526,
            "catchQuestion": "How many <b class=\"r\">red<\/b> marbles did your opponent report drawing? ",
            "catchKey": -1,
            "catchResponse": -1,
            "catchTime": 1680633320643,
            "trialTime": 0
        },
        {
            "exptPart": "trial",
            "trialNumber": 78,
            "roleCurrent": "receiver",
            "marblesSampled": 100,
            "probRed": 0.5,
            "lambda": 5,
            "drawnRed": 64,
            "reportedRed": 67,
            "inferredRed": 66,
            "playerTrialScore": -2,
            "oppTrialScore": 2,
            "playerTotalScore": -277,
            "oppTotalScore": -43,
            "waitTime": 6233.040737781036,
            "responseTime": 1680633349211,
            "catchQuestion": "How many <b class=\"r\">red<\/b> marbles did your opponent report drawing? ",
            "catchKey": -1,
            "catchResponse": -1,
            "catchTime": 1680633320643,
            "trialTime": 0
        },
        {
            "exptPart": "trial",
            "trialNumber": 79,
            "roleCurrent": "sender",
            "marblesSampled": 100,
            "probRed": 0.5,
            "lambda": 5,
            "drawnRed": 49,
            "reportedRed": 51,
            "inferredRed": 49,
            "playerTrialScore": 0,
            "oppTrialScore": 0,
            "playerTotalScore": -277,
            "oppTotalScore": -43,
            "waitTime": 2982.2733319909744,
            "responseTime": 1680633386042,
            "catchQuestion": "How many <b class=\"r\">red<\/b> marbles did your opponent report drawing? ",
            "catchKey": -1,
            "catchResponse": -1,
            "catchTime": 1680633320643,
            "trialTime": 0
        },
        {
            "exptPart": "trial",
            "trialNumber": 80,
            "roleCurrent": "receiver",
            "marblesSampled": 100,
            "probRed": 0.5,
            "lambda": 5,
            "drawnRed": 78,
            "reportedRed": 84,
            "inferredRed": 80,
            "playerTrialScore": -2,
            "oppTrialScore": 2,
            "playerTotalScore": -279,
            "oppTotalScore": -41,
            "waitTime": 6779.4115288759895,
            "responseTime": 1680633398491,
            "catchQuestion": "How many <b class=\"r\">red<\/b> marbles did your opponent report drawing? ",
            "catchKey": -1,
            "catchResponse": -1,
            "catchTime": 1680633398491,
            "trialTime": 0
        },
        {
            "exptPart": "trial",
            "trialNumber": 81,
            "roleCurrent": "sender",
            "marblesSampled": 100,
            "probRed": 0.5,
            "lambda": 5,
            "drawnRed": 29,
            "reportedRed": 29,
            "inferredRed": 16,
            "playerTrialScore": 0,
            "oppTrialScore": -13,
            "playerTotalScore": -279,
            "oppTotalScore": -54,
            "waitTime": 3131.8717276370435,
            "responseTime": 1680633412892,
            "catchQuestion": "How many <b class=\"r\">red<\/b> marbles did your opponent report drawing? ",
            "catchKey": -1,
            "catchResponse": -1,
            "catchTime": 1680633398491,
            "trialTime": 0
        },
        {
            "exptPart": "trial",
            "trialNumber": 82,
            "roleCurrent": "receiver",
            "marblesSampled": 100,
            "probRed": 0.5,
            "lambda": 5,
            "drawnRed": 30,
            "reportedRed": 36,
            "inferredRed": 33,
            "playerTrialScore": -3,
            "oppTrialScore": 3,
            "playerTotalScore": -282,
            "oppTotalScore": -51,
            "waitTime": 6881.6451873117485,
            "responseTime": 1680633424742,
            "catchQuestion": "How many <b class=\"r\">red<\/b> marbles did your opponent report drawing? ",
            "catchKey": -1,
            "catchResponse": -1,
            "catchTime": 1680633398491,
            "trialTime": 0
        },
        {
            "exptPart": "trial",
            "trialNumber": 83,
            "roleCurrent": "sender",
            "marblesSampled": 100,
            "probRed": 0.5,
            "lambda": 5,
            "drawnRed": 39,
            "reportedRed": 39,
            "inferredRed": 34,
            "playerTrialScore": 0,
            "oppTrialScore": -5,
            "playerTotalScore": -282,
            "oppTotalScore": -56,
            "waitTime": 3106.0168153419822,
            "responseTime": 1680633448408,
            "catchQuestion": "How many <b class=\"r\">red<\/b> marbles did your opponent report drawing? ",
            "catchKey": -1,
            "catchResponse": -1,
            "catchTime": 1680633398491,
            "trialTime": 0
        },
        {
            "exptPart": "trial",
            "trialNumber": 84,
            "roleCurrent": "receiver",
            "marblesSampled": 100,
            "probRed": 0.5,
            "lambda": 5,
            "drawnRed": 38,
            "reportedRed": 42,
            "inferredRed": 41,
            "playerTrialScore": -3,
            "oppTrialScore": 3,
            "playerTotalScore": -285,
            "oppTotalScore": -53,
            "waitTime": 7064.962593475907,
            "responseTime": 1680633460774,
            "catchQuestion": "How many <b class=\"r\">red<\/b> marbles did your opponent report drawing? ",
            "catchKey": -1,
            "catchResponse": -1,
            "catchTime": 1680633398491,
            "trialTime": 0
        },
        {
            "exptPart": "trial",
            "trialNumber": 85,
            "roleCurrent": "sender",
            "marblesSampled": 100,
            "probRed": 0.5,
            "lambda": 5,
            "drawnRed": 37,
            "reportedRed": 37,
            "inferredRed": 32,
            "playerTrialScore": 0,
            "oppTrialScore": -5,
            "playerTotalScore": -285,
            "oppTotalScore": -58,
            "waitTime": 2275.125024969746,
            "responseTime": 1680633469124,
            "catchQuestion": "How many <b class=\"r\">red<\/b> marbles did your opponent report drawing? ",
            "catchKey": -1,
            "catchResponse": -1,
            "catchTime": 1680633469124,
            "trialTime": 0
        },
        {
            "exptPart": "trial",
            "trialNumber": 86,
            "roleCurrent": "receiver",
            "marblesSampled": 100,
            "probRed": 0.5,
            "lambda": 5,
            "drawnRed": 60,
            "reportedRed": 66,
            "inferredRed": 64,
            "playerTrialScore": -4,
            "oppTrialScore": 4,
            "playerTotalScore": -289,
            "oppTotalScore": -54,
            "waitTime": 5644.085984026706,
            "responseTime": 1680633486091,
            "catchQuestion": "How many <b class=\"r\">red<\/b> marbles did your opponent report drawing? ",
            "catchKey": -1,
            "catchResponse": -1,
            "catchTime": 1680633469124,
            "trialTime": 0
        },
        {
            "exptPart": "trial",
            "trialNumber": 87,
            "roleCurrent": "sender",
            "marblesSampled": 100,
            "probRed": 0.5,
            "lambda": 5,
            "drawnRed": 34,
            "reportedRed": 39,
            "inferredRed": 36,
            "playerTrialScore": 2,
            "oppTrialScore": -2,
            "playerTotalScore": -287,
            "oppTotalScore": -56,
            "waitTime": 2926.004355347505,
            "responseTime": 1680633501708,
            "catchQuestion": "How many <b class=\"r\">red<\/b> marbles did your opponent report drawing? ",
            "catchKey": -1,
            "catchResponse": -1,
            "catchTime": 1680633469124,
            "trialTime": 0
        },
        {
            "exptPart": "trial",
            "trialNumber": 88,
            "roleCurrent": "receiver",
            "marblesSampled": 100,
            "probRed": 0.5,
            "lambda": 5,
            "drawnRed": 77,
            "reportedRed": 82,
            "inferredRed": 80,
            "playerTrialScore": -3,
            "oppTrialScore": 3,
            "playerTotalScore": -290,
            "oppTotalScore": -53,
            "waitTime": 6207.744393973766,
            "responseTime": 1680633511390,
            "catchQuestion": "How many <b class=\"r\">red<\/b> marbles did your opponent report drawing? ",
            "catchKey": -1,
            "catchResponse": -1,
            "catchTime": 1680633469124,
            "trialTime": 0
        },
        {
            "exptPart": "trial",
            "trialNumber": 89,
            "roleCurrent": "sender",
            "marblesSampled": 100,
            "probRed": 0.5,
            "lambda": 5,
            "drawnRed": 48,
            "reportedRed": 53,
            "inferredRed": 48,
            "playerTrialScore": 0,
            "oppTrialScore": 0,
            "playerTotalScore": -290,
            "oppTotalScore": -53,
            "waitTime": 2450.397562851055,
            "responseTime": 1680633531406,
            "catchQuestion": "How many <b class=\"r\">red<\/b> marbles did your opponent report drawing? ",
            "catchKey": -1,
            "catchResponse": -1,
            "catchTime": 1680633469124,
            "trialTime": 0
        },
        {
            "exptPart": "trial",
            "trialNumber": 90,
            "roleCurrent": "receiver",
            "marblesSampled": 100,
            "probRed": 0.5,
            "lambda": 5,
            "drawnRed": 31,
            "reportedRed": 33,
            "inferredRed": 32,
            "playerTrialScore": -1,
            "oppTrialScore": 1,
            "playerTotalScore": -291,
            "oppTotalScore": -52,
            "waitTime": 5358.5421096221025,
            "responseTime": 1680633540358,
            "catchQuestion": "How many <b class=\"r\">red<\/b> marbles did your opponent report drawing? ",
            "catchKey": -1,
            "catchResponse": -1,
            "catchTime": 1680633540359,
            "trialTime": 0
        },
        {
            "exptPart": "trial",
            "trialNumber": 91,
            "roleCurrent": "sender",
            "marblesSampled": 100,
            "probRed": 0.5,
            "lambda": 5,
            "drawnRed": 83,
            "reportedRed": 83,
            "inferredRed": 75,
            "playerTrialScore": 0,
            "oppTrialScore": -8,
            "playerTotalScore": -291,
            "oppTotalScore": -60,
            "waitTime": 2372.502985520745,
            "responseTime": 1680633550822,
            "catchQuestion": "How many <b class=\"r\">red<\/b> marbles did your opponent report drawing? ",
            "catchKey": -1,
            "catchResponse": -1,
            "catchTime": 1680633540359,
            "trialTime": 0
        },
        {
            "exptPart": "trial",
            "trialNumber": 92,
            "roleCurrent": "receiver",
            "marblesSampled": 100,
            "probRed": 0.5,
            "lambda": 5,
            "drawnRed": 22,
            "reportedRed": 30,
            "inferredRed": 27,
            "playerTrialScore": -5,
            "oppTrialScore": 5,
            "playerTotalScore": -296,
            "oppTotalScore": -55,
            "waitTime": 5251.019596636739,
            "responseTime": 1680633564125,
            "catchQuestion": "How many <b class=\"r\">red<\/b> marbles did your opponent report drawing? ",
            "catchKey": -1,
            "catchResponse": -1,
            "catchTime": 1680633540359,
            "trialTime": 0
        },
        {
            "exptPart": "trial",
            "trialNumber": 93,
            "roleCurrent": "sender",
            "marblesSampled": 100,
            "probRed": 0.5,
            "lambda": 5,
            "drawnRed": 19,
            "reportedRed": 19,
            "inferredRed": 14,
            "playerTrialScore": 0,
            "oppTrialScore": -5,
            "playerTotalScore": -296,
            "oppTotalScore": -60,
            "waitTime": 2139.4639302128794,
            "responseTime": 1680633574574,
            "catchQuestion": "How many <b class=\"r\">red<\/b> marbles did your opponent report drawing? ",
            "catchKey": -1,
            "catchResponse": -1,
            "catchTime": 1680633540359,
            "trialTime": 0
        },
        {
            "exptPart": "trial",
            "trialNumber": 94,
            "roleCurrent": "receiver",
            "marblesSampled": 100,
            "probRed": 0.5,
            "lambda": 5,
            "drawnRed": 29,
            "reportedRed": 34,
            "inferredRed": 33,
            "playerTrialScore": -4,
            "oppTrialScore": 4,
            "playerTotalScore": -300,
            "oppTotalScore": -56,
            "waitTime": 6881.7441826276045,
            "responseTime": 1680633585692,
            "catchQuestion": "How many <b class=\"r\">red<\/b> marbles did your opponent report drawing? ",
            "catchKey": -1,
            "catchResponse": -1,
            "catchTime": 1680633540359,
            "trialTime": 0
        },
        {
            "exptPart": "trial",
            "trialNumber": 95,
            "roleCurrent": "sender",
            "marblesSampled": 100,
            "probRed": 0.5,
            "lambda": 5,
            "drawnRed": 63,
            "reportedRed": 65,
            "inferredRed": 58,
            "playerTrialScore": 0,
            "oppTrialScore": -5,
            "playerTotalScore": -300,
            "oppTotalScore": -61,
            "waitTime": 2801.410078179602,
            "responseTime": 1680633599909,
            "catchQuestion": "How many <b class=\"r\">red<\/b> marbles did your opponent report drawing? ",
            "catchKey": -1,
            "catchResponse": -1,
            "catchTime": 1680633599909,
            "trialTime": 0
        },
        {
            "exptPart": "trial",
            "trialNumber": 96,
            "roleCurrent": "receiver",
            "marblesSampled": 100,
            "probRed": 0.5,
            "lambda": 5,
            "drawnRed": 67,
            "reportedRed": 76,
            "inferredRed": 77,
            "playerTrialScore": -10,
            "oppTrialScore": 10,
            "playerTotalScore": -310,
            "oppTotalScore": -51,
            "waitTime": 5472.557676064828,
            "responseTime": 1680633613156,
            "catchQuestion": "How many <b class=\"r\">red<\/b> marbles did your opponent report drawing? ",
            "catchKey": -1,
            "catchResponse": -1,
            "catchTime": 1680633599909,
            "trialTime": 0
        },
        {
            "exptPart": "trial",
            "trialNumber": 97,
            "roleCurrent": "sender",
            "marblesSampled": 100,
            "probRed": 0.5,
            "lambda": 5,
            "drawnRed": 66,
            "reportedRed": 70,
            "inferredRed": 68,
            "playerTrialScore": 2,
            "oppTrialScore": -2,
            "playerTotalScore": -308,
            "oppTotalScore": -53,
            "waitTime": 2420.9690070671095,
            "responseTime": 1680633629356,
            "catchQuestion": "How many <b class=\"r\">red<\/b> marbles did your opponent report drawing? ",
            "catchKey": -1,
            "catchResponse": -1,
            "catchTime": 1680633599909,
            "trialTime": 0
        },
        {
            "exptPart": "trial",
            "trialNumber": 98,
            "roleCurrent": "receiver",
            "marblesSampled": 100,
            "probRed": 0.5,
            "lambda": 5,
            "drawnRed": 69,
            "reportedRed": 72,
            "inferredRed": 70,
            "playerTrialScore": -1,
            "oppTrialScore": 1,
            "playerTotalScore": -309,
            "oppTotalScore": -52,
            "waitTime": 6398.635256601485,
            "responseTime": 1680633645441,
            "catchQuestion": "How many <b class=\"r\">red<\/b> marbles did your opponent report drawing? ",
            "catchKey": -1,
            "catchResponse": -1,
            "catchTime": 1680633599909,
            "trialTime": 0
        },
        {
            "exptPart": "trial",
            "trialNumber": 99,
            "roleCurrent": "sender",
            "marblesSampled": 100,
            "probRed": 0.5,
            "lambda": 5,
            "drawnRed": 46,
            "reportedRed": 46,
            "inferredRed": 39,
            "playerTrialScore": 0,
            "oppTrialScore": -7,
            "playerTotalScore": -309,
            "oppTotalScore": -59,
            "waitTime": 3132.5592972225945,
            "responseTime": 1680633654138,
            "catchQuestion": "How many <b class=\"r\">red<\/b> marbles did your opponent report drawing? ",
            "catchKey": -1,
            "catchResponse": -1,
            "catchTime": 1680633599909,
            "trialTime": 0
        },
        {
            "exptPart": "trial",
            "trialNumber": 100,
            "roleCurrent": "receiver",
            "marblesSampled": 100,
            "probRed": 0.5,
            "lambda": 5,
            "drawnRed": 17,
            "reportedRed": 25,
            "inferredRed": 23,
            "playerTrialScore": -6,
            "oppTrialScore": 6,
            "playerTotalScore": -315,
            "oppTotalScore": -53,
            "waitTime": 6966.447915631754,
            "responseTime": 1680633667039,
            "catchQuestion": "How many <b class=\"r\">red<\/b> marbles did your opponent report drawing? ",
            "catchKey": -1,
            "catchResponse": -1,
            "catchTime": 1680633667039,
            "trialTime": 0
        }
    ]
}