{
    "client": {
        "type": "sona",
        "experiment_id": 2228,
        "credit_token": "b315147ae43241ea9c65086cb510cfb7",
        "survey_code": "42466",
        "sid": "sona-42466",
        "window": {
            "width": 1324,
            "height": 727
        },
        "screen": {
            "width": 1440,
            "height": 900
        },
        "userAgent": "Mozilla\/5.0 (Macintosh; Intel Mac OS X 10_15_7) AppleWebKit\/605.1.15 (KHTML, like Gecko) Version\/14.1.2 Safari\/605.1.15",
        "score": 0,
        "bonus": 0
    },
    "expt": {
        "saveURL": "submit.simple.php",
        "trials": 100,
        "practiceTrials": 2,
        "marblesSampled": 100,
        "probRed": 0.5,
        "lambdaAI": 5,
        "roleFirst": "receiver",
        "roles": [
            "sender",
            "receiver"
        ],
        "cost": "unif",
        "goal": "under",
        "goalInstructTxt": "above",
        "catchTrials": [
            27,
            98,
            0,
            80,
            93,
            92,
            8,
            49,
            14,
            20
        ],
        "scoreTotal": {
            "player": -354,
            "opp": -43
        },
        "sona": {
            "experiment_id": 2228,
            "credit_token": "b315147ae43241ea9c65086cb510cfb7"
        },
        "pilot": false,
        "debug": false
    },
    "trials": [
        {
            "exptPart": "practice",
            "trialNumber": 1,
            "roleCurrent": "sender",
            "marblesSampled": 100,
            "probRed": 0.5,
            "lambda": 5,
            "drawnRed": 36,
            "reportedRed": 44,
            "inferredRed": 53,
            "playerTrialScore": 0,
            "oppTrialScore": -17,
            "playerTotalScore": 0,
            "oppTotalScore": -17,
            "waitTime": 3136.52798162598,
            "responseTime": 1678834580428,
            "catchQuestion": "How many <b class=\"r\">red<\/b> marbles did you actually draw (before any changes)? ",
            "catchKey": 36,
            "catchResponse": 44,
            "catchTime": 1678834580429,
            "trialTime": 0
        },
        {
            "exptPart": "practice",
            "trialNumber": 2,
            "roleCurrent": "receiver",
            "marblesSampled": 100,
            "probRed": 0.5,
            "lambda": 5,
            "drawnRed": 32,
            "reportedRed": 24,
            "inferredRed": 34,
            "playerTrialScore": -2,
            "oppTrialScore": 0,
            "playerTotalScore": -2,
            "oppTotalScore": -17,
            "waitTime": 5277.7764972515615,
            "responseTime": 1678834634084,
            "catchQuestion": "How many <b class=\"r\">red<\/b> marbles did your opponent report drawing? ",
            "catchKey": 24,
            "catchResponse": 55,
            "catchTime": 1678834634085,
            "trialTime": 0
        },
        {
            "exptPart": "trial",
            "trialNumber": 1,
            "roleCurrent": "receiver",
            "marblesSampled": 100,
            "probRed": 0.5,
            "lambda": 5,
            "drawnRed": 16,
            "reportedRed": 12,
            "inferredRed": 32,
            "playerTrialScore": -16,
            "oppTrialScore": 0,
            "playerTotalScore": -16,
            "oppTotalScore": 0,
            "waitTime": 7008.174967700225,
            "responseTime": 1678834712113,
            "catchQuestion": "How many <b class=\"r\">red<\/b> marbles did your opponent report drawing? ",
            "catchKey": 12,
            "catchResponse": 33,
            "catchTime": 1678834712114,
            "trialTime": 0
        },
        {
            "exptPart": "trial",
            "trialNumber": 2,
            "roleCurrent": "sender",
            "marblesSampled": 100,
            "probRed": 0.5,
            "lambda": 5,
            "drawnRed": 16,
            "reportedRed": 39,
            "inferredRed": 46,
            "playerTrialScore": 0,
            "oppTrialScore": -30,
            "playerTotalScore": -16,
            "oppTotalScore": -30,
            "waitTime": 2196.903324776012,
            "responseTime": 1678834763888,
            "catchQuestion": "How many <b class=\"r\">red<\/b> marbles did your opponent report drawing? ",
            "catchKey": -1,
            "catchResponse": -1,
            "catchTime": 1678834712114,
            "trialTime": 0
        },
        {
            "exptPart": "trial",
            "trialNumber": 3,
            "roleCurrent": "receiver",
            "marblesSampled": 100,
            "probRed": 0.5,
            "lambda": 5,
            "drawnRed": 86,
            "reportedRed": 82,
            "inferredRed": 33,
            "playerTrialScore": -53,
            "oppTrialScore": 53,
            "playerTotalScore": -69,
            "oppTotalScore": 23,
            "waitTime": 7452.698213102187,
            "responseTime": 1678834811758,
            "catchQuestion": "How many <b class=\"r\">red<\/b> marbles did your opponent report drawing? ",
            "catchKey": -1,
            "catchResponse": -1,
            "catchTime": 1678834712114,
            "trialTime": 0
        },
        {
            "exptPart": "trial",
            "trialNumber": 4,
            "roleCurrent": "sender",
            "marblesSampled": 100,
            "probRed": 0.5,
            "lambda": 5,
            "drawnRed": 75,
            "reportedRed": 75,
            "inferredRed": 79,
            "playerTrialScore": 0,
            "oppTrialScore": -4,
            "playerTotalScore": -69,
            "oppTotalScore": 19,
            "waitTime": 2069.262427283302,
            "responseTime": 1678834826532,
            "catchQuestion": "How many <b class=\"r\">red<\/b> marbles did your opponent report drawing? ",
            "catchKey": -1,
            "catchResponse": -1,
            "catchTime": 1678834712114,
            "trialTime": 0
        },
        {
            "exptPart": "trial",
            "trialNumber": 5,
            "roleCurrent": "receiver",
            "marblesSampled": 100,
            "probRed": 0.5,
            "lambda": 5,
            "drawnRed": 12,
            "reportedRed": 9,
            "inferredRed": 6,
            "playerTrialScore": -6,
            "oppTrialScore": 6,
            "playerTotalScore": -75,
            "oppTotalScore": 25,
            "waitTime": 7210.796740134017,
            "responseTime": 1678834878076,
            "catchQuestion": "How many <b class=\"r\">red<\/b> marbles did your opponent report drawing? ",
            "catchKey": -1,
            "catchResponse": -1,
            "catchTime": 1678834878076,
            "trialTime": 0
        },
        {
            "exptPart": "trial",
            "trialNumber": 6,
            "roleCurrent": "sender",
            "marblesSampled": 100,
            "probRed": 0.5,
            "lambda": 5,
            "drawnRed": 61,
            "reportedRed": 61,
            "inferredRed": 63,
            "playerTrialScore": 0,
            "oppTrialScore": -2,
            "playerTotalScore": -75,
            "oppTotalScore": 23,
            "waitTime": 2517.249653376305,
            "responseTime": 1678834898387,
            "catchQuestion": "How many <b class=\"r\">red<\/b> marbles did your opponent report drawing? ",
            "catchKey": -1,
            "catchResponse": -1,
            "catchTime": 1678834878076,
            "trialTime": 0
        },
        {
            "exptPart": "trial",
            "trialNumber": 7,
            "roleCurrent": "receiver",
            "marblesSampled": 100,
            "probRed": 0.5,
            "lambda": 5,
            "drawnRed": 52,
            "reportedRed": 49,
            "inferredRed": 55,
            "playerTrialScore": -3,
            "oppTrialScore": 0,
            "playerTotalScore": -78,
            "oppTotalScore": 23,
            "waitTime": 6863.897463346224,
            "responseTime": 1678834997579,
            "catchQuestion": "How many <b class=\"r\">red<\/b> marbles did your opponent report drawing? ",
            "catchKey": -1,
            "catchResponse": -1,
            "catchTime": 1678834878076,
            "trialTime": 0
        },
        {
            "exptPart": "trial",
            "trialNumber": 8,
            "roleCurrent": "sender",
            "marblesSampled": 100,
            "probRed": 0.5,
            "lambda": 5,
            "drawnRed": 36,
            "reportedRed": 36,
            "inferredRed": 42,
            "playerTrialScore": 0,
            "oppTrialScore": -6,
            "playerTotalScore": -78,
            "oppTotalScore": 17,
            "waitTime": 2819.988931620859,
            "responseTime": 1678835027167,
            "catchQuestion": "How many <b class=\"r\">red<\/b> marbles did your opponent report drawing? ",
            "catchKey": -1,
            "catchResponse": -1,
            "catchTime": 1678834878076,
            "trialTime": 0
        },
        {
            "exptPart": "trial",
            "trialNumber": 9,
            "roleCurrent": "receiver",
            "marblesSampled": 100,
            "probRed": 0.5,
            "lambda": 5,
            "drawnRed": 46,
            "reportedRed": 43,
            "inferredRed": 33,
            "playerTrialScore": -13,
            "oppTrialScore": 13,
            "playerTotalScore": -91,
            "oppTotalScore": 30,
            "waitTime": 5993.214101678141,
            "responseTime": 1678835039988,
            "catchQuestion": "How many <b class=\"r\">red<\/b> marbles did your opponent report drawing? ",
            "catchKey": 43,
            "catchResponse": 43,
            "catchTime": 1678835039988,
            "trialTime": 0
        },
        {
            "exptPart": "trial",
            "trialNumber": 10,
            "roleCurrent": "sender",
            "marblesSampled": 100,
            "probRed": 0.5,
            "lambda": 5,
            "drawnRed": 47,
            "reportedRed": 47,
            "inferredRed": 50,
            "playerTrialScore": 0,
            "oppTrialScore": -3,
            "playerTotalScore": -91,
            "oppTotalScore": 27,
            "waitTime": 3212.208585451006,
            "responseTime": 1678835115705,
            "catchQuestion": "How many <b class=\"r\">red<\/b> marbles did your opponent report drawing? ",
            "catchKey": -1,
            "catchResponse": -1,
            "catchTime": 1678835115705,
            "trialTime": 0
        },
        {
            "exptPart": "trial",
            "trialNumber": 11,
            "roleCurrent": "receiver",
            "marblesSampled": 100,
            "probRed": 0.5,
            "lambda": 5,
            "drawnRed": 54,
            "reportedRed": 51,
            "inferredRed": 38,
            "playerTrialScore": -16,
            "oppTrialScore": 16,
            "playerTotalScore": -107,
            "oppTotalScore": 43,
            "waitTime": 6933.987464859698,
            "responseTime": 1678835154211,
            "catchQuestion": "How many <b class=\"r\">red<\/b> marbles did your opponent report drawing? ",
            "catchKey": -1,
            "catchResponse": -1,
            "catchTime": 1678835115705,
            "trialTime": 0
        },
        {
            "exptPart": "trial",
            "trialNumber": 12,
            "roleCurrent": "sender",
            "marblesSampled": 100,
            "probRed": 0.5,
            "lambda": 5,
            "drawnRed": 9,
            "reportedRed": 25,
            "inferredRed": 30,
            "playerTrialScore": 0,
            "oppTrialScore": -21,
            "playerTotalScore": -107,
            "oppTotalScore": 22,
            "waitTime": 2655.996513044025,
            "responseTime": 1678835180570,
            "catchQuestion": "How many <b class=\"r\">red<\/b> marbles did your opponent report drawing? ",
            "catchKey": -1,
            "catchResponse": -1,
            "catchTime": 1678835115705,
            "trialTime": 0
        },
        {
            "exptPart": "trial",
            "trialNumber": 13,
            "roleCurrent": "receiver",
            "marblesSampled": 100,
            "probRed": 0.5,
            "lambda": 5,
            "drawnRed": 38,
            "reportedRed": 33,
            "inferredRed": 20,
            "playerTrialScore": -18,
            "oppTrialScore": 18,
            "playerTotalScore": -125,
            "oppTotalScore": 40,
            "waitTime": 7027.254708060688,
            "responseTime": 1678835199645,
            "catchQuestion": "How many <b class=\"r\">red<\/b> marbles did your opponent report drawing? ",
            "catchKey": -1,
            "catchResponse": -1,
            "catchTime": 1678835115705,
            "trialTime": 0
        },
        {
            "exptPart": "trial",
            "trialNumber": 14,
            "roleCurrent": "sender",
            "marblesSampled": 100,
            "probRed": 0.5,
            "lambda": 5,
            "drawnRed": 69,
            "reportedRed": 69,
            "inferredRed": 69,
            "playerTrialScore": 0,
            "oppTrialScore": 0,
            "playerTotalScore": -125,
            "oppTotalScore": 40,
            "waitTime": 3211.5357873976814,
            "responseTime": 1678835212500,
            "catchQuestion": "How many <b class=\"r\">red<\/b> marbles did your opponent report drawing? ",
            "catchKey": -1,
            "catchResponse": -1,
            "catchTime": 1678835115705,
            "trialTime": 0
        },
        {
            "exptPart": "trial",
            "trialNumber": 15,
            "roleCurrent": "receiver",
            "marblesSampled": 100,
            "probRed": 0.5,
            "lambda": 5,
            "drawnRed": 43,
            "reportedRed": 41,
            "inferredRed": 34,
            "playerTrialScore": -9,
            "oppTrialScore": 9,
            "playerTotalScore": -134,
            "oppTotalScore": 49,
            "waitTime": 6006.960406927827,
            "responseTime": 1678835312249,
            "catchQuestion": "How many <b class=\"r\">red<\/b> marbles did your opponent report drawing? ",
            "catchKey": 41,
            "catchResponse": 67,
            "catchTime": 1678835312249,
            "trialTime": 0
        },
        {
            "exptPart": "trial",
            "trialNumber": 16,
            "roleCurrent": "sender",
            "marblesSampled": 100,
            "probRed": 0.5,
            "lambda": 5,
            "drawnRed": 62,
            "reportedRed": 62,
            "inferredRed": 68,
            "playerTrialScore": 0,
            "oppTrialScore": -6,
            "playerTotalScore": -134,
            "oppTotalScore": 43,
            "waitTime": 2178.1662800362656,
            "responseTime": 1678835347400,
            "catchQuestion": "How many <b class=\"r\">red<\/b> marbles did your opponent report drawing? ",
            "catchKey": -1,
            "catchResponse": -1,
            "catchTime": 1678835312249,
            "trialTime": 0
        },
        {
            "exptPart": "trial",
            "trialNumber": 17,
            "roleCurrent": "receiver",
            "marblesSampled": 100,
            "probRed": 0.5,
            "lambda": 5,
            "drawnRed": 66,
            "reportedRed": 59,
            "inferredRed": 43,
            "playerTrialScore": -23,
            "oppTrialScore": 23,
            "playerTotalScore": -157,
            "oppTotalScore": 66,
            "waitTime": 5803.172264626607,
            "responseTime": 1678835357533,
            "catchQuestion": "How many <b class=\"r\">red<\/b> marbles did your opponent report drawing? ",
            "catchKey": -1,
            "catchResponse": -1,
            "catchTime": 1678835312249,
            "trialTime": 0
        },
        {
            "exptPart": "trial",
            "trialNumber": 18,
            "roleCurrent": "sender",
            "marblesSampled": 100,
            "probRed": 0.5,
            "lambda": 5,
            "drawnRed": 21,
            "reportedRed": 21,
            "inferredRed": 25,
            "playerTrialScore": 0,
            "oppTrialScore": -4,
            "playerTotalScore": -157,
            "oppTotalScore": 62,
            "waitTime": 2338.5815511058818,
            "responseTime": 1678835364472,
            "catchQuestion": "How many <b class=\"r\">red<\/b> marbles did your opponent report drawing? ",
            "catchKey": -1,
            "catchResponse": -1,
            "catchTime": 1678835312249,
            "trialTime": 0
        },
        {
            "exptPart": "trial",
            "trialNumber": 19,
            "roleCurrent": "receiver",
            "marblesSampled": 100,
            "probRed": 0.5,
            "lambda": 5,
            "drawnRed": 92,
            "reportedRed": 86,
            "inferredRed": 82,
            "playerTrialScore": -10,
            "oppTrialScore": 10,
            "playerTotalScore": -167,
            "oppTotalScore": 72,
            "waitTime": 6991.227622176413,
            "responseTime": 1678835379039,
            "catchQuestion": "How many <b class=\"r\">red<\/b> marbles did your opponent report drawing? ",
            "catchKey": -1,
            "catchResponse": -1,
            "catchTime": 1678835312249,
            "trialTime": 0
        },
        {
            "exptPart": "trial",
            "trialNumber": 20,
            "roleCurrent": "sender",
            "marblesSampled": 100,
            "probRed": 0.5,
            "lambda": 5,
            "drawnRed": 39,
            "reportedRed": 39,
            "inferredRed": 42,
            "playerTrialScore": 0,
            "oppTrialScore": -3,
            "playerTotalScore": -167,
            "oppTotalScore": 69,
            "waitTime": 2194.1279005078122,
            "responseTime": 1678835397898,
            "catchQuestion": "How many <b class=\"r\">red<\/b> marbles did your opponent report drawing? ",
            "catchKey": -1,
            "catchResponse": -1,
            "catchTime": 1678835397898,
            "trialTime": 0
        },
        {
            "exptPart": "trial",
            "trialNumber": 21,
            "roleCurrent": "receiver",
            "marblesSampled": 100,
            "probRed": 0.5,
            "lambda": 5,
            "drawnRed": 67,
            "reportedRed": 64,
            "inferredRed": 50,
            "playerTrialScore": -17,
            "oppTrialScore": 17,
            "playerTotalScore": -184,
            "oppTotalScore": 86,
            "waitTime": 5988.338708234897,
            "responseTime": 1678835417122,
            "catchQuestion": "How many <b class=\"r\">red<\/b> marbles did your opponent report drawing? ",
            "catchKey": 64,
            "catchResponse": 65,
            "catchTime": 1678835417122,
            "trialTime": 0
        },
        {
            "exptPart": "trial",
            "trialNumber": 22,
            "roleCurrent": "sender",
            "marblesSampled": 100,
            "probRed": 0.5,
            "lambda": 5,
            "drawnRed": 67,
            "reportedRed": 67,
            "inferredRed": 74,
            "playerTrialScore": 0,
            "oppTrialScore": -7,
            "playerTotalScore": -184,
            "oppTotalScore": 79,
            "waitTime": 2064.10028508431,
            "responseTime": 1678835439748,
            "catchQuestion": "How many <b class=\"r\">red<\/b> marbles did your opponent report drawing? ",
            "catchKey": -1,
            "catchResponse": -1,
            "catchTime": 1678835417122,
            "trialTime": 0
        },
        {
            "exptPart": "trial",
            "trialNumber": 23,
            "roleCurrent": "receiver",
            "marblesSampled": 100,
            "probRed": 0.5,
            "lambda": 5,
            "drawnRed": 60,
            "reportedRed": 53,
            "inferredRed": 42,
            "playerTrialScore": -18,
            "oppTrialScore": 18,
            "playerTotalScore": -202,
            "oppTotalScore": 97,
            "waitTime": 5142.435236784628,
            "responseTime": 1678835448686,
            "catchQuestion": "How many <b class=\"r\">red<\/b> marbles did your opponent report drawing? ",
            "catchKey": -1,
            "catchResponse": -1,
            "catchTime": 1678835417122,
            "trialTime": 0
        },
        {
            "exptPart": "trial",
            "trialNumber": 24,
            "roleCurrent": "sender",
            "marblesSampled": 100,
            "probRed": 0.5,
            "lambda": 5,
            "drawnRed": 47,
            "reportedRed": 47,
            "inferredRed": 55,
            "playerTrialScore": 0,
            "oppTrialScore": -8,
            "playerTotalScore": -202,
            "oppTotalScore": 89,
            "waitTime": 2860.739734936253,
            "responseTime": 1678835474443,
            "catchQuestion": "How many <b class=\"r\">red<\/b> marbles did your opponent report drawing? ",
            "catchKey": -1,
            "catchResponse": -1,
            "catchTime": 1678835417122,
            "trialTime": 0
        },
        {
            "exptPart": "trial",
            "trialNumber": 25,
            "roleCurrent": "receiver",
            "marblesSampled": 100,
            "probRed": 0.5,
            "lambda": 5,
            "drawnRed": 32,
            "reportedRed": 30,
            "inferredRed": 30,
            "playerTrialScore": -2,
            "oppTrialScore": 2,
            "playerTotalScore": -204,
            "oppTotalScore": 91,
            "waitTime": 6012.025457698983,
            "responseTime": 1678835487825,
            "catchQuestion": "How many <b class=\"r\">red<\/b> marbles did your opponent report drawing? ",
            "catchKey": -1,
            "catchResponse": -1,
            "catchTime": 1678835487825,
            "trialTime": 0
        },
        {
            "exptPart": "trial",
            "trialNumber": 26,
            "roleCurrent": "sender",
            "marblesSampled": 100,
            "probRed": 0.5,
            "lambda": 5,
            "drawnRed": 83,
            "reportedRed": 83,
            "inferredRed": 86,
            "playerTrialScore": 0,
            "oppTrialScore": -3,
            "playerTotalScore": -204,
            "oppTotalScore": 88,
            "waitTime": 2211.7876235177127,
            "responseTime": 1678835501501,
            "catchQuestion": "How many <b class=\"r\">red<\/b> marbles did your opponent report drawing? ",
            "catchKey": -1,
            "catchResponse": -1,
            "catchTime": 1678835487825,
            "trialTime": 0
        },
        {
            "exptPart": "trial",
            "trialNumber": 27,
            "roleCurrent": "receiver",
            "marblesSampled": 100,
            "probRed": 0.5,
            "lambda": 5,
            "drawnRed": 70,
            "reportedRed": 64,
            "inferredRed": 77,
            "playerTrialScore": -7,
            "oppTrialScore": 0,
            "playerTotalScore": -211,
            "oppTotalScore": 88,
            "waitTime": 5131.789358955095,
            "responseTime": 1678835510124,
            "catchQuestion": "How many <b class=\"r\">red<\/b> marbles did your opponent report drawing? ",
            "catchKey": -1,
            "catchResponse": -1,
            "catchTime": 1678835487825,
            "trialTime": 0
        },
        {
            "exptPart": "trial",
            "trialNumber": 28,
            "roleCurrent": "sender",
            "marblesSampled": 100,
            "probRed": 0.5,
            "lambda": 5,
            "drawnRed": 58,
            "reportedRed": 58,
            "inferredRed": 66,
            "playerTrialScore": 0,
            "oppTrialScore": -8,
            "playerTotalScore": -211,
            "oppTotalScore": 80,
            "waitTime": 2162.9191799590894,
            "responseTime": 1678835517055,
            "catchQuestion": "How many <b class=\"r\">red<\/b> marbles did you actually draw (before any changes)? ",
            "catchKey": 58,
            "catchResponse": 66,
            "catchTime": 1678835517055,
            "trialTime": 0
        },
        {
            "exptPart": "trial",
            "trialNumber": 29,
            "roleCurrent": "receiver",
            "marblesSampled": 100,
            "probRed": 0.5,
            "lambda": 5,
            "drawnRed": 68,
            "reportedRed": 62,
            "inferredRed": 69,
            "playerTrialScore": -1,
            "oppTrialScore": 0,
            "playerTotalScore": -212,
            "oppTotalScore": 80,
            "waitTime": 7462.125917332421,
            "responseTime": 1678835554524,
            "catchQuestion": "How many <b class=\"r\">red<\/b> marbles did you actually draw (before any changes)? ",
            "catchKey": -1,
            "catchResponse": -1,
            "catchTime": 1678835517055,
            "trialTime": 0
        },
        {
            "exptPart": "trial",
            "trialNumber": 30,
            "roleCurrent": "sender",
            "marblesSampled": 100,
            "probRed": 0.5,
            "lambda": 5,
            "drawnRed": 55,
            "reportedRed": 55,
            "inferredRed": 61,
            "playerTrialScore": 0,
            "oppTrialScore": -6,
            "playerTotalScore": -212,
            "oppTotalScore": 74,
            "waitTime": 3161.959866842913,
            "responseTime": 1678835587948,
            "catchQuestion": "How many <b class=\"r\">red<\/b> marbles did you actually draw (before any changes)? ",
            "catchKey": -1,
            "catchResponse": -1,
            "catchTime": 1678835587948,
            "trialTime": 0
        },
        {
            "exptPart": "trial",
            "trialNumber": 31,
            "roleCurrent": "receiver",
            "marblesSampled": 100,
            "probRed": 0.5,
            "lambda": 5,
            "drawnRed": 19,
            "reportedRed": 17,
            "inferredRed": 22,
            "playerTrialScore": -3,
            "oppTrialScore": 0,
            "playerTotalScore": -215,
            "oppTotalScore": 74,
            "waitTime": 7064.0790092306715,
            "responseTime": 1678835610489,
            "catchQuestion": "How many <b class=\"r\">red<\/b> marbles did you actually draw (before any changes)? ",
            "catchKey": -1,
            "catchResponse": -1,
            "catchTime": 1678835587948,
            "trialTime": 0
        },
        {
            "exptPart": "trial",
            "trialNumber": 32,
            "roleCurrent": "sender",
            "marblesSampled": 100,
            "probRed": 0.5,
            "lambda": 5,
            "drawnRed": 53,
            "reportedRed": 53,
            "inferredRed": 61,
            "playerTrialScore": 0,
            "oppTrialScore": -8,
            "playerTotalScore": -215,
            "oppTotalScore": 66,
            "waitTime": 2941.9697645567767,
            "responseTime": 1678835620844,
            "catchQuestion": "How many <b class=\"r\">red<\/b> marbles did you actually draw (before any changes)? ",
            "catchKey": -1,
            "catchResponse": -1,
            "catchTime": 1678835587948,
            "trialTime": 0
        },
        {
            "exptPart": "trial",
            "trialNumber": 33,
            "roleCurrent": "receiver",
            "marblesSampled": 100,
            "probRed": 0.5,
            "lambda": 5,
            "drawnRed": 19,
            "reportedRed": 15,
            "inferredRed": 22,
            "playerTrialScore": -3,
            "oppTrialScore": 0,
            "playerTotalScore": -218,
            "oppTotalScore": 66,
            "waitTime": 5795.983587745721,
            "responseTime": 1678835640763,
            "catchQuestion": "How many <b class=\"r\">red<\/b> marbles did you actually draw (before any changes)? ",
            "catchKey": -1,
            "catchResponse": -1,
            "catchTime": 1678835587948,
            "trialTime": 0
        },
        {
            "exptPart": "trial",
            "trialNumber": 34,
            "roleCurrent": "sender",
            "marblesSampled": 100,
            "probRed": 0.5,
            "lambda": 5,
            "drawnRed": 47,
            "reportedRed": 47,
            "inferredRed": 53,
            "playerTrialScore": 0,
            "oppTrialScore": -6,
            "playerTotalScore": -218,
            "oppTotalScore": 60,
            "waitTime": 2826.5948045726063,
            "responseTime": 1678835655328,
            "catchQuestion": "How many <b class=\"r\">red<\/b> marbles did you actually draw (before any changes)? ",
            "catchKey": -1,
            "catchResponse": -1,
            "catchTime": 1678835587948,
            "trialTime": 0
        },
        {
            "exptPart": "trial",
            "trialNumber": 35,
            "roleCurrent": "receiver",
            "marblesSampled": 100,
            "probRed": 0.5,
            "lambda": 5,
            "drawnRed": 18,
            "reportedRed": 10,
            "inferredRed": 12,
            "playerTrialScore": -6,
            "oppTrialScore": 6,
            "playerTotalScore": -224,
            "oppTotalScore": 66,
            "waitTime": 6337.222217345952,
            "responseTime": 1678835666371,
            "catchQuestion": "How many <b class=\"r\">red<\/b> marbles did you actually draw (before any changes)? ",
            "catchKey": -1,
            "catchResponse": -1,
            "catchTime": 1678835666371,
            "trialTime": 0
        },
        {
            "exptPart": "trial",
            "trialNumber": 36,
            "roleCurrent": "sender",
            "marblesSampled": 100,
            "probRed": 0.5,
            "lambda": 5,
            "drawnRed": 78,
            "reportedRed": 79,
            "inferredRed": 84,
            "playerTrialScore": 0,
            "oppTrialScore": -6,
            "playerTotalScore": -224,
            "oppTotalScore": 60,
            "waitTime": 2554.328247673597,
            "responseTime": 1678835689320,
            "catchQuestion": "How many <b class=\"r\">red<\/b> marbles did you actually draw (before any changes)? ",
            "catchKey": -1,
            "catchResponse": -1,
            "catchTime": 1678835666371,
            "trialTime": 0
        },
        {
            "exptPart": "trial",
            "trialNumber": 37,
            "roleCurrent": "receiver",
            "marblesSampled": 100,
            "probRed": 0.5,
            "lambda": 5,
            "drawnRed": 80,
            "reportedRed": 77,
            "inferredRed": 80,
            "playerTrialScore": 0,
            "oppTrialScore": 0,
            "playerTotalScore": -224,
            "oppTotalScore": 60,
            "waitTime": 5614.904105599902,
            "responseTime": 1678835699004,
            "catchQuestion": "How many <b class=\"r\">red<\/b> marbles did you actually draw (before any changes)? ",
            "catchKey": -1,
            "catchResponse": -1,
            "catchTime": 1678835666371,
            "trialTime": 0
        },
        {
            "exptPart": "trial",
            "trialNumber": 38,
            "roleCurrent": "sender",
            "marblesSampled": 100,
            "probRed": 0.5,
            "lambda": 5,
            "drawnRed": 56,
            "reportedRed": 56,
            "inferredRed": 63,
            "playerTrialScore": 0,
            "oppTrialScore": -7,
            "playerTotalScore": -224,
            "oppTotalScore": 53,
            "waitTime": 3111.7967075573865,
            "responseTime": 1678835715861,
            "catchQuestion": "How many <b class=\"r\">red<\/b> marbles did you actually draw (before any changes)? ",
            "catchKey": -1,
            "catchResponse": -1,
            "catchTime": 1678835666371,
            "trialTime": 0
        },
        {
            "exptPart": "trial",
            "trialNumber": 39,
            "roleCurrent": "receiver",
            "marblesSampled": 100,
            "probRed": 0.5,
            "lambda": 5,
            "drawnRed": 82,
            "reportedRed": 75,
            "inferredRed": 75,
            "playerTrialScore": -7,
            "oppTrialScore": 7,
            "playerTotalScore": -231,
            "oppTotalScore": 60,
            "waitTime": 6508.582349214795,
            "responseTime": 1678835726307,
            "catchQuestion": "How many <b class=\"r\">red<\/b> marbles did you actually draw (before any changes)? ",
            "catchKey": -1,
            "catchResponse": -1,
            "catchTime": 1678835666371,
            "trialTime": 0
        },
        {
            "exptPart": "trial",
            "trialNumber": 40,
            "roleCurrent": "sender",
            "marblesSampled": 100,
            "probRed": 0.5,
            "lambda": 5,
            "drawnRed": 63,
            "reportedRed": 63,
            "inferredRed": 73,
            "playerTrialScore": 0,
            "oppTrialScore": -10,
            "playerTotalScore": -231,
            "oppTotalScore": 50,
            "waitTime": 2763.7061263981095,
            "responseTime": 1678835746443,
            "catchQuestion": "How many <b class=\"r\">red<\/b> marbles did you actually draw (before any changes)? ",
            "catchKey": -1,
            "catchResponse": -1,
            "catchTime": 1678835746443,
            "trialTime": 0
        },
        {
            "exptPart": "trial",
            "trialNumber": 41,
            "roleCurrent": "receiver",
            "marblesSampled": 100,
            "probRed": 0.5,
            "lambda": 5,
            "drawnRed": 30,
            "reportedRed": 24,
            "inferredRed": 28,
            "playerTrialScore": -2,
            "oppTrialScore": 2,
            "playerTotalScore": -233,
            "oppTotalScore": 52,
            "waitTime": 6380.733676630311,
            "responseTime": 1678835844266,
            "catchQuestion": "How many <b class=\"r\">red<\/b> marbles did you actually draw (before any changes)? ",
            "catchKey": -1,
            "catchResponse": -1,
            "catchTime": 1678835746443,
            "trialTime": 0
        },
        {
            "exptPart": "trial",
            "trialNumber": 42,
            "roleCurrent": "sender",
            "marblesSampled": 100,
            "probRed": 0.5,
            "lambda": 5,
            "drawnRed": 46,
            "reportedRed": 46,
            "inferredRed": 48,
            "playerTrialScore": 0,
            "oppTrialScore": -2,
            "playerTotalScore": -233,
            "oppTotalScore": 50,
            "waitTime": 2692.503844135713,
            "responseTime": 1678835868515,
            "catchQuestion": "How many <b class=\"r\">red<\/b> marbles did you actually draw (before any changes)? ",
            "catchKey": -1,
            "catchResponse": -1,
            "catchTime": 1678835746443,
            "trialTime": 0
        },
        {
            "exptPart": "trial",
            "trialNumber": 43,
            "roleCurrent": "receiver",
            "marblesSampled": 100,
            "probRed": 0.5,
            "lambda": 5,
            "drawnRed": 43,
            "reportedRed": 41,
            "inferredRed": 45,
            "playerTrialScore": -2,
            "oppTrialScore": 0,
            "playerTotalScore": -235,
            "oppTotalScore": 50,
            "waitTime": 6118.674688425411,
            "responseTime": 1678835925373,
            "catchQuestion": "How many <b class=\"r\">red<\/b> marbles did you actually draw (before any changes)? ",
            "catchKey": -1,
            "catchResponse": -1,
            "catchTime": 1678835746443,
            "trialTime": 0
        },
        {
            "exptPart": "trial",
            "trialNumber": 44,
            "roleCurrent": "sender",
            "marblesSampled": 100,
            "probRed": 0.5,
            "lambda": 5,
            "drawnRed": 74,
            "reportedRed": 74,
            "inferredRed": 80,
            "playerTrialScore": 0,
            "oppTrialScore": -6,
            "playerTotalScore": -235,
            "oppTotalScore": 44,
            "waitTime": 2384.586460198102,
            "responseTime": 1678835943427,
            "catchQuestion": "How many <b class=\"r\">red<\/b> marbles did you actually draw (before any changes)? ",
            "catchKey": -1,
            "catchResponse": -1,
            "catchTime": 1678835746443,
            "trialTime": 0
        },
        {
            "exptPart": "trial",
            "trialNumber": 45,
            "roleCurrent": "receiver",
            "marblesSampled": 100,
            "probRed": 0.5,
            "lambda": 5,
            "drawnRed": 56,
            "reportedRed": 49,
            "inferredRed": 53,
            "playerTrialScore": -3,
            "oppTrialScore": 3,
            "playerTotalScore": -238,
            "oppTotalScore": 47,
            "waitTime": 5522.292388065966,
            "responseTime": 1678836032423,
            "catchQuestion": "How many <b class=\"r\">red<\/b> marbles did you actually draw (before any changes)? ",
            "catchKey": -1,
            "catchResponse": -1,
            "catchTime": 1678836032423,
            "trialTime": 0
        },
        {
            "exptPart": "trial",
            "trialNumber": 46,
            "roleCurrent": "sender",
            "marblesSampled": 100,
            "probRed": 0.5,
            "lambda": 5,
            "drawnRed": 16,
            "reportedRed": 24,
            "inferredRed": 27,
            "playerTrialScore": 0,
            "oppTrialScore": -11,
            "playerTotalScore": -238,
            "oppTotalScore": 36,
            "waitTime": 2384.785856280906,
            "responseTime": 1678836063806,
            "catchQuestion": "How many <b class=\"r\">red<\/b> marbles did you actually draw (before any changes)? ",
            "catchKey": -1,
            "catchResponse": -1,
            "catchTime": 1678836032423,
            "trialTime": 0
        },
        {
            "exptPart": "trial",
            "trialNumber": 47,
            "roleCurrent": "receiver",
            "marblesSampled": 100,
            "probRed": 0.5,
            "lambda": 5,
            "drawnRed": 17,
            "reportedRed": 14,
            "inferredRed": 16,
            "playerTrialScore": -1,
            "oppTrialScore": 1,
            "playerTotalScore": -239,
            "oppTotalScore": 37,
            "waitTime": 5147.828440027055,
            "responseTime": 1678836073731,
            "catchQuestion": "How many <b class=\"r\">red<\/b> marbles did you actually draw (before any changes)? ",
            "catchKey": -1,
            "catchResponse": -1,
            "catchTime": 1678836032423,
            "trialTime": 0
        },
        {
            "exptPart": "trial",
            "trialNumber": 48,
            "roleCurrent": "sender",
            "marblesSampled": 100,
            "probRed": 0.5,
            "lambda": 5,
            "drawnRed": 38,
            "reportedRed": 38,
            "inferredRed": 42,
            "playerTrialScore": 0,
            "oppTrialScore": -4,
            "playerTotalScore": -239,
            "oppTotalScore": 33,
            "waitTime": 3105.484684374822,
            "responseTime": 1678836086406,
            "catchQuestion": "How many <b class=\"r\">red<\/b> marbles did you actually draw (before any changes)? ",
            "catchKey": -1,
            "catchResponse": -1,
            "catchTime": 1678836032423,
            "trialTime": 0
        },
        {
            "exptPart": "trial",
            "trialNumber": 49,
            "roleCurrent": "receiver",
            "marblesSampled": 100,
            "probRed": 0.5,
            "lambda": 5,
            "drawnRed": 86,
            "reportedRed": 81,
            "inferredRed": 80,
            "playerTrialScore": -6,
            "oppTrialScore": 6,
            "playerTotalScore": -245,
            "oppTotalScore": 39,
            "waitTime": 6720.027825406085,
            "responseTime": 1678836103274,
            "catchQuestion": "How many <b class=\"r\">red<\/b> marbles did you actually draw (before any changes)? ",
            "catchKey": -1,
            "catchResponse": -1,
            "catchTime": 1678836032423,
            "trialTime": 0
        },
        {
            "exptPart": "trial",
            "trialNumber": 50,
            "roleCurrent": "sender",
            "marblesSampled": 100,
            "probRed": 0.5,
            "lambda": 5,
            "drawnRed": 70,
            "reportedRed": 83,
            "inferredRed": 91,
            "playerTrialScore": 0,
            "oppTrialScore": -21,
            "playerTotalScore": -245,
            "oppTotalScore": 18,
            "waitTime": 3099.914897029185,
            "responseTime": 1678836123724,
            "catchQuestion": "How many <b class=\"r\">red<\/b> marbles did you actually draw (before any changes)? ",
            "catchKey": 70,
            "catchResponse": 77,
            "catchTime": 1678836123724,
            "trialTime": 0
        },
        {
            "exptPart": "trial",
            "trialNumber": 51,
            "roleCurrent": "receiver",
            "marblesSampled": 100,
            "probRed": 0.5,
            "lambda": 5,
            "drawnRed": 67,
            "reportedRed": 61,
            "inferredRed": 60,
            "playerTrialScore": -7,
            "oppTrialScore": 7,
            "playerTotalScore": -252,
            "oppTotalScore": 25,
            "waitTime": 5464.574328570392,
            "responseTime": 1678836158908,
            "catchQuestion": "How many <b class=\"r\">red<\/b> marbles did you actually draw (before any changes)? ",
            "catchKey": -1,
            "catchResponse": -1,
            "catchTime": 1678836123724,
            "trialTime": 0
        },
        {
            "exptPart": "trial",
            "trialNumber": 52,
            "roleCurrent": "sender",
            "marblesSampled": 100,
            "probRed": 0.5,
            "lambda": 5,
            "drawnRed": 45,
            "reportedRed": 45,
            "inferredRed": 51,
            "playerTrialScore": 0,
            "oppTrialScore": -6,
            "playerTotalScore": -252,
            "oppTotalScore": 19,
            "waitTime": 2201.8979761346422,
            "responseTime": 1678836173441,
            "catchQuestion": "How many <b class=\"r\">red<\/b> marbles did you actually draw (before any changes)? ",
            "catchKey": -1,
            "catchResponse": -1,
            "catchTime": 1678836123724,
            "trialTime": 0
        },
        {
            "exptPart": "trial",
            "trialNumber": 53,
            "roleCurrent": "receiver",
            "marblesSampled": 100,
            "probRed": 0.5,
            "lambda": 5,
            "drawnRed": 22,
            "reportedRed": 17,
            "inferredRed": 19,
            "playerTrialScore": -3,
            "oppTrialScore": 3,
            "playerTotalScore": -255,
            "oppTotalScore": 22,
            "waitTime": 7252.320341120006,
            "responseTime": 1678836193453,
            "catchQuestion": "How many <b class=\"r\">red<\/b> marbles did you actually draw (before any changes)? ",
            "catchKey": -1,
            "catchResponse": -1,
            "catchTime": 1678836123724,
            "trialTime": 0
        },
        {
            "exptPart": "trial",
            "trialNumber": 54,
            "roleCurrent": "sender",
            "marblesSampled": 100,
            "probRed": 0.5,
            "lambda": 5,
            "drawnRed": 47,
            "reportedRed": 47,
            "inferredRed": 50,
            "playerTrialScore": 0,
            "oppTrialScore": -3,
            "playerTotalScore": -255,
            "oppTotalScore": 19,
            "waitTime": 2520.525977708937,
            "responseTime": 1678836200411,
            "catchQuestion": "How many <b class=\"r\">red<\/b> marbles did you actually draw (before any changes)? ",
            "catchKey": -1,
            "catchResponse": -1,
            "catchTime": 1678836123724,
            "trialTime": 0
        },
        {
            "exptPart": "trial",
            "trialNumber": 55,
            "roleCurrent": "receiver",
            "marblesSampled": 100,
            "probRed": 0.5,
            "lambda": 5,
            "drawnRed": 54,
            "reportedRed": 48,
            "inferredRed": 33,
            "playerTrialScore": -21,
            "oppTrialScore": 21,
            "playerTotalScore": -276,
            "oppTotalScore": 40,
            "waitTime": 5538.361034524203,
            "responseTime": 1678836208400,
            "catchQuestion": "How many <b class=\"r\">red<\/b> marbles did you actually draw (before any changes)? ",
            "catchKey": -1,
            "catchResponse": -1,
            "catchTime": 1678836208401,
            "trialTime": 0
        },
        {
            "exptPart": "trial",
            "trialNumber": 56,
            "roleCurrent": "sender",
            "marblesSampled": 100,
            "probRed": 0.5,
            "lambda": 5,
            "drawnRed": 95,
            "reportedRed": 95,
            "inferredRed": 100,
            "playerTrialScore": 0,
            "oppTrialScore": -5,
            "playerTotalScore": -276,
            "oppTotalScore": 35,
            "waitTime": 2285.75463368815,
            "responseTime": 1678836217665,
            "catchQuestion": "How many <b class=\"r\">red<\/b> marbles did you actually draw (before any changes)? ",
            "catchKey": -1,
            "catchResponse": -1,
            "catchTime": 1678836208401,
            "trialTime": 0
        },
        {
            "exptPart": "trial",
            "trialNumber": 57,
            "roleCurrent": "receiver",
            "marblesSampled": 100,
            "probRed": 0.5,
            "lambda": 5,
            "drawnRed": 55,
            "reportedRed": 49,
            "inferredRed": 45,
            "playerTrialScore": -10,
            "oppTrialScore": 10,
            "playerTotalScore": -286,
            "oppTotalScore": 45,
            "waitTime": 7255.5801591176,
            "responseTime": 1678836228940,
            "catchQuestion": "How many <b class=\"r\">red<\/b> marbles did you actually draw (before any changes)? ",
            "catchKey": -1,
            "catchResponse": -1,
            "catchTime": 1678836208401,
            "trialTime": 0
        },
        {
            "exptPart": "trial",
            "trialNumber": 58,
            "roleCurrent": "sender",
            "marblesSampled": 100,
            "probRed": 0.5,
            "lambda": 5,
            "drawnRed": 16,
            "reportedRed": 16,
            "inferredRed": 21,
            "playerTrialScore": 0,
            "oppTrialScore": -5,
            "playerTotalScore": -286,
            "oppTotalScore": 40,
            "waitTime": 2408.299486240963,
            "responseTime": 1678836241130,
            "catchQuestion": "How many <b class=\"r\">red<\/b> marbles did you actually draw (before any changes)? ",
            "catchKey": -1,
            "catchResponse": -1,
            "catchTime": 1678836208401,
            "trialTime": 0
        },
        {
            "exptPart": "trial",
            "trialNumber": 59,
            "roleCurrent": "receiver",
            "marblesSampled": 100,
            "probRed": 0.5,
            "lambda": 5,
            "drawnRed": 58,
            "reportedRed": 53,
            "inferredRed": 57,
            "playerTrialScore": -1,
            "oppTrialScore": 1,
            "playerTotalScore": -287,
            "oppTotalScore": 41,
            "waitTime": 5486.113865370857,
            "responseTime": 1678836250261,
            "catchQuestion": "How many <b class=\"r\">red<\/b> marbles did you actually draw (before any changes)? ",
            "catchKey": -1,
            "catchResponse": -1,
            "catchTime": 1678836208401,
            "trialTime": 0
        },
        {
            "exptPart": "trial",
            "trialNumber": 60,
            "roleCurrent": "sender",
            "marblesSampled": 100,
            "probRed": 0.5,
            "lambda": 5,
            "drawnRed": 44,
            "reportedRed": 44,
            "inferredRed": 47,
            "playerTrialScore": 0,
            "oppTrialScore": -3,
            "playerTotalScore": -287,
            "oppTotalScore": 38,
            "waitTime": 2191.69746145326,
            "responseTime": 1678836257505,
            "catchQuestion": "How many <b class=\"r\">red<\/b> marbles did you actually draw (before any changes)? ",
            "catchKey": -1,
            "catchResponse": -1,
            "catchTime": 1678836257506,
            "trialTime": 0
        },
        {
            "exptPart": "trial",
            "trialNumber": 61,
            "roleCurrent": "receiver",
            "marblesSampled": 100,
            "probRed": 0.5,
            "lambda": 5,
            "drawnRed": 39,
            "reportedRed": 36,
            "inferredRed": 39,
            "playerTrialScore": 0,
            "oppTrialScore": 0,
            "playerTotalScore": -287,
            "oppTotalScore": 38,
            "waitTime": 6281.5045447616185,
            "responseTime": 1678836271418,
            "catchQuestion": "How many <b class=\"r\">red<\/b> marbles did you actually draw (before any changes)? ",
            "catchKey": -1,
            "catchResponse": -1,
            "catchTime": 1678836257506,
            "trialTime": 0
        },
        {
            "exptPart": "trial",
            "trialNumber": 62,
            "roleCurrent": "sender",
            "marblesSampled": 100,
            "probRed": 0.5,
            "lambda": 5,
            "drawnRed": 31,
            "reportedRed": 31,
            "inferredRed": 39,
            "playerTrialScore": 0,
            "oppTrialScore": -8,
            "playerTotalScore": -287,
            "oppTotalScore": 30,
            "waitTime": 2689.9795707877797,
            "responseTime": 1678836285836,
            "catchQuestion": "How many <b class=\"r\">red<\/b> marbles did you actually draw (before any changes)? ",
            "catchKey": -1,
            "catchResponse": -1,
            "catchTime": 1678836257506,
            "trialTime": 0
        },
        {
            "exptPart": "trial",
            "trialNumber": 63,
            "roleCurrent": "receiver",
            "marblesSampled": 100,
            "probRed": 0.5,
            "lambda": 5,
            "drawnRed": 58,
            "reportedRed": 55,
            "inferredRed": 60,
            "playerTrialScore": -2,
            "oppTrialScore": 0,
            "playerTotalScore": -289,
            "oppTotalScore": 30,
            "waitTime": 5874.174717588941,
            "responseTime": 1678836295250,
            "catchQuestion": "How many <b class=\"r\">red<\/b> marbles did you actually draw (before any changes)? ",
            "catchKey": -1,
            "catchResponse": -1,
            "catchTime": 1678836257506,
            "trialTime": 0
        },
        {
            "exptPart": "trial",
            "trialNumber": 64,
            "roleCurrent": "sender",
            "marblesSampled": 100,
            "probRed": 0.5,
            "lambda": 5,
            "drawnRed": 69,
            "reportedRed": 69,
            "inferredRed": 73,
            "playerTrialScore": 0,
            "oppTrialScore": -4,
            "playerTotalScore": -289,
            "oppTotalScore": 26,
            "waitTime": 2798.9710138921537,
            "responseTime": 1678836303748,
            "catchQuestion": "How many <b class=\"r\">red<\/b> marbles did you actually draw (before any changes)? ",
            "catchKey": -1,
            "catchResponse": -1,
            "catchTime": 1678836257506,
            "trialTime": 0
        },
        {
            "exptPart": "trial",
            "trialNumber": 65,
            "roleCurrent": "receiver",
            "marblesSampled": 100,
            "probRed": 0.5,
            "lambda": 5,
            "drawnRed": 29,
            "reportedRed": 27,
            "inferredRed": 45,
            "playerTrialScore": -16,
            "oppTrialScore": 0,
            "playerTotalScore": -305,
            "oppTotalScore": 26,
            "waitTime": 6565.647559493504,
            "responseTime": 1678836315366,
            "catchQuestion": "How many <b class=\"r\">red<\/b> marbles did you actually draw (before any changes)? ",
            "catchKey": -1,
            "catchResponse": -1,
            "catchTime": 1678836315366,
            "trialTime": 0
        },
        {
            "exptPart": "trial",
            "trialNumber": 66,
            "roleCurrent": "sender",
            "marblesSampled": 100,
            "probRed": 0.5,
            "lambda": 5,
            "drawnRed": 89,
            "reportedRed": 89,
            "inferredRed": 93,
            "playerTrialScore": 0,
            "oppTrialScore": -4,
            "playerTotalScore": -305,
            "oppTotalScore": 22,
            "waitTime": 2734.182778864343,
            "responseTime": 1678836325090,
            "catchQuestion": "How many <b class=\"r\">red<\/b> marbles did you actually draw (before any changes)? ",
            "catchKey": -1,
            "catchResponse": -1,
            "catchTime": 1678836315366,
            "trialTime": 0
        },
        {
            "exptPart": "trial",
            "trialNumber": 67,
            "roleCurrent": "receiver",
            "marblesSampled": 100,
            "probRed": 0.5,
            "lambda": 5,
            "drawnRed": 31,
            "reportedRed": 27,
            "inferredRed": 29,
            "playerTrialScore": -2,
            "oppTrialScore": 2,
            "playerTotalScore": -307,
            "oppTotalScore": 24,
            "waitTime": 5331.277236106857,
            "responseTime": 1678836334138,
            "catchQuestion": "How many <b class=\"r\">red<\/b> marbles did you actually draw (before any changes)? ",
            "catchKey": -1,
            "catchResponse": -1,
            "catchTime": 1678836315366,
            "trialTime": 0
        },
        {
            "exptPart": "trial",
            "trialNumber": 68,
            "roleCurrent": "sender",
            "marblesSampled": 100,
            "probRed": 0.5,
            "lambda": 5,
            "drawnRed": 17,
            "reportedRed": 19,
            "inferredRed": 23,
            "playerTrialScore": 0,
            "oppTrialScore": -6,
            "playerTotalScore": -307,
            "oppTotalScore": 18,
            "waitTime": 2396.7125998357337,
            "responseTime": 1678836344418,
            "catchQuestion": "How many <b class=\"r\">red<\/b> marbles did you actually draw (before any changes)? ",
            "catchKey": -1,
            "catchResponse": -1,
            "catchTime": 1678836315366,
            "trialTime": 0
        },
        {
            "exptPart": "trial",
            "trialNumber": 69,
            "roleCurrent": "receiver",
            "marblesSampled": 100,
            "probRed": 0.5,
            "lambda": 5,
            "drawnRed": 27,
            "reportedRed": 22,
            "inferredRed": 25,
            "playerTrialScore": -2,
            "oppTrialScore": 2,
            "playerTotalScore": -309,
            "oppTotalScore": 20,
            "waitTime": 6541.805964482281,
            "responseTime": 1678836354340,
            "catchQuestion": "How many <b class=\"r\">red<\/b> marbles did you actually draw (before any changes)? ",
            "catchKey": -1,
            "catchResponse": -1,
            "catchTime": 1678836315366,
            "trialTime": 0
        },
        {
            "exptPart": "trial",
            "trialNumber": 70,
            "roleCurrent": "sender",
            "marblesSampled": 100,
            "probRed": 0.5,
            "lambda": 5,
            "drawnRed": 53,
            "reportedRed": 53,
            "inferredRed": 59,
            "playerTrialScore": 0,
            "oppTrialScore": -6,
            "playerTotalScore": -309,
            "oppTotalScore": 14,
            "waitTime": 2281.4621986717893,
            "responseTime": 1678836386001,
            "catchQuestion": "How many <b class=\"r\">red<\/b> marbles did you actually draw (before any changes)? ",
            "catchKey": -1,
            "catchResponse": -1,
            "catchTime": 1678836386001,
            "trialTime": 0
        },
        {
            "exptPart": "trial",
            "trialNumber": 71,
            "roleCurrent": "receiver",
            "marblesSampled": 100,
            "probRed": 0.5,
            "lambda": 5,
            "drawnRed": 55,
            "reportedRed": 52,
            "inferredRed": 55,
            "playerTrialScore": 0,
            "oppTrialScore": 0,
            "playerTotalScore": -309,
            "oppTotalScore": 14,
            "waitTime": 5822.2883638735275,
            "responseTime": 1678836406019,
            "catchQuestion": "How many <b class=\"r\">red<\/b> marbles did you actually draw (before any changes)? ",
            "catchKey": -1,
            "catchResponse": -1,
            "catchTime": 1678836386001,
            "trialTime": 0
        },
        {
            "exptPart": "trial",
            "trialNumber": 72,
            "roleCurrent": "sender",
            "marblesSampled": 100,
            "probRed": 0.5,
            "lambda": 5,
            "drawnRed": 37,
            "reportedRed": 37,
            "inferredRed": 42,
            "playerTrialScore": 0,
            "oppTrialScore": -5,
            "playerTotalScore": -309,
            "oppTotalScore": 9,
            "waitTime": 2158.0719684055584,
            "responseTime": 1678836415822,
            "catchQuestion": "How many <b class=\"r\">red<\/b> marbles did you actually draw (before any changes)? ",
            "catchKey": -1,
            "catchResponse": -1,
            "catchTime": 1678836386001,
            "trialTime": 0
        },
        {
            "exptPart": "trial",
            "trialNumber": 73,
            "roleCurrent": "receiver",
            "marblesSampled": 100,
            "probRed": 0.5,
            "lambda": 5,
            "drawnRed": 38,
            "reportedRed": 33,
            "inferredRed": 35,
            "playerTrialScore": -3,
            "oppTrialScore": 3,
            "playerTotalScore": -312,
            "oppTotalScore": 12,
            "waitTime": 6897.952756577046,
            "responseTime": 1678836426824,
            "catchQuestion": "How many <b class=\"r\">red<\/b> marbles did you actually draw (before any changes)? ",
            "catchKey": -1,
            "catchResponse": -1,
            "catchTime": 1678836386001,
            "trialTime": 0
        },
        {
            "exptPart": "trial",
            "trialNumber": 74,
            "roleCurrent": "sender",
            "marblesSampled": 100,
            "probRed": 0.5,
            "lambda": 5,
            "drawnRed": 21,
            "reportedRed": 21,
            "inferredRed": 26,
            "playerTrialScore": 0,
            "oppTrialScore": -5,
            "playerTotalScore": -312,
            "oppTotalScore": 7,
            "waitTime": 2622.7533975216825,
            "responseTime": 1678836433891,
            "catchQuestion": "How many <b class=\"r\">red<\/b> marbles did you actually draw (before any changes)? ",
            "catchKey": -1,
            "catchResponse": -1,
            "catchTime": 1678836386001,
            "trialTime": 0
        },
        {
            "exptPart": "trial",
            "trialNumber": 75,
            "roleCurrent": "receiver",
            "marblesSampled": 100,
            "probRed": 0.5,
            "lambda": 5,
            "drawnRed": 26,
            "reportedRed": 19,
            "inferredRed": 22,
            "playerTrialScore": -4,
            "oppTrialScore": 4,
            "playerTotalScore": -316,
            "oppTotalScore": 11,
            "waitTime": 5127.862607745354,
            "responseTime": 1678836442498,
            "catchQuestion": "How many <b class=\"r\">red<\/b> marbles did you actually draw (before any changes)? ",
            "catchKey": -1,
            "catchResponse": -1,
            "catchTime": 1678836442499,
            "trialTime": 0
        },
        {
            "exptPart": "trial",
            "trialNumber": 76,
            "roleCurrent": "sender",
            "marblesSampled": 100,
            "probRed": 0.5,
            "lambda": 5,
            "drawnRed": 44,
            "reportedRed": 44,
            "inferredRed": 50,
            "playerTrialScore": 0,
            "oppTrialScore": -6,
            "playerTotalScore": -316,
            "oppTotalScore": 5,
            "waitTime": 2511.2817522366777,
            "responseTime": 1678836458912,
            "catchQuestion": "How many <b class=\"r\">red<\/b> marbles did you actually draw (before any changes)? ",
            "catchKey": -1,
            "catchResponse": -1,
            "catchTime": 1678836442499,
            "trialTime": 0
        },
        {
            "exptPart": "trial",
            "trialNumber": 77,
            "roleCurrent": "receiver",
            "marblesSampled": 100,
            "probRed": 0.5,
            "lambda": 5,
            "drawnRed": 74,
            "reportedRed": 68,
            "inferredRed": 71,
            "playerTrialScore": -3,
            "oppTrialScore": 3,
            "playerTotalScore": -319,
            "oppTotalScore": 8,
            "waitTime": 6669.573157771586,
            "responseTime": 1678836470416,
            "catchQuestion": "How many <b class=\"r\">red<\/b> marbles did you actually draw (before any changes)? ",
            "catchKey": -1,
            "catchResponse": -1,
            "catchTime": 1678836442499,
            "trialTime": 0
        },
        {
            "exptPart": "trial",
            "trialNumber": 78,
            "roleCurrent": "sender",
            "marblesSampled": 100,
            "probRed": 0.5,
            "lambda": 5,
            "drawnRed": 23,
            "reportedRed": 23,
            "inferredRed": 31,
            "playerTrialScore": 0,
            "oppTrialScore": -8,
            "playerTotalScore": -319,
            "oppTotalScore": 0,
            "waitTime": 2425.2459080638573,
            "responseTime": 1678836481879,
            "catchQuestion": "How many <b class=\"r\">red<\/b> marbles did you actually draw (before any changes)? ",
            "catchKey": -1,
            "catchResponse": -1,
            "catchTime": 1678836442499,
            "trialTime": 0
        },
        {
            "exptPart": "trial",
            "trialNumber": 79,
            "roleCurrent": "receiver",
            "marblesSampled": 100,
            "probRed": 0.5,
            "lambda": 5,
            "drawnRed": 75,
            "reportedRed": 70,
            "inferredRed": 73,
            "playerTrialScore": -2,
            "oppTrialScore": 2,
            "playerTotalScore": -321,
            "oppTotalScore": 2,
            "waitTime": 6843.092709335768,
            "responseTime": 1678836492024,
            "catchQuestion": "How many <b class=\"r\">red<\/b> marbles did you actually draw (before any changes)? ",
            "catchKey": -1,
            "catchResponse": -1,
            "catchTime": 1678836442499,
            "trialTime": 0
        },
        {
            "exptPart": "trial",
            "trialNumber": 80,
            "roleCurrent": "sender",
            "marblesSampled": 100,
            "probRed": 0.5,
            "lambda": 5,
            "drawnRed": 25,
            "reportedRed": 25,
            "inferredRed": 28,
            "playerTrialScore": 0,
            "oppTrialScore": -3,
            "playerTotalScore": -321,
            "oppTotalScore": -1,
            "waitTime": 3210.503263568675,
            "responseTime": 1678836523252,
            "catchQuestion": "How many <b class=\"r\">red<\/b> marbles did you actually draw (before any changes)? ",
            "catchKey": -1,
            "catchResponse": -1,
            "catchTime": 1678836523252,
            "trialTime": 0
        },
        {
            "exptPart": "trial",
            "trialNumber": 81,
            "roleCurrent": "receiver",
            "marblesSampled": 100,
            "probRed": 0.5,
            "lambda": 5,
            "drawnRed": 57,
            "reportedRed": 53,
            "inferredRed": 55,
            "playerTrialScore": -2,
            "oppTrialScore": 2,
            "playerTotalScore": -323,
            "oppTotalScore": 1,
            "waitTime": 5388.808405577267,
            "responseTime": 1678836544904,
            "catchQuestion": "How many <b class=\"r\">red<\/b> marbles did your opponent report drawing? ",
            "catchKey": 53,
            "catchResponse": 65,
            "catchTime": 1678836544904,
            "trialTime": 0
        },
        {
            "exptPart": "trial",
            "trialNumber": 82,
            "roleCurrent": "sender",
            "marblesSampled": 100,
            "probRed": 0.5,
            "lambda": 5,
            "drawnRed": 20,
            "reportedRed": 37,
            "inferredRed": 39,
            "playerTrialScore": 0,
            "oppTrialScore": -19,
            "playerTotalScore": -323,
            "oppTotalScore": -18,
            "waitTime": 2147.8202579876634,
            "responseTime": 1678836592488,
            "catchQuestion": "How many <b class=\"r\">red<\/b> marbles did your opponent report drawing? ",
            "catchKey": -1,
            "catchResponse": -1,
            "catchTime": 1678836544904,
            "trialTime": 0
        },
        {
            "exptPart": "trial",
            "trialNumber": 83,
            "roleCurrent": "receiver",
            "marblesSampled": 100,
            "probRed": 0.5,
            "lambda": 5,
            "drawnRed": 32,
            "reportedRed": 23,
            "inferredRed": 30,
            "playerTrialScore": -2,
            "oppTrialScore": 2,
            "playerTotalScore": -325,
            "oppTotalScore": -16,
            "waitTime": 5262.07076230325,
            "responseTime": 1678836613766,
            "catchQuestion": "How many <b class=\"r\">red<\/b> marbles did your opponent report drawing? ",
            "catchKey": -1,
            "catchResponse": -1,
            "catchTime": 1678836544904,
            "trialTime": 0
        },
        {
            "exptPart": "trial",
            "trialNumber": 84,
            "roleCurrent": "sender",
            "marblesSampled": 100,
            "probRed": 0.5,
            "lambda": 5,
            "drawnRed": 70,
            "reportedRed": 70,
            "inferredRed": 74,
            "playerTrialScore": 0,
            "oppTrialScore": -4,
            "playerTotalScore": -325,
            "oppTotalScore": -20,
            "waitTime": 2186.2142083359586,
            "responseTime": 1678836623577,
            "catchQuestion": "How many <b class=\"r\">red<\/b> marbles did your opponent report drawing? ",
            "catchKey": -1,
            "catchResponse": -1,
            "catchTime": 1678836544904,
            "trialTime": 0
        },
        {
            "exptPart": "trial",
            "trialNumber": 85,
            "roleCurrent": "receiver",
            "marblesSampled": 100,
            "probRed": 0.5,
            "lambda": 5,
            "drawnRed": 40,
            "reportedRed": 37,
            "inferredRed": 40,
            "playerTrialScore": 0,
            "oppTrialScore": 0,
            "playerTotalScore": -325,
            "oppTotalScore": -20,
            "waitTime": 6018.775464730089,
            "responseTime": 1678836632983,
            "catchQuestion": "How many <b class=\"r\">red<\/b> marbles did your opponent report drawing? ",
            "catchKey": -1,
            "catchResponse": -1,
            "catchTime": 1678836632983,
            "trialTime": 0
        },
        {
            "exptPart": "trial",
            "trialNumber": 86,
            "roleCurrent": "sender",
            "marblesSampled": 100,
            "probRed": 0.5,
            "lambda": 5,
            "drawnRed": 60,
            "reportedRed": 60,
            "inferredRed": 64,
            "playerTrialScore": 0,
            "oppTrialScore": -4,
            "playerTotalScore": -325,
            "oppTotalScore": -24,
            "waitTime": 2147.789018779829,
            "responseTime": 1678836647392,
            "catchQuestion": "How many <b class=\"r\">red<\/b> marbles did your opponent report drawing? ",
            "catchKey": -1,
            "catchResponse": -1,
            "catchTime": 1678836632983,
            "trialTime": 0
        },
        {
            "exptPart": "trial",
            "trialNumber": 87,
            "roleCurrent": "receiver",
            "marblesSampled": 100,
            "probRed": 0.5,
            "lambda": 5,
            "drawnRed": 27,
            "reportedRed": 24,
            "inferredRed": 30,
            "playerTrialScore": -3,
            "oppTrialScore": 0,
            "playerTotalScore": -328,
            "oppTotalScore": -24,
            "waitTime": 6407.598834705977,
            "responseTime": 1678836657068,
            "catchQuestion": "How many <b class=\"r\">red<\/b> marbles did your opponent report drawing? ",
            "catchKey": -1,
            "catchResponse": -1,
            "catchTime": 1678836632983,
            "trialTime": 0
        },
        {
            "exptPart": "trial",
            "trialNumber": 88,
            "roleCurrent": "sender",
            "marblesSampled": 100,
            "probRed": 0.5,
            "lambda": 5,
            "drawnRed": 64,
            "reportedRed": 64,
            "inferredRed": 67,
            "playerTrialScore": 0,
            "oppTrialScore": -3,
            "playerTotalScore": -328,
            "oppTotalScore": -27,
            "waitTime": 2253.245454585299,
            "responseTime": 1678836684369,
            "catchQuestion": "How many <b class=\"r\">red<\/b> marbles did your opponent report drawing? ",
            "catchKey": -1,
            "catchResponse": -1,
            "catchTime": 1678836632983,
            "trialTime": 0
        },
        {
            "exptPart": "trial",
            "trialNumber": 89,
            "roleCurrent": "receiver",
            "marblesSampled": 100,
            "probRed": 0.5,
            "lambda": 5,
            "drawnRed": 51,
            "reportedRed": 49,
            "inferredRed": 52,
            "playerTrialScore": -1,
            "oppTrialScore": 0,
            "playerTotalScore": -329,
            "oppTotalScore": -27,
            "waitTime": 5714.3818193828065,
            "responseTime": 1678836693174,
            "catchQuestion": "How many <b class=\"r\">red<\/b> marbles did your opponent report drawing? ",
            "catchKey": -1,
            "catchResponse": -1,
            "catchTime": 1678836632983,
            "trialTime": 0
        },
        {
            "exptPart": "trial",
            "trialNumber": 90,
            "roleCurrent": "sender",
            "marblesSampled": 100,
            "probRed": 0.5,
            "lambda": 5,
            "drawnRed": 43,
            "reportedRed": 51,
            "inferredRed": 57,
            "playerTrialScore": 0,
            "oppTrialScore": -14,
            "playerTotalScore": -329,
            "oppTotalScore": -41,
            "waitTime": 2656.727201662852,
            "responseTime": 1678836706432,
            "catchQuestion": "How many <b class=\"r\">red<\/b> marbles did your opponent report drawing? ",
            "catchKey": -1,
            "catchResponse": -1,
            "catchTime": 1678836706432,
            "trialTime": 0
        },
        {
            "exptPart": "trial",
            "trialNumber": 91,
            "roleCurrent": "receiver",
            "marblesSampled": 100,
            "probRed": 0.5,
            "lambda": 5,
            "drawnRed": 22,
            "reportedRed": 18,
            "inferredRed": 21,
            "playerTrialScore": -1,
            "oppTrialScore": 1,
            "playerTotalScore": -330,
            "oppTotalScore": -40,
            "waitTime": 6620.6350670153515,
            "responseTime": 1678836721717,
            "catchQuestion": "How many <b class=\"r\">red<\/b> marbles did your opponent report drawing? ",
            "catchKey": -1,
            "catchResponse": -1,
            "catchTime": 1678836706432,
            "trialTime": 0
        },
        {
            "exptPart": "trial",
            "trialNumber": 92,
            "roleCurrent": "sender",
            "marblesSampled": 100,
            "probRed": 0.5,
            "lambda": 5,
            "drawnRed": 39,
            "reportedRed": 39,
            "inferredRed": 42,
            "playerTrialScore": 0,
            "oppTrialScore": -3,
            "playerTotalScore": -330,
            "oppTotalScore": -43,
            "waitTime": 2087.1510840955107,
            "responseTime": 1678836734048,
            "catchQuestion": "How many <b class=\"r\">red<\/b> marbles did your opponent report drawing? ",
            "catchKey": -1,
            "catchResponse": -1,
            "catchTime": 1678836706432,
            "trialTime": 0
        },
        {
            "exptPart": "trial",
            "trialNumber": 93,
            "roleCurrent": "receiver",
            "marblesSampled": 100,
            "probRed": 0.5,
            "lambda": 5,
            "drawnRed": 32,
            "reportedRed": 23,
            "inferredRed": 30,
            "playerTrialScore": -2,
            "oppTrialScore": 2,
            "playerTotalScore": -332,
            "oppTotalScore": -41,
            "waitTime": 5853.747338510658,
            "responseTime": 1678836744566,
            "catchQuestion": "How many <b class=\"r\">red<\/b> marbles did your opponent report drawing? ",
            "catchKey": 23,
            "catchResponse": 33,
            "catchTime": 1678836744567,
            "trialTime": 0
        },
        {
            "exptPart": "trial",
            "trialNumber": 94,
            "roleCurrent": "sender",
            "marblesSampled": 100,
            "probRed": 0.5,
            "lambda": 5,
            "drawnRed": 75,
            "reportedRed": 75,
            "inferredRed": 83,
            "playerTrialScore": 0,
            "oppTrialScore": -8,
            "playerTotalScore": -332,
            "oppTotalScore": -49,
            "waitTime": 2486.5755816122783,
            "responseTime": 1678836768653,
            "catchQuestion": "How many <b class=\"r\">red<\/b> marbles did you actually draw (before any changes)? ",
            "catchKey": 75,
            "catchResponse": 75,
            "catchTime": 1678836768653,
            "trialTime": 0
        },
        {
            "exptPart": "trial",
            "trialNumber": 95,
            "roleCurrent": "receiver",
            "marblesSampled": 100,
            "probRed": 0.5,
            "lambda": 5,
            "drawnRed": 68,
            "reportedRed": 57,
            "inferredRed": 54,
            "playerTrialScore": -14,
            "oppTrialScore": 14,
            "playerTotalScore": -346,
            "oppTotalScore": -35,
            "waitTime": 7182.769522148577,
            "responseTime": 1678836787396,
            "catchQuestion": "How many <b class=\"r\">red<\/b> marbles did you actually draw (before any changes)? ",
            "catchKey": -1,
            "catchResponse": -1,
            "catchTime": 1678836787396,
            "trialTime": 0
        },
        {
            "exptPart": "trial",
            "trialNumber": 96,
            "roleCurrent": "sender",
            "marblesSampled": 100,
            "probRed": 0.5,
            "lambda": 5,
            "drawnRed": 50,
            "reportedRed": 50,
            "inferredRed": 54,
            "playerTrialScore": 0,
            "oppTrialScore": -4,
            "playerTotalScore": -346,
            "oppTotalScore": -39,
            "waitTime": 2068.508469435239,
            "responseTime": 1678836798006,
            "catchQuestion": "How many <b class=\"r\">red<\/b> marbles did you actually draw (before any changes)? ",
            "catchKey": -1,
            "catchResponse": -1,
            "catchTime": 1678836787396,
            "trialTime": 0
        },
        {
            "exptPart": "trial",
            "trialNumber": 97,
            "roleCurrent": "receiver",
            "marblesSampled": 100,
            "probRed": 0.5,
            "lambda": 5,
            "drawnRed": 37,
            "reportedRed": 34,
            "inferredRed": 30,
            "playerTrialScore": -7,
            "oppTrialScore": 7,
            "playerTotalScore": -353,
            "oppTotalScore": -32,
            "waitTime": 6008.423627352539,
            "responseTime": 1678836807862,
            "catchQuestion": "How many <b class=\"r\">red<\/b> marbles did you actually draw (before any changes)? ",
            "catchKey": -1,
            "catchResponse": -1,
            "catchTime": 1678836787396,
            "trialTime": 0
        },
        {
            "exptPart": "trial",
            "trialNumber": 98,
            "roleCurrent": "sender",
            "marblesSampled": 100,
            "probRed": 0.5,
            "lambda": 5,
            "drawnRed": 49,
            "reportedRed": 49,
            "inferredRed": 54,
            "playerTrialScore": 0,
            "oppTrialScore": -5,
            "playerTotalScore": -353,
            "oppTotalScore": -37,
            "waitTime": 2809.181814669525,
            "responseTime": 1678836820180,
            "catchQuestion": "How many <b class=\"r\">red<\/b> marbles did you actually draw (before any changes)? ",
            "catchKey": -1,
            "catchResponse": -1,
            "catchTime": 1678836787396,
            "trialTime": 0
        },
        {
            "exptPart": "trial",
            "trialNumber": 99,
            "roleCurrent": "receiver",
            "marblesSampled": 100,
            "probRed": 0.5,
            "lambda": 5,
            "drawnRed": 47,
            "reportedRed": 44,
            "inferredRed": 46,
            "playerTrialScore": -1,
            "oppTrialScore": 1,
            "playerTotalScore": -354,
            "oppTotalScore": -36,
            "waitTime": 5740.899944603668,
            "responseTime": 1678836828795,
            "catchQuestion": "How many <b class=\"r\">red<\/b> marbles did your opponent report drawing? ",
            "catchKey": 44,
            "catchResponse": 66,
            "catchTime": 1678836828795,
            "trialTime": 0
        },
        {
            "exptPart": "trial",
            "trialNumber": 100,
            "roleCurrent": "sender",
            "marblesSampled": 100,
            "probRed": 0.5,
            "lambda": 5,
            "drawnRed": 24,
            "reportedRed": 24,
            "inferredRed": 31,
            "playerTrialScore": 0,
            "oppTrialScore": -7,
            "playerTotalScore": -354,
            "oppTotalScore": -43,
            "waitTime": 2737.914546347378,
            "responseTime": 1678836849110,
            "catchQuestion": "How many <b class=\"r\">red<\/b> marbles did your opponent report drawing? ",
            "catchKey": -1,
            "catchResponse": -1,
            "catchTime": 1678836849110,
            "trialTime": 0
        }
    ]
}