{
    "client": {
        "type": "sona",
        "experiment_id": 2228,
        "credit_token": "b315147ae43241ea9c65086cb510cfb7",
        "survey_code": "42002",
        "sid": "sona-42002",
        "window": {
            "width": 1212,
            "height": 721
        },
        "screen": {
            "width": 1410,
            "height": 940
        },
        "userAgent": "Mozilla\/5.0 (X11; CrOS x86_64 14541.0.0) AppleWebKit\/537.36 (KHTML, like Gecko) Chrome\/110.0.0.0 Safari\/537.36",
        "score": 0,
        "bonus": 0
    },
    "expt": {
        "saveURL": "submit.simple.php",
        "trials": 100,
        "practiceTrials": 2,
        "marblesSampled": 100,
        "probRed": 0.5,
        "lambdaAI": 5,
        "roleFirst": "sender",
        "roles": [
            "sender",
            "receiver"
        ],
        "cost": "unif",
        "goal": "over",
        "goalInstructTxt": "below",
        "catchTrials": [
            41,
            1,
            72,
            53,
            51,
            28,
            65,
            58,
            88,
            16
        ],
        "scoreTotal": {
            "player": -311,
            "opp": -63
        },
        "sona": {
            "experiment_id": 2228,
            "credit_token": "b315147ae43241ea9c65086cb510cfb7"
        },
        "pilot": false,
        "debug": false
    },
    "trials": [
        {
            "exptPart": "practice",
            "trialNumber": 1,
            "roleCurrent": "sender",
            "marblesSampled": 100,
            "probRed": 0.5,
            "lambda": 5,
            "drawnRed": 72,
            "reportedRed": 72,
            "inferredRed": 67,
            "playerTrialScore": 0,
            "oppTrialScore": -5,
            "playerTotalScore": 0,
            "oppTotalScore": -5,
            "waitTime": 2347.9148402440505,
            "responseTime": 1678830557913,
            "catchQuestion": "How many <b class=\"r\">red<\/b> marbles did you actually draw (before any changes)? ",
            "catchKey": 72,
            "catchResponse": 72,
            "catchTime": 1678830557913,
            "trialTime": 0
        },
        {
            "exptPart": "practice",
            "trialNumber": 2,
            "roleCurrent": "receiver",
            "marblesSampled": 100,
            "probRed": 0.5,
            "lambda": 5,
            "drawnRed": 50,
            "reportedRed": 56,
            "inferredRed": 45,
            "playerTrialScore": -5,
            "oppTrialScore": 0,
            "playerTotalScore": -5,
            "oppTotalScore": -5,
            "waitTime": 6688.983871416663,
            "responseTime": 1678830604941,
            "catchQuestion": "How many <b class=\"r\">red<\/b> marbles did your opponent report drawing? ",
            "catchKey": 56,
            "catchResponse": 56,
            "catchTime": 1678830604941,
            "trialTime": 0
        },
        {
            "exptPart": "trial",
            "trialNumber": 1,
            "roleCurrent": "sender",
            "marblesSampled": 100,
            "probRed": 0.5,
            "lambda": 5,
            "drawnRed": 49,
            "reportedRed": 49,
            "inferredRed": 46,
            "playerTrialScore": 0,
            "oppTrialScore": -3,
            "playerTotalScore": 0,
            "oppTotalScore": -3,
            "waitTime": 2253.765116621449,
            "responseTime": 1678830808850,
            "catchQuestion": "How many <b class=\"r\">red<\/b> marbles did your opponent report drawing? ",
            "catchKey": -1,
            "catchResponse": -1,
            "catchTime": 1678830604941,
            "trialTime": 0
        },
        {
            "exptPart": "trial",
            "trialNumber": 2,
            "roleCurrent": "receiver",
            "marblesSampled": 100,
            "probRed": 0.5,
            "lambda": 5,
            "drawnRed": 46,
            "reportedRed": 50,
            "inferredRed": 49,
            "playerTrialScore": -3,
            "oppTrialScore": 3,
            "playerTotalScore": -3,
            "oppTotalScore": 0,
            "waitTime": 6194.505479698426,
            "responseTime": 1678830826615,
            "catchQuestion": "How many <b class=\"r\">red<\/b> marbles did your opponent report drawing? ",
            "catchKey": 50,
            "catchResponse": 50,
            "catchTime": 1678830826616,
            "trialTime": 0
        },
        {
            "exptPart": "trial",
            "trialNumber": 3,
            "roleCurrent": "sender",
            "marblesSampled": 100,
            "probRed": 0.5,
            "lambda": 5,
            "drawnRed": 59,
            "reportedRed": 59,
            "inferredRed": 57,
            "playerTrialScore": 0,
            "oppTrialScore": -2,
            "playerTotalScore": -3,
            "oppTotalScore": -2,
            "waitTime": 2138.727218657804,
            "responseTime": 1678830846543,
            "catchQuestion": "How many <b class=\"r\">red<\/b> marbles did your opponent report drawing? ",
            "catchKey": -1,
            "catchResponse": -1,
            "catchTime": 1678830826616,
            "trialTime": 0
        },
        {
            "exptPart": "trial",
            "trialNumber": 4,
            "roleCurrent": "receiver",
            "marblesSampled": 100,
            "probRed": 0.5,
            "lambda": 5,
            "drawnRed": 74,
            "reportedRed": 79,
            "inferredRed": 30,
            "playerTrialScore": -44,
            "oppTrialScore": 0,
            "playerTotalScore": -47,
            "oppTotalScore": -2,
            "waitTime": 5537.997597288719,
            "responseTime": 1678830871293,
            "catchQuestion": "How many <b class=\"r\">red<\/b> marbles did your opponent report drawing? ",
            "catchKey": -1,
            "catchResponse": -1,
            "catchTime": 1678830826616,
            "trialTime": 0
        },
        {
            "exptPart": "trial",
            "trialNumber": 5,
            "roleCurrent": "sender",
            "marblesSampled": 100,
            "probRed": 0.5,
            "lambda": 5,
            "drawnRed": 64,
            "reportedRed": 64,
            "inferredRed": 57,
            "playerTrialScore": 0,
            "oppTrialScore": -7,
            "playerTotalScore": -47,
            "oppTotalScore": -9,
            "waitTime": 2804.0902233411252,
            "responseTime": 1678830884299,
            "catchQuestion": "How many <b class=\"r\">red<\/b> marbles did your opponent report drawing? ",
            "catchKey": -1,
            "catchResponse": -1,
            "catchTime": 1678830884299,
            "trialTime": 0
        },
        {
            "exptPart": "trial",
            "trialNumber": 6,
            "roleCurrent": "receiver",
            "marblesSampled": 100,
            "probRed": 0.5,
            "lambda": 5,
            "drawnRed": 32,
            "reportedRed": 39,
            "inferredRed": 30,
            "playerTrialScore": -2,
            "oppTrialScore": 0,
            "playerTotalScore": -49,
            "oppTotalScore": -9,
            "waitTime": 5894.778091937575,
            "responseTime": 1678830906743,
            "catchQuestion": "How many <b class=\"r\">red<\/b> marbles did your opponent report drawing? ",
            "catchKey": -1,
            "catchResponse": -1,
            "catchTime": 1678830884299,
            "trialTime": 0
        },
        {
            "exptPart": "trial",
            "trialNumber": 7,
            "roleCurrent": "sender",
            "marblesSampled": 100,
            "probRed": 0.5,
            "lambda": 5,
            "drawnRed": 52,
            "reportedRed": 52,
            "inferredRed": 42,
            "playerTrialScore": 0,
            "oppTrialScore": -10,
            "playerTotalScore": -49,
            "oppTotalScore": -19,
            "waitTime": 3182.6082878871325,
            "responseTime": 1678830919866,
            "catchQuestion": "How many <b class=\"r\">red<\/b> marbles did your opponent report drawing? ",
            "catchKey": -1,
            "catchResponse": -1,
            "catchTime": 1678830884299,
            "trialTime": 0
        },
        {
            "exptPart": "trial",
            "trialNumber": 8,
            "roleCurrent": "receiver",
            "marblesSampled": 100,
            "probRed": 0.5,
            "lambda": 5,
            "drawnRed": 23,
            "reportedRed": 27,
            "inferredRed": 27,
            "playerTrialScore": -4,
            "oppTrialScore": 4,
            "playerTotalScore": -53,
            "oppTotalScore": -15,
            "waitTime": 5145.984901543039,
            "responseTime": 1678830935159,
            "catchQuestion": "How many <b class=\"r\">red<\/b> marbles did your opponent report drawing? ",
            "catchKey": -1,
            "catchResponse": -1,
            "catchTime": 1678830884299,
            "trialTime": 0
        },
        {
            "exptPart": "trial",
            "trialNumber": 9,
            "roleCurrent": "sender",
            "marblesSampled": 100,
            "probRed": 0.5,
            "lambda": 5,
            "drawnRed": 35,
            "reportedRed": 35,
            "inferredRed": 25,
            "playerTrialScore": 0,
            "oppTrialScore": -10,
            "playerTotalScore": -53,
            "oppTotalScore": -25,
            "waitTime": 2072.9405501409574,
            "responseTime": 1678830950593,
            "catchQuestion": "How many <b class=\"r\">red<\/b> marbles did your opponent report drawing? ",
            "catchKey": -1,
            "catchResponse": -1,
            "catchTime": 1678830884299,
            "trialTime": 0
        },
        {
            "exptPart": "trial",
            "trialNumber": 10,
            "roleCurrent": "receiver",
            "marblesSampled": 100,
            "probRed": 0.5,
            "lambda": 5,
            "drawnRed": 40,
            "reportedRed": 46,
            "inferredRed": 40,
            "playerTrialScore": 0,
            "oppTrialScore": 0,
            "playerTotalScore": -53,
            "oppTotalScore": -25,
            "waitTime": 6157.585081126825,
            "responseTime": 1678830992997,
            "catchQuestion": "How many <b class=\"r\">red<\/b> marbles did your opponent report drawing? ",
            "catchKey": -1,
            "catchResponse": -1,
            "catchTime": 1678830992997,
            "trialTime": 0
        },
        {
            "exptPart": "trial",
            "trialNumber": 11,
            "roleCurrent": "sender",
            "marblesSampled": 100,
            "probRed": 0.5,
            "lambda": 5,
            "drawnRed": 92,
            "reportedRed": 87,
            "inferredRed": 84,
            "playerTrialScore": 0,
            "oppTrialScore": -8,
            "playerTotalScore": -53,
            "oppTotalScore": -33,
            "waitTime": 2579.5622814388894,
            "responseTime": 1678831032653,
            "catchQuestion": "How many <b class=\"r\">red<\/b> marbles did your opponent report drawing? ",
            "catchKey": -1,
            "catchResponse": -1,
            "catchTime": 1678830992997,
            "trialTime": 0
        },
        {
            "exptPart": "trial",
            "trialNumber": 12,
            "roleCurrent": "receiver",
            "marblesSampled": 100,
            "probRed": 0.5,
            "lambda": 5,
            "drawnRed": 80,
            "reportedRed": 86,
            "inferredRed": 86,
            "playerTrialScore": -6,
            "oppTrialScore": 6,
            "playerTotalScore": -59,
            "oppTotalScore": -27,
            "waitTime": 5536.0325159612175,
            "responseTime": 1678831056302,
            "catchQuestion": "How many <b class=\"r\">red<\/b> marbles did your opponent report drawing? ",
            "catchKey": -1,
            "catchResponse": -1,
            "catchTime": 1678830992997,
            "trialTime": 0
        },
        {
            "exptPart": "trial",
            "trialNumber": 13,
            "roleCurrent": "sender",
            "marblesSampled": 100,
            "probRed": 0.5,
            "lambda": 5,
            "drawnRed": 18,
            "reportedRed": 16,
            "inferredRed": 14,
            "playerTrialScore": 0,
            "oppTrialScore": -4,
            "playerTotalScore": -59,
            "oppTotalScore": -31,
            "waitTime": 2149.362666961306,
            "responseTime": 1678831258697,
            "catchQuestion": "How many <b class=\"r\">red<\/b> marbles did your opponent report drawing? ",
            "catchKey": -1,
            "catchResponse": -1,
            "catchTime": 1678830992997,
            "trialTime": 0
        },
        {
            "exptPart": "trial",
            "trialNumber": 14,
            "roleCurrent": "receiver",
            "marblesSampled": 100,
            "probRed": 0.5,
            "lambda": 5,
            "drawnRed": 70,
            "reportedRed": 77,
            "inferredRed": 88,
            "playerTrialScore": -18,
            "oppTrialScore": 18,
            "playerTotalScore": -77,
            "oppTotalScore": -13,
            "waitTime": 5297.6255174861335,
            "responseTime": 1678831270263,
            "catchQuestion": "How many <b class=\"r\">red<\/b> marbles did your opponent report drawing? ",
            "catchKey": -1,
            "catchResponse": -1,
            "catchTime": 1678830992997,
            "trialTime": 0
        },
        {
            "exptPart": "trial",
            "trialNumber": 15,
            "roleCurrent": "sender",
            "marblesSampled": 100,
            "probRed": 0.5,
            "lambda": 5,
            "drawnRed": 10,
            "reportedRed": 7,
            "inferredRed": 0,
            "playerTrialScore": 0,
            "oppTrialScore": -10,
            "playerTotalScore": -77,
            "oppTotalScore": -23,
            "waitTime": 2612.1396610098845,
            "responseTime": 1678831298319,
            "catchQuestion": "How many <b class=\"r\">red<\/b> marbles did your opponent report drawing? ",
            "catchKey": -1,
            "catchResponse": -1,
            "catchTime": 1678831298319,
            "trialTime": 0
        },
        {
            "exptPart": "trial",
            "trialNumber": 16,
            "roleCurrent": "receiver",
            "marblesSampled": 100,
            "probRed": 0.5,
            "lambda": 5,
            "drawnRed": 41,
            "reportedRed": 44,
            "inferredRed": 50,
            "playerTrialScore": -9,
            "oppTrialScore": 9,
            "playerTotalScore": -86,
            "oppTotalScore": -14,
            "waitTime": 5966.974809940239,
            "responseTime": 1678831320674,
            "catchQuestion": "How many <b class=\"r\">red<\/b> marbles did your opponent report drawing? ",
            "catchKey": -1,
            "catchResponse": -1,
            "catchTime": 1678831298319,
            "trialTime": 0
        },
        {
            "exptPart": "trial",
            "trialNumber": 17,
            "roleCurrent": "sender",
            "marblesSampled": 100,
            "probRed": 0.5,
            "lambda": 5,
            "drawnRed": 80,
            "reportedRed": 74,
            "inferredRed": 69,
            "playerTrialScore": 0,
            "oppTrialScore": -11,
            "playerTotalScore": -86,
            "oppTotalScore": -25,
            "waitTime": 2382.1635886817985,
            "responseTime": 1678831363079,
            "catchQuestion": "How many <b class=\"r\">red<\/b> marbles did you actually draw (before any changes)? ",
            "catchKey": 80,
            "catchResponse": 80,
            "catchTime": 1678831363079,
            "trialTime": 0
        },
        {
            "exptPart": "trial",
            "trialNumber": 18,
            "roleCurrent": "receiver",
            "marblesSampled": 100,
            "probRed": 0.5,
            "lambda": 5,
            "drawnRed": 35,
            "reportedRed": 39,
            "inferredRed": 39,
            "playerTrialScore": -4,
            "oppTrialScore": 4,
            "playerTotalScore": -90,
            "oppTotalScore": -21,
            "waitTime": 5218.064255279397,
            "responseTime": 1678831400661,
            "catchQuestion": "How many <b class=\"r\">red<\/b> marbles did you actually draw (before any changes)? ",
            "catchKey": -1,
            "catchResponse": -1,
            "catchTime": 1678831363079,
            "trialTime": 0
        },
        {
            "exptPart": "trial",
            "trialNumber": 19,
            "roleCurrent": "sender",
            "marblesSampled": 100,
            "probRed": 0.5,
            "lambda": 5,
            "drawnRed": 64,
            "reportedRed": 63,
            "inferredRed": 62,
            "playerTrialScore": 0,
            "oppTrialScore": -2,
            "playerTotalScore": -90,
            "oppTotalScore": -23,
            "waitTime": 2679.0920840882363,
            "responseTime": 1678831411871,
            "catchQuestion": "How many <b class=\"r\">red<\/b> marbles did you actually draw (before any changes)? ",
            "catchKey": -1,
            "catchResponse": -1,
            "catchTime": 1678831363079,
            "trialTime": 0
        },
        {
            "exptPart": "trial",
            "trialNumber": 20,
            "roleCurrent": "receiver",
            "marblesSampled": 100,
            "probRed": 0.5,
            "lambda": 5,
            "drawnRed": 67,
            "reportedRed": 72,
            "inferredRed": 76,
            "playerTrialScore": -9,
            "oppTrialScore": 9,
            "playerTotalScore": -99,
            "oppTotalScore": -14,
            "waitTime": 7322.473362625506,
            "responseTime": 1678831428890,
            "catchQuestion": "How many <b class=\"r\">red<\/b> marbles did you actually draw (before any changes)? ",
            "catchKey": -1,
            "catchResponse": -1,
            "catchTime": 1678831428890,
            "trialTime": 0
        },
        {
            "exptPart": "trial",
            "trialNumber": 21,
            "roleCurrent": "sender",
            "marblesSampled": 100,
            "probRed": 0.5,
            "lambda": 5,
            "drawnRed": 59,
            "reportedRed": 55,
            "inferredRed": 45,
            "playerTrialScore": 0,
            "oppTrialScore": -14,
            "playerTotalScore": -99,
            "oppTotalScore": -28,
            "waitTime": 2189.488924579824,
            "responseTime": 1678831481737,
            "catchQuestion": "How many <b class=\"r\">red<\/b> marbles did you actually draw (before any changes)? ",
            "catchKey": -1,
            "catchResponse": -1,
            "catchTime": 1678831428890,
            "trialTime": 0
        },
        {
            "exptPart": "trial",
            "trialNumber": 22,
            "roleCurrent": "receiver",
            "marblesSampled": 100,
            "probRed": 0.5,
            "lambda": 5,
            "drawnRed": 38,
            "reportedRed": 40,
            "inferredRed": 39,
            "playerTrialScore": -1,
            "oppTrialScore": 1,
            "playerTotalScore": -100,
            "oppTotalScore": -27,
            "waitTime": 5403.904795705203,
            "responseTime": 1678831516330,
            "catchQuestion": "How many <b class=\"r\">red<\/b> marbles did you actually draw (before any changes)? ",
            "catchKey": -1,
            "catchResponse": -1,
            "catchTime": 1678831428890,
            "trialTime": 0
        },
        {
            "exptPart": "trial",
            "trialNumber": 23,
            "roleCurrent": "sender",
            "marblesSampled": 100,
            "probRed": 0.5,
            "lambda": 5,
            "drawnRed": 58,
            "reportedRed": 54,
            "inferredRed": 44,
            "playerTrialScore": 0,
            "oppTrialScore": -14,
            "playerTotalScore": -100,
            "oppTotalScore": -41,
            "waitTime": 3091.2532213318113,
            "responseTime": 1678831543231,
            "catchQuestion": "How many <b class=\"r\">red<\/b> marbles did you actually draw (before any changes)? ",
            "catchKey": -1,
            "catchResponse": -1,
            "catchTime": 1678831428890,
            "trialTime": 0
        },
        {
            "exptPart": "trial",
            "trialNumber": 24,
            "roleCurrent": "receiver",
            "marblesSampled": 100,
            "probRed": 0.5,
            "lambda": 5,
            "drawnRed": 56,
            "reportedRed": 65,
            "inferredRed": 64,
            "playerTrialScore": -8,
            "oppTrialScore": 8,
            "playerTotalScore": -108,
            "oppTotalScore": -33,
            "waitTime": 5226.765246673165,
            "responseTime": 1678831562821,
            "catchQuestion": "How many <b class=\"r\">red<\/b> marbles did you actually draw (before any changes)? ",
            "catchKey": -1,
            "catchResponse": -1,
            "catchTime": 1678831428890,
            "trialTime": 0
        },
        {
            "exptPart": "trial",
            "trialNumber": 25,
            "roleCurrent": "sender",
            "marblesSampled": 100,
            "probRed": 0.5,
            "lambda": 5,
            "drawnRed": 63,
            "reportedRed": 63,
            "inferredRed": 58,
            "playerTrialScore": 0,
            "oppTrialScore": -5,
            "playerTotalScore": -108,
            "oppTotalScore": -38,
            "waitTime": 2469.558334810276,
            "responseTime": 1678831569423,
            "catchQuestion": "How many <b class=\"r\">red<\/b> marbles did you actually draw (before any changes)? ",
            "catchKey": -1,
            "catchResponse": -1,
            "catchTime": 1678831569423,
            "trialTime": 0
        },
        {
            "exptPart": "trial",
            "trialNumber": 26,
            "roleCurrent": "receiver",
            "marblesSampled": 100,
            "probRed": 0.5,
            "lambda": 5,
            "drawnRed": 36,
            "reportedRed": 41,
            "inferredRed": 39,
            "playerTrialScore": -3,
            "oppTrialScore": 3,
            "playerTotalScore": -111,
            "oppTotalScore": -35,
            "waitTime": 5207.839160672502,
            "responseTime": 1678831585597,
            "catchQuestion": "How many <b class=\"r\">red<\/b> marbles did you actually draw (before any changes)? ",
            "catchKey": -1,
            "catchResponse": -1,
            "catchTime": 1678831569423,
            "trialTime": 0
        },
        {
            "exptPart": "trial",
            "trialNumber": 27,
            "roleCurrent": "sender",
            "marblesSampled": 100,
            "probRed": 0.5,
            "lambda": 5,
            "drawnRed": 64,
            "reportedRed": 64,
            "inferredRed": 60,
            "playerTrialScore": 0,
            "oppTrialScore": -4,
            "playerTotalScore": -111,
            "oppTotalScore": -39,
            "waitTime": 2923.9577914274387,
            "responseTime": 1678831633527,
            "catchQuestion": "How many <b class=\"r\">red<\/b> marbles did you actually draw (before any changes)? ",
            "catchKey": -1,
            "catchResponse": -1,
            "catchTime": 1678831569423,
            "trialTime": 0
        },
        {
            "exptPart": "trial",
            "trialNumber": 28,
            "roleCurrent": "receiver",
            "marblesSampled": 100,
            "probRed": 0.5,
            "lambda": 5,
            "drawnRed": 40,
            "reportedRed": 43,
            "inferredRed": 43,
            "playerTrialScore": -3,
            "oppTrialScore": 3,
            "playerTotalScore": -114,
            "oppTotalScore": -36,
            "waitTime": 5408.419554451206,
            "responseTime": 1678831657793,
            "catchQuestion": "How many <b class=\"r\">red<\/b> marbles did you actually draw (before any changes)? ",
            "catchKey": -1,
            "catchResponse": -1,
            "catchTime": 1678831569423,
            "trialTime": 0
        },
        {
            "exptPart": "trial",
            "trialNumber": 29,
            "roleCurrent": "sender",
            "marblesSampled": 100,
            "probRed": 0.5,
            "lambda": 5,
            "drawnRed": 6,
            "reportedRed": 6,
            "inferredRed": 1,
            "playerTrialScore": 0,
            "oppTrialScore": -5,
            "playerTotalScore": -114,
            "oppTotalScore": -41,
            "waitTime": 2674.058248176678,
            "responseTime": 1678831666797,
            "catchQuestion": "How many <b class=\"r\">red<\/b> marbles did you actually draw (before any changes)? ",
            "catchKey": 6,
            "catchResponse": 6,
            "catchTime": 1678831666797,
            "trialTime": 0
        },
        {
            "exptPart": "trial",
            "trialNumber": 30,
            "roleCurrent": "receiver",
            "marblesSampled": 100,
            "probRed": 0.5,
            "lambda": 5,
            "drawnRed": 53,
            "reportedRed": 57,
            "inferredRed": 45,
            "playerTrialScore": -8,
            "oppTrialScore": 0,
            "playerTotalScore": -122,
            "oppTotalScore": -41,
            "waitTime": 5258.982219222128,
            "responseTime": 1678831688627,
            "catchQuestion": "How many <b class=\"r\">red<\/b> marbles did you actually draw (before any changes)? ",
            "catchKey": -1,
            "catchResponse": -1,
            "catchTime": 1678831688627,
            "trialTime": 0
        },
        {
            "exptPart": "trial",
            "trialNumber": 31,
            "roleCurrent": "sender",
            "marblesSampled": 100,
            "probRed": 0.5,
            "lambda": 5,
            "drawnRed": 68,
            "reportedRed": 68,
            "inferredRed": 65,
            "playerTrialScore": 0,
            "oppTrialScore": -3,
            "playerTotalScore": -122,
            "oppTotalScore": -44,
            "waitTime": 2443.437467028155,
            "responseTime": 1678831726171,
            "catchQuestion": "How many <b class=\"r\">red<\/b> marbles did you actually draw (before any changes)? ",
            "catchKey": -1,
            "catchResponse": -1,
            "catchTime": 1678831688627,
            "trialTime": 0
        },
        {
            "exptPart": "trial",
            "trialNumber": 32,
            "roleCurrent": "receiver",
            "marblesSampled": 100,
            "probRed": 0.5,
            "lambda": 5,
            "drawnRed": 69,
            "reportedRed": 73,
            "inferredRed": 73,
            "playerTrialScore": -4,
            "oppTrialScore": 4,
            "playerTotalScore": -126,
            "oppTotalScore": -40,
            "waitTime": 5589.118272181738,
            "responseTime": 1678831767053,
            "catchQuestion": "How many <b class=\"r\">red<\/b> marbles did you actually draw (before any changes)? ",
            "catchKey": -1,
            "catchResponse": -1,
            "catchTime": 1678831688627,
            "trialTime": 0
        },
        {
            "exptPart": "trial",
            "trialNumber": 33,
            "roleCurrent": "sender",
            "marblesSampled": 100,
            "probRed": 0.5,
            "lambda": 5,
            "drawnRed": 14,
            "reportedRed": 14,
            "inferredRed": 5,
            "playerTrialScore": 0,
            "oppTrialScore": -9,
            "playerTotalScore": -126,
            "oppTotalScore": -49,
            "waitTime": 2373.8438442434162,
            "responseTime": 1678831775050,
            "catchQuestion": "How many <b class=\"r\">red<\/b> marbles did you actually draw (before any changes)? ",
            "catchKey": -1,
            "catchResponse": -1,
            "catchTime": 1678831688627,
            "trialTime": 0
        },
        {
            "exptPart": "trial",
            "trialNumber": 34,
            "roleCurrent": "receiver",
            "marblesSampled": 100,
            "probRed": 0.5,
            "lambda": 5,
            "drawnRed": 38,
            "reportedRed": 39,
            "inferredRed": 39,
            "playerTrialScore": -1,
            "oppTrialScore": 1,
            "playerTotalScore": -127,
            "oppTotalScore": -48,
            "waitTime": 5779.78995075876,
            "responseTime": 1678831784606,
            "catchQuestion": "How many <b class=\"r\">red<\/b> marbles did you actually draw (before any changes)? ",
            "catchKey": -1,
            "catchResponse": -1,
            "catchTime": 1678831688627,
            "trialTime": 0
        },
        {
            "exptPart": "trial",
            "trialNumber": 35,
            "roleCurrent": "sender",
            "marblesSampled": 100,
            "probRed": 0.5,
            "lambda": 5,
            "drawnRed": 61,
            "reportedRed": 61,
            "inferredRed": 55,
            "playerTrialScore": 0,
            "oppTrialScore": -6,
            "playerTotalScore": -127,
            "oppTotalScore": -54,
            "waitTime": 2646.045831985627,
            "responseTime": 1678831795988,
            "catchQuestion": "How many <b class=\"r\">red<\/b> marbles did you actually draw (before any changes)? ",
            "catchKey": -1,
            "catchResponse": -1,
            "catchTime": 1678831795988,
            "trialTime": 0
        },
        {
            "exptPart": "trial",
            "trialNumber": 36,
            "roleCurrent": "receiver",
            "marblesSampled": 100,
            "probRed": 0.5,
            "lambda": 5,
            "drawnRed": 69,
            "reportedRed": 72,
            "inferredRed": 72,
            "playerTrialScore": -3,
            "oppTrialScore": 3,
            "playerTotalScore": -130,
            "oppTotalScore": -51,
            "waitTime": 5533.291905992268,
            "responseTime": 1678831809189,
            "catchQuestion": "How many <b class=\"r\">red<\/b> marbles did you actually draw (before any changes)? ",
            "catchKey": -1,
            "catchResponse": -1,
            "catchTime": 1678831795988,
            "trialTime": 0
        },
        {
            "exptPart": "trial",
            "trialNumber": 37,
            "roleCurrent": "sender",
            "marblesSampled": 100,
            "probRed": 0.5,
            "lambda": 5,
            "drawnRed": 76,
            "reportedRed": 76,
            "inferredRed": 71,
            "playerTrialScore": 0,
            "oppTrialScore": -5,
            "playerTotalScore": -130,
            "oppTotalScore": -56,
            "waitTime": 3001.9957327871743,
            "responseTime": 1678831818523,
            "catchQuestion": "How many <b class=\"r\">red<\/b> marbles did you actually draw (before any changes)? ",
            "catchKey": -1,
            "catchResponse": -1,
            "catchTime": 1678831795988,
            "trialTime": 0
        },
        {
            "exptPart": "trial",
            "trialNumber": 38,
            "roleCurrent": "receiver",
            "marblesSampled": 100,
            "probRed": 0.5,
            "lambda": 5,
            "drawnRed": 38,
            "reportedRed": 48,
            "inferredRed": 48,
            "playerTrialScore": -10,
            "oppTrialScore": 10,
            "playerTotalScore": -140,
            "oppTotalScore": -46,
            "waitTime": 5575.4206298240515,
            "responseTime": 1678831851298,
            "catchQuestion": "How many <b class=\"r\">red<\/b> marbles did you actually draw (before any changes)? ",
            "catchKey": -1,
            "catchResponse": -1,
            "catchTime": 1678831795988,
            "trialTime": 0
        },
        {
            "exptPart": "trial",
            "trialNumber": 39,
            "roleCurrent": "sender",
            "marblesSampled": 100,
            "probRed": 0.5,
            "lambda": 5,
            "drawnRed": 21,
            "reportedRed": 21,
            "inferredRed": 17,
            "playerTrialScore": 0,
            "oppTrialScore": -4,
            "playerTotalScore": -140,
            "oppTotalScore": -50,
            "waitTime": 2454.813595439329,
            "responseTime": 1678831867113,
            "catchQuestion": "How many <b class=\"r\">red<\/b> marbles did you actually draw (before any changes)? ",
            "catchKey": -1,
            "catchResponse": -1,
            "catchTime": 1678831795988,
            "trialTime": 0
        },
        {
            "exptPart": "trial",
            "trialNumber": 40,
            "roleCurrent": "receiver",
            "marblesSampled": 100,
            "probRed": 0.5,
            "lambda": 5,
            "drawnRed": 24,
            "reportedRed": 31,
            "inferredRed": 31,
            "playerTrialScore": -7,
            "oppTrialScore": 7,
            "playerTotalScore": -147,
            "oppTotalScore": -43,
            "waitTime": 6141.219156545983,
            "responseTime": 1678831878708,
            "catchQuestion": "How many <b class=\"r\">red<\/b> marbles did you actually draw (before any changes)? ",
            "catchKey": -1,
            "catchResponse": -1,
            "catchTime": 1678831878708,
            "trialTime": 0
        },
        {
            "exptPart": "trial",
            "trialNumber": 41,
            "roleCurrent": "sender",
            "marblesSampled": 100,
            "probRed": 0.5,
            "lambda": 5,
            "drawnRed": 25,
            "reportedRed": 25,
            "inferredRed": 18,
            "playerTrialScore": 0,
            "oppTrialScore": -7,
            "playerTotalScore": -147,
            "oppTotalScore": -50,
            "waitTime": 2838.6459252615764,
            "responseTime": 1678831890879,
            "catchQuestion": "How many <b class=\"r\">red<\/b> marbles did you actually draw (before any changes)? ",
            "catchKey": -1,
            "catchResponse": -1,
            "catchTime": 1678831878708,
            "trialTime": 0
        },
        {
            "exptPart": "trial",
            "trialNumber": 42,
            "roleCurrent": "receiver",
            "marblesSampled": 100,
            "probRed": 0.5,
            "lambda": 5,
            "drawnRed": 53,
            "reportedRed": 57,
            "inferredRed": 57,
            "playerTrialScore": -4,
            "oppTrialScore": 4,
            "playerTotalScore": -151,
            "oppTotalScore": -46,
            "waitTime": 5393.155460223323,
            "responseTime": 1678831903188,
            "catchQuestion": "How many <b class=\"r\">red<\/b> marbles did your opponent report drawing? ",
            "catchKey": 57,
            "catchResponse": 21,
            "catchTime": 1678831903188,
            "trialTime": 0
        },
        {
            "exptPart": "trial",
            "trialNumber": 43,
            "roleCurrent": "sender",
            "marblesSampled": 100,
            "probRed": 0.5,
            "lambda": 5,
            "drawnRed": 24,
            "reportedRed": 24,
            "inferredRed": 18,
            "playerTrialScore": 0,
            "oppTrialScore": -6,
            "playerTotalScore": -151,
            "oppTotalScore": -52,
            "waitTime": 2463.45005814557,
            "responseTime": 1678831923201,
            "catchQuestion": "How many <b class=\"r\">red<\/b> marbles did your opponent report drawing? ",
            "catchKey": -1,
            "catchResponse": -1,
            "catchTime": 1678831903188,
            "trialTime": 0
        },
        {
            "exptPart": "trial",
            "trialNumber": 44,
            "roleCurrent": "receiver",
            "marblesSampled": 100,
            "probRed": 0.5,
            "lambda": 5,
            "drawnRed": 78,
            "reportedRed": 81,
            "inferredRed": 81,
            "playerTrialScore": -3,
            "oppTrialScore": 3,
            "playerTotalScore": -154,
            "oppTotalScore": -49,
            "waitTime": 6362.11983717752,
            "responseTime": 1678831934237,
            "catchQuestion": "How many <b class=\"r\">red<\/b> marbles did your opponent report drawing? ",
            "catchKey": -1,
            "catchResponse": -1,
            "catchTime": 1678831903188,
            "trialTime": 0
        },
        {
            "exptPart": "trial",
            "trialNumber": 45,
            "roleCurrent": "sender",
            "marblesSampled": 100,
            "probRed": 0.5,
            "lambda": 5,
            "drawnRed": 26,
            "reportedRed": 26,
            "inferredRed": 23,
            "playerTrialScore": 0,
            "oppTrialScore": -3,
            "playerTotalScore": -154,
            "oppTotalScore": -52,
            "waitTime": 2828.7389980059543,
            "responseTime": 1678831942298,
            "catchQuestion": "How many <b class=\"r\">red<\/b> marbles did your opponent report drawing? ",
            "catchKey": -1,
            "catchResponse": -1,
            "catchTime": 1678831942298,
            "trialTime": 0
        },
        {
            "exptPart": "trial",
            "trialNumber": 46,
            "roleCurrent": "receiver",
            "marblesSampled": 100,
            "probRed": 0.5,
            "lambda": 5,
            "drawnRed": 38,
            "reportedRed": 47,
            "inferredRed": 47,
            "playerTrialScore": -9,
            "oppTrialScore": 9,
            "playerTotalScore": -163,
            "oppTotalScore": -43,
            "waitTime": 5728.299961828592,
            "responseTime": 1678831958189,
            "catchQuestion": "How many <b class=\"r\">red<\/b> marbles did your opponent report drawing? ",
            "catchKey": -1,
            "catchResponse": -1,
            "catchTime": 1678831942298,
            "trialTime": 0
        },
        {
            "exptPart": "trial",
            "trialNumber": 47,
            "roleCurrent": "sender",
            "marblesSampled": 100,
            "probRed": 0.5,
            "lambda": 5,
            "drawnRed": 54,
            "reportedRed": 54,
            "inferredRed": 50,
            "playerTrialScore": 0,
            "oppTrialScore": -4,
            "playerTotalScore": -163,
            "oppTotalScore": -47,
            "waitTime": 2860.363703671799,
            "responseTime": 1678831966933,
            "catchQuestion": "How many <b class=\"r\">red<\/b> marbles did your opponent report drawing? ",
            "catchKey": -1,
            "catchResponse": -1,
            "catchTime": 1678831942298,
            "trialTime": 0
        },
        {
            "exptPart": "trial",
            "trialNumber": 48,
            "roleCurrent": "receiver",
            "marblesSampled": 100,
            "probRed": 0.5,
            "lambda": 5,
            "drawnRed": 47,
            "reportedRed": 51,
            "inferredRed": 51,
            "playerTrialScore": -4,
            "oppTrialScore": 4,
            "playerTotalScore": -167,
            "oppTotalScore": -43,
            "waitTime": 5894.659934525278,
            "responseTime": 1678831977716,
            "catchQuestion": "How many <b class=\"r\">red<\/b> marbles did your opponent report drawing? ",
            "catchKey": -1,
            "catchResponse": -1,
            "catchTime": 1678831942298,
            "trialTime": 0
        },
        {
            "exptPart": "trial",
            "trialNumber": 49,
            "roleCurrent": "sender",
            "marblesSampled": 100,
            "probRed": 0.5,
            "lambda": 5,
            "drawnRed": 54,
            "reportedRed": 50,
            "inferredRed": 42,
            "playerTrialScore": 0,
            "oppTrialScore": -12,
            "playerTotalScore": -167,
            "oppTotalScore": -55,
            "waitTime": 3095.508776691753,
            "responseTime": 1678832005457,
            "catchQuestion": "How many <b class=\"r\">red<\/b> marbles did your opponent report drawing? ",
            "catchKey": -1,
            "catchResponse": -1,
            "catchTime": 1678831942298,
            "trialTime": 0
        },
        {
            "exptPart": "trial",
            "trialNumber": 50,
            "roleCurrent": "receiver",
            "marblesSampled": 100,
            "probRed": 0.5,
            "lambda": 5,
            "drawnRed": 12,
            "reportedRed": 16,
            "inferredRed": 16,
            "playerTrialScore": -4,
            "oppTrialScore": 4,
            "playerTotalScore": -171,
            "oppTotalScore": -51,
            "waitTime": 5930.643179084231,
            "responseTime": 1678832027276,
            "catchQuestion": "How many <b class=\"r\">red<\/b> marbles did your opponent report drawing? ",
            "catchKey": -1,
            "catchResponse": -1,
            "catchTime": 1678832027277,
            "trialTime": 0
        },
        {
            "exptPart": "trial",
            "trialNumber": 51,
            "roleCurrent": "sender",
            "marblesSampled": 100,
            "probRed": 0.5,
            "lambda": 5,
            "drawnRed": 34,
            "reportedRed": 34,
            "inferredRed": 32,
            "playerTrialScore": 0,
            "oppTrialScore": -2,
            "playerTotalScore": -171,
            "oppTotalScore": -53,
            "waitTime": 2336.4195433392765,
            "responseTime": 1678832054674,
            "catchQuestion": "How many <b class=\"r\">red<\/b> marbles did your opponent report drawing? ",
            "catchKey": -1,
            "catchResponse": -1,
            "catchTime": 1678832027277,
            "trialTime": 0
        },
        {
            "exptPart": "trial",
            "trialNumber": 52,
            "roleCurrent": "receiver",
            "marblesSampled": 100,
            "probRed": 0.5,
            "lambda": 5,
            "drawnRed": 64,
            "reportedRed": 69,
            "inferredRed": 69,
            "playerTrialScore": -5,
            "oppTrialScore": 5,
            "playerTotalScore": -176,
            "oppTotalScore": -48,
            "waitTime": 5782.230117606803,
            "responseTime": 1678832066112,
            "catchQuestion": "How many <b class=\"r\">red<\/b> marbles did your opponent report drawing? ",
            "catchKey": 69,
            "catchResponse": 34,
            "catchTime": 1678832066112,
            "trialTime": 0
        },
        {
            "exptPart": "trial",
            "trialNumber": 53,
            "roleCurrent": "sender",
            "marblesSampled": 100,
            "probRed": 0.5,
            "lambda": 5,
            "drawnRed": 51,
            "reportedRed": 51,
            "inferredRed": 45,
            "playerTrialScore": 0,
            "oppTrialScore": -6,
            "playerTotalScore": -176,
            "oppTotalScore": -54,
            "waitTime": 2103.594847742802,
            "responseTime": 1678832093247,
            "catchQuestion": "How many <b class=\"r\">red<\/b> marbles did your opponent report drawing? ",
            "catchKey": -1,
            "catchResponse": -1,
            "catchTime": 1678832066112,
            "trialTime": 0
        },
        {
            "exptPart": "trial",
            "trialNumber": 54,
            "roleCurrent": "receiver",
            "marblesSampled": 100,
            "probRed": 0.5,
            "lambda": 5,
            "drawnRed": 51,
            "reportedRed": 57,
            "inferredRed": 57,
            "playerTrialScore": -6,
            "oppTrialScore": 6,
            "playerTotalScore": -182,
            "oppTotalScore": -48,
            "waitTime": 6842.790803846019,
            "responseTime": 1678832104875,
            "catchQuestion": "How many <b class=\"r\">red<\/b> marbles did your opponent report drawing? ",
            "catchKey": 57,
            "catchResponse": 57,
            "catchTime": 1678832104876,
            "trialTime": 0
        },
        {
            "exptPart": "trial",
            "trialNumber": 55,
            "roleCurrent": "sender",
            "marblesSampled": 100,
            "probRed": 0.5,
            "lambda": 5,
            "drawnRed": 58,
            "reportedRed": 58,
            "inferredRed": 51,
            "playerTrialScore": 0,
            "oppTrialScore": -7,
            "playerTotalScore": -182,
            "oppTotalScore": -55,
            "waitTime": 2301.9705874121687,
            "responseTime": 1678832195534,
            "catchQuestion": "How many <b class=\"r\">red<\/b> marbles did your opponent report drawing? ",
            "catchKey": -1,
            "catchResponse": -1,
            "catchTime": 1678832195534,
            "trialTime": 0
        },
        {
            "exptPart": "trial",
            "trialNumber": 56,
            "roleCurrent": "receiver",
            "marblesSampled": 100,
            "probRed": 0.5,
            "lambda": 5,
            "drawnRed": 81,
            "reportedRed": 88,
            "inferredRed": 88,
            "playerTrialScore": -7,
            "oppTrialScore": 7,
            "playerTotalScore": -189,
            "oppTotalScore": -48,
            "waitTime": 5804.756194835975,
            "responseTime": 1678832230520,
            "catchQuestion": "How many <b class=\"r\">red<\/b> marbles did your opponent report drawing? ",
            "catchKey": -1,
            "catchResponse": -1,
            "catchTime": 1678832195534,
            "trialTime": 0
        },
        {
            "exptPart": "trial",
            "trialNumber": 57,
            "roleCurrent": "sender",
            "marblesSampled": 100,
            "probRed": 0.5,
            "lambda": 5,
            "drawnRed": 20,
            "reportedRed": 20,
            "inferredRed": 16,
            "playerTrialScore": 0,
            "oppTrialScore": -4,
            "playerTotalScore": -189,
            "oppTotalScore": -52,
            "waitTime": 2066.96122148446,
            "responseTime": 1678832240037,
            "catchQuestion": "How many <b class=\"r\">red<\/b> marbles did your opponent report drawing? ",
            "catchKey": -1,
            "catchResponse": -1,
            "catchTime": 1678832195534,
            "trialTime": 0
        },
        {
            "exptPart": "trial",
            "trialNumber": 58,
            "roleCurrent": "receiver",
            "marblesSampled": 100,
            "probRed": 0.5,
            "lambda": 5,
            "drawnRed": 64,
            "reportedRed": 66,
            "inferredRed": 66,
            "playerTrialScore": -2,
            "oppTrialScore": 2,
            "playerTotalScore": -191,
            "oppTotalScore": -50,
            "waitTime": 5933.952085592302,
            "responseTime": 1678832254664,
            "catchQuestion": "How many <b class=\"r\">red<\/b> marbles did your opponent report drawing? ",
            "catchKey": -1,
            "catchResponse": -1,
            "catchTime": 1678832195534,
            "trialTime": 0
        },
        {
            "exptPart": "trial",
            "trialNumber": 59,
            "roleCurrent": "sender",
            "marblesSampled": 100,
            "probRed": 0.5,
            "lambda": 5,
            "drawnRed": 48,
            "reportedRed": 48,
            "inferredRed": 46,
            "playerTrialScore": 0,
            "oppTrialScore": -2,
            "playerTotalScore": -191,
            "oppTotalScore": -52,
            "waitTime": 2519.092422290565,
            "responseTime": 1678832300483,
            "catchQuestion": "How many <b class=\"r\">red<\/b> marbles did you actually draw (before any changes)? ",
            "catchKey": 48,
            "catchResponse": 48,
            "catchTime": 1678832300483,
            "trialTime": 0
        },
        {
            "exptPart": "trial",
            "trialNumber": 60,
            "roleCurrent": "receiver",
            "marblesSampled": 100,
            "probRed": 0.5,
            "lambda": 5,
            "drawnRed": 66,
            "reportedRed": 75,
            "inferredRed": 75,
            "playerTrialScore": -9,
            "oppTrialScore": 9,
            "playerTotalScore": -200,
            "oppTotalScore": -43,
            "waitTime": 6415.739091452623,
            "responseTime": 1678832332844,
            "catchQuestion": "How many <b class=\"r\">red<\/b> marbles did you actually draw (before any changes)? ",
            "catchKey": -1,
            "catchResponse": -1,
            "catchTime": 1678832332844,
            "trialTime": 0
        },
        {
            "exptPart": "trial",
            "trialNumber": 61,
            "roleCurrent": "sender",
            "marblesSampled": 100,
            "probRed": 0.5,
            "lambda": 5,
            "drawnRed": 15,
            "reportedRed": 15,
            "inferredRed": 9,
            "playerTrialScore": 0,
            "oppTrialScore": -6,
            "playerTotalScore": -200,
            "oppTotalScore": -49,
            "waitTime": 2136.096186318933,
            "responseTime": 1678832346868,
            "catchQuestion": "How many <b class=\"r\">red<\/b> marbles did you actually draw (before any changes)? ",
            "catchKey": -1,
            "catchResponse": -1,
            "catchTime": 1678832332844,
            "trialTime": 0
        },
        {
            "exptPart": "trial",
            "trialNumber": 62,
            "roleCurrent": "receiver",
            "marblesSampled": 100,
            "probRed": 0.5,
            "lambda": 5,
            "drawnRed": 40,
            "reportedRed": 47,
            "inferredRed": 47,
            "playerTrialScore": -7,
            "oppTrialScore": 7,
            "playerTotalScore": -207,
            "oppTotalScore": -42,
            "waitTime": 5319.827754483031,
            "responseTime": 1678832358414,
            "catchQuestion": "How many <b class=\"r\">red<\/b> marbles did you actually draw (before any changes)? ",
            "catchKey": -1,
            "catchResponse": -1,
            "catchTime": 1678832332844,
            "trialTime": 0
        },
        {
            "exptPart": "trial",
            "trialNumber": 63,
            "roleCurrent": "sender",
            "marblesSampled": 100,
            "probRed": 0.5,
            "lambda": 5,
            "drawnRed": 26,
            "reportedRed": 26,
            "inferredRed": 21,
            "playerTrialScore": 0,
            "oppTrialScore": -5,
            "playerTotalScore": -207,
            "oppTotalScore": -47,
            "waitTime": 2566.843125800203,
            "responseTime": 1678832367960,
            "catchQuestion": "How many <b class=\"r\">red<\/b> marbles did you actually draw (before any changes)? ",
            "catchKey": -1,
            "catchResponse": -1,
            "catchTime": 1678832332844,
            "trialTime": 0
        },
        {
            "exptPart": "trial",
            "trialNumber": 64,
            "roleCurrent": "receiver",
            "marblesSampled": 100,
            "probRed": 0.5,
            "lambda": 5,
            "drawnRed": 43,
            "reportedRed": 49,
            "inferredRed": 49,
            "playerTrialScore": -6,
            "oppTrialScore": 6,
            "playerTotalScore": -213,
            "oppTotalScore": -41,
            "waitTime": 5708.509471578423,
            "responseTime": 1678832378400,
            "catchQuestion": "How many <b class=\"r\">red<\/b> marbles did you actually draw (before any changes)? ",
            "catchKey": -1,
            "catchResponse": -1,
            "catchTime": 1678832332844,
            "trialTime": 0
        },
        {
            "exptPart": "trial",
            "trialNumber": 65,
            "roleCurrent": "sender",
            "marblesSampled": 100,
            "probRed": 0.5,
            "lambda": 5,
            "drawnRed": 60,
            "reportedRed": 60,
            "inferredRed": 56,
            "playerTrialScore": 0,
            "oppTrialScore": -4,
            "playerTotalScore": -213,
            "oppTotalScore": -45,
            "waitTime": 2582.8566192788267,
            "responseTime": 1678832386371,
            "catchQuestion": "How many <b class=\"r\">red<\/b> marbles did you actually draw (before any changes)? ",
            "catchKey": -1,
            "catchResponse": -1,
            "catchTime": 1678832386371,
            "trialTime": 0
        },
        {
            "exptPart": "trial",
            "trialNumber": 66,
            "roleCurrent": "receiver",
            "marblesSampled": 100,
            "probRed": 0.5,
            "lambda": 5,
            "drawnRed": 50,
            "reportedRed": 55,
            "inferredRed": 55,
            "playerTrialScore": -5,
            "oppTrialScore": 5,
            "playerTotalScore": -218,
            "oppTotalScore": -40,
            "waitTime": 5556.607440338936,
            "responseTime": 1678832397919,
            "catchQuestion": "How many <b class=\"r\">red<\/b> marbles did your opponent report drawing? ",
            "catchKey": 55,
            "catchResponse": 55,
            "catchTime": 1678832397919,
            "trialTime": 0
        },
        {
            "exptPart": "trial",
            "trialNumber": 67,
            "roleCurrent": "sender",
            "marblesSampled": 100,
            "probRed": 0.5,
            "lambda": 5,
            "drawnRed": 47,
            "reportedRed": 47,
            "inferredRed": 40,
            "playerTrialScore": 0,
            "oppTrialScore": -7,
            "playerTotalScore": -218,
            "oppTotalScore": -47,
            "waitTime": 2853.524072437357,
            "responseTime": 1678832423370,
            "catchQuestion": "How many <b class=\"r\">red<\/b> marbles did your opponent report drawing? ",
            "catchKey": -1,
            "catchResponse": -1,
            "catchTime": 1678832397919,
            "trialTime": 0
        },
        {
            "exptPart": "trial",
            "trialNumber": 68,
            "roleCurrent": "receiver",
            "marblesSampled": 100,
            "probRed": 0.5,
            "lambda": 5,
            "drawnRed": 43,
            "reportedRed": 47,
            "inferredRed": 47,
            "playerTrialScore": -4,
            "oppTrialScore": 4,
            "playerTotalScore": -222,
            "oppTotalScore": -43,
            "waitTime": 6171.568993022887,
            "responseTime": 1678832458253,
            "catchQuestion": "How many <b class=\"r\">red<\/b> marbles did your opponent report drawing? ",
            "catchKey": -1,
            "catchResponse": -1,
            "catchTime": 1678832397919,
            "trialTime": 0
        },
        {
            "exptPart": "trial",
            "trialNumber": 69,
            "roleCurrent": "sender",
            "marblesSampled": 100,
            "probRed": 0.5,
            "lambda": 5,
            "drawnRed": 78,
            "reportedRed": 78,
            "inferredRed": 73,
            "playerTrialScore": 0,
            "oppTrialScore": -5,
            "playerTotalScore": -222,
            "oppTotalScore": -48,
            "waitTime": 3083.884156490855,
            "responseTime": 1678832474216,
            "catchQuestion": "How many <b class=\"r\">red<\/b> marbles did your opponent report drawing? ",
            "catchKey": -1,
            "catchResponse": -1,
            "catchTime": 1678832397919,
            "trialTime": 0
        },
        {
            "exptPart": "trial",
            "trialNumber": 70,
            "roleCurrent": "receiver",
            "marblesSampled": 100,
            "probRed": 0.5,
            "lambda": 5,
            "drawnRed": 23,
            "reportedRed": 31,
            "inferredRed": 31,
            "playerTrialScore": -8,
            "oppTrialScore": 8,
            "playerTotalScore": -230,
            "oppTotalScore": -40,
            "waitTime": 5255.667639977681,
            "responseTime": 1678832483740,
            "catchQuestion": "How many <b class=\"r\">red<\/b> marbles did your opponent report drawing? ",
            "catchKey": -1,
            "catchResponse": -1,
            "catchTime": 1678832483740,
            "trialTime": 0
        },
        {
            "exptPart": "trial",
            "trialNumber": 71,
            "roleCurrent": "sender",
            "marblesSampled": 100,
            "probRed": 0.5,
            "lambda": 5,
            "drawnRed": 78,
            "reportedRed": 78,
            "inferredRed": 75,
            "playerTrialScore": 0,
            "oppTrialScore": -3,
            "playerTotalScore": -230,
            "oppTotalScore": -43,
            "waitTime": 2975.635880347604,
            "responseTime": 1678832494341,
            "catchQuestion": "How many <b class=\"r\">red<\/b> marbles did your opponent report drawing? ",
            "catchKey": -1,
            "catchResponse": -1,
            "catchTime": 1678832483740,
            "trialTime": 0
        },
        {
            "exptPart": "trial",
            "trialNumber": 72,
            "roleCurrent": "receiver",
            "marblesSampled": 100,
            "probRed": 0.5,
            "lambda": 5,
            "drawnRed": 22,
            "reportedRed": 31,
            "inferredRed": 31,
            "playerTrialScore": -9,
            "oppTrialScore": 9,
            "playerTotalScore": -239,
            "oppTotalScore": -34,
            "waitTime": 5692.789698324462,
            "responseTime": 1678832503774,
            "catchQuestion": "How many <b class=\"r\">red<\/b> marbles did your opponent report drawing? ",
            "catchKey": -1,
            "catchResponse": -1,
            "catchTime": 1678832483740,
            "trialTime": 0
        },
        {
            "exptPart": "trial",
            "trialNumber": 73,
            "roleCurrent": "sender",
            "marblesSampled": 100,
            "probRed": 0.5,
            "lambda": 5,
            "drawnRed": 59,
            "reportedRed": 59,
            "inferredRed": 52,
            "playerTrialScore": 0,
            "oppTrialScore": -7,
            "playerTotalScore": -239,
            "oppTotalScore": -41,
            "waitTime": 2112.0776968703212,
            "responseTime": 1678832512295,
            "catchQuestion": "How many <b class=\"r\">red<\/b> marbles did you actually draw (before any changes)? ",
            "catchKey": 59,
            "catchResponse": 59,
            "catchTime": 1678832512295,
            "trialTime": 0
        },
        {
            "exptPart": "trial",
            "trialNumber": 74,
            "roleCurrent": "receiver",
            "marblesSampled": 100,
            "probRed": 0.5,
            "lambda": 5,
            "drawnRed": 42,
            "reportedRed": 52,
            "inferredRed": 52,
            "playerTrialScore": -10,
            "oppTrialScore": 10,
            "playerTotalScore": -249,
            "oppTotalScore": -31,
            "waitTime": 5868.934739088836,
            "responseTime": 1678832530554,
            "catchQuestion": "How many <b class=\"r\">red<\/b> marbles did you actually draw (before any changes)? ",
            "catchKey": -1,
            "catchResponse": -1,
            "catchTime": 1678832512295,
            "trialTime": 0
        },
        {
            "exptPart": "trial",
            "trialNumber": 75,
            "roleCurrent": "sender",
            "marblesSampled": 100,
            "probRed": 0.5,
            "lambda": 5,
            "drawnRed": 41,
            "reportedRed": 41,
            "inferredRed": 40,
            "playerTrialScore": 0,
            "oppTrialScore": -1,
            "playerTotalScore": -249,
            "oppTotalScore": -32,
            "waitTime": 2226.7316976974043,
            "responseTime": 1678832545807,
            "catchQuestion": "How many <b class=\"r\">red<\/b> marbles did you actually draw (before any changes)? ",
            "catchKey": -1,
            "catchResponse": -1,
            "catchTime": 1678832545807,
            "trialTime": 0
        },
        {
            "exptPart": "trial",
            "trialNumber": 76,
            "roleCurrent": "receiver",
            "marblesSampled": 100,
            "probRed": 0.5,
            "lambda": 5,
            "drawnRed": 38,
            "reportedRed": 44,
            "inferredRed": 44,
            "playerTrialScore": -6,
            "oppTrialScore": 6,
            "playerTotalScore": -255,
            "oppTotalScore": -26,
            "waitTime": 6307.9161876292255,
            "responseTime": 1678832560856,
            "catchQuestion": "How many <b class=\"r\">red<\/b> marbles did you actually draw (before any changes)? ",
            "catchKey": -1,
            "catchResponse": -1,
            "catchTime": 1678832545807,
            "trialTime": 0
        },
        {
            "exptPart": "trial",
            "trialNumber": 77,
            "roleCurrent": "sender",
            "marblesSampled": 100,
            "probRed": 0.5,
            "lambda": 5,
            "drawnRed": 51,
            "reportedRed": 43,
            "inferredRed": 38,
            "playerTrialScore": 0,
            "oppTrialScore": -13,
            "playerTotalScore": -255,
            "oppTotalScore": -39,
            "waitTime": 2617.290035612393,
            "responseTime": 1678832581637,
            "catchQuestion": "How many <b class=\"r\">red<\/b> marbles did you actually draw (before any changes)? ",
            "catchKey": -1,
            "catchResponse": -1,
            "catchTime": 1678832545807,
            "trialTime": 0
        },
        {
            "exptPart": "trial",
            "trialNumber": 78,
            "roleCurrent": "receiver",
            "marblesSampled": 100,
            "probRed": 0.5,
            "lambda": 5,
            "drawnRed": 44,
            "reportedRed": 52,
            "inferredRed": 52,
            "playerTrialScore": -8,
            "oppTrialScore": 8,
            "playerTotalScore": -263,
            "oppTotalScore": -31,
            "waitTime": 5701.590621072606,
            "responseTime": 1678832592257,
            "catchQuestion": "How many <b class=\"r\">red<\/b> marbles did you actually draw (before any changes)? ",
            "catchKey": -1,
            "catchResponse": -1,
            "catchTime": 1678832545807,
            "trialTime": 0
        },
        {
            "exptPart": "trial",
            "trialNumber": 79,
            "roleCurrent": "sender",
            "marblesSampled": 100,
            "probRed": 0.5,
            "lambda": 5,
            "drawnRed": 59,
            "reportedRed": 51,
            "inferredRed": 46,
            "playerTrialScore": 0,
            "oppTrialScore": -13,
            "playerTotalScore": -263,
            "oppTotalScore": -44,
            "waitTime": 3210.7718997058173,
            "responseTime": 1678832618209,
            "catchQuestion": "How many <b class=\"r\">red<\/b> marbles did you actually draw (before any changes)? ",
            "catchKey": -1,
            "catchResponse": -1,
            "catchTime": 1678832545807,
            "trialTime": 0
        },
        {
            "exptPart": "trial",
            "trialNumber": 80,
            "roleCurrent": "receiver",
            "marblesSampled": 100,
            "probRed": 0.5,
            "lambda": 5,
            "drawnRed": 35,
            "reportedRed": 42,
            "inferredRed": 42,
            "playerTrialScore": -7,
            "oppTrialScore": 7,
            "playerTotalScore": -270,
            "oppTotalScore": -37,
            "waitTime": 6961.885314037824,
            "responseTime": 1678832630182,
            "catchQuestion": "How many <b class=\"r\">red<\/b> marbles did you actually draw (before any changes)? ",
            "catchKey": -1,
            "catchResponse": -1,
            "catchTime": 1678832630182,
            "trialTime": 0
        },
        {
            "exptPart": "trial",
            "trialNumber": 81,
            "roleCurrent": "sender",
            "marblesSampled": 100,
            "probRed": 0.5,
            "lambda": 5,
            "drawnRed": 83,
            "reportedRed": 76,
            "inferredRed": 73,
            "playerTrialScore": 0,
            "oppTrialScore": -10,
            "playerTotalScore": -270,
            "oppTotalScore": -47,
            "waitTime": 2618.2996046413837,
            "responseTime": 1678832650023,
            "catchQuestion": "How many <b class=\"r\">red<\/b> marbles did you actually draw (before any changes)? ",
            "catchKey": -1,
            "catchResponse": -1,
            "catchTime": 1678832630182,
            "trialTime": 0
        },
        {
            "exptPart": "trial",
            "trialNumber": 82,
            "roleCurrent": "receiver",
            "marblesSampled": 100,
            "probRed": 0.5,
            "lambda": 5,
            "drawnRed": 86,
            "reportedRed": 90,
            "inferredRed": 90,
            "playerTrialScore": -4,
            "oppTrialScore": 4,
            "playerTotalScore": -274,
            "oppTotalScore": -43,
            "waitTime": 5669.412639153201,
            "responseTime": 1678832667735,
            "catchQuestion": "How many <b class=\"r\">red<\/b> marbles did you actually draw (before any changes)? ",
            "catchKey": -1,
            "catchResponse": -1,
            "catchTime": 1678832630182,
            "trialTime": 0
        },
        {
            "exptPart": "trial",
            "trialNumber": 83,
            "roleCurrent": "sender",
            "marblesSampled": 100,
            "probRed": 0.5,
            "lambda": 5,
            "drawnRed": 35,
            "reportedRed": 45,
            "inferredRed": 41,
            "playerTrialScore": 6,
            "oppTrialScore": -6,
            "playerTotalScore": -268,
            "oppTotalScore": -49,
            "waitTime": 2321.7650368647846,
            "responseTime": 1678832695917,
            "catchQuestion": "How many <b class=\"r\">red<\/b> marbles did you actually draw (before any changes)? ",
            "catchKey": -1,
            "catchResponse": -1,
            "catchTime": 1678832630182,
            "trialTime": 0
        },
        {
            "exptPart": "trial",
            "trialNumber": 84,
            "roleCurrent": "receiver",
            "marblesSampled": 100,
            "probRed": 0.5,
            "lambda": 5,
            "drawnRed": 44,
            "reportedRed": 50,
            "inferredRed": 50,
            "playerTrialScore": -6,
            "oppTrialScore": 6,
            "playerTotalScore": -274,
            "oppTotalScore": -43,
            "waitTime": 7090.365799917299,
            "responseTime": 1678832708920,
            "catchQuestion": "How many <b class=\"r\">red<\/b> marbles did you actually draw (before any changes)? ",
            "catchKey": -1,
            "catchResponse": -1,
            "catchTime": 1678832630182,
            "trialTime": 0
        },
        {
            "exptPart": "trial",
            "trialNumber": 85,
            "roleCurrent": "sender",
            "marblesSampled": 100,
            "probRed": 0.5,
            "lambda": 5,
            "drawnRed": 60,
            "reportedRed": 60,
            "inferredRed": 56,
            "playerTrialScore": 0,
            "oppTrialScore": -4,
            "playerTotalScore": -274,
            "oppTotalScore": -47,
            "waitTime": 3090.029104031226,
            "responseTime": 1678832717074,
            "catchQuestion": "How many <b class=\"r\">red<\/b> marbles did you actually draw (before any changes)? ",
            "catchKey": -1,
            "catchResponse": -1,
            "catchTime": 1678832717074,
            "trialTime": 0
        },
        {
            "exptPart": "trial",
            "trialNumber": 86,
            "roleCurrent": "receiver",
            "marblesSampled": 100,
            "probRed": 0.5,
            "lambda": 5,
            "drawnRed": 85,
            "reportedRed": 87,
            "inferredRed": 87,
            "playerTrialScore": -2,
            "oppTrialScore": 2,
            "playerTotalScore": -276,
            "oppTotalScore": -45,
            "waitTime": 5774.373529822231,
            "responseTime": 1678832755747,
            "catchQuestion": "How many <b class=\"r\">red<\/b> marbles did you actually draw (before any changes)? ",
            "catchKey": -1,
            "catchResponse": -1,
            "catchTime": 1678832717074,
            "trialTime": 0
        },
        {
            "exptPart": "trial",
            "trialNumber": 87,
            "roleCurrent": "sender",
            "marblesSampled": 100,
            "probRed": 0.5,
            "lambda": 5,
            "drawnRed": 45,
            "reportedRed": 37,
            "inferredRed": 32,
            "playerTrialScore": 0,
            "oppTrialScore": -13,
            "playerTotalScore": -276,
            "oppTotalScore": -58,
            "waitTime": 2275.1655140185358,
            "responseTime": 1678832780169,
            "catchQuestion": "How many <b class=\"r\">red<\/b> marbles did you actually draw (before any changes)? ",
            "catchKey": -1,
            "catchResponse": -1,
            "catchTime": 1678832717074,
            "trialTime": 0
        },
        {
            "exptPart": "trial",
            "trialNumber": 88,
            "roleCurrent": "receiver",
            "marblesSampled": 100,
            "probRed": 0.5,
            "lambda": 5,
            "drawnRed": 45,
            "reportedRed": 45,
            "inferredRed": 45,
            "playerTrialScore": 0,
            "oppTrialScore": 0,
            "playerTotalScore": -276,
            "oppTotalScore": -58,
            "waitTime": 5861.56452254911,
            "responseTime": 1678832790069,
            "catchQuestion": "How many <b class=\"r\">red<\/b> marbles did you actually draw (before any changes)? ",
            "catchKey": -1,
            "catchResponse": -1,
            "catchTime": 1678832717074,
            "trialTime": 0
        },
        {
            "exptPart": "trial",
            "trialNumber": 89,
            "roleCurrent": "sender",
            "marblesSampled": 100,
            "probRed": 0.5,
            "lambda": 5,
            "drawnRed": 36,
            "reportedRed": 30,
            "inferredRed": 26,
            "playerTrialScore": 0,
            "oppTrialScore": -10,
            "playerTotalScore": -276,
            "oppTotalScore": -68,
            "waitTime": 2786.600325512266,
            "responseTime": 1678832811685,
            "catchQuestion": "How many <b class=\"r\">red<\/b> marbles did you actually draw (before any changes)? ",
            "catchKey": 36,
            "catchResponse": 36,
            "catchTime": 1678832811685,
            "trialTime": 0
        },
        {
            "exptPart": "trial",
            "trialNumber": 90,
            "roleCurrent": "receiver",
            "marblesSampled": 100,
            "probRed": 0.5,
            "lambda": 5,
            "drawnRed": 39,
            "reportedRed": 45,
            "inferredRed": 45,
            "playerTrialScore": -6,
            "oppTrialScore": 6,
            "playerTotalScore": -282,
            "oppTotalScore": -62,
            "waitTime": 5811.806303961762,
            "responseTime": 1678832830691,
            "catchQuestion": "How many <b class=\"r\">red<\/b> marbles did you actually draw (before any changes)? ",
            "catchKey": -1,
            "catchResponse": -1,
            "catchTime": 1678832830691,
            "trialTime": 0
        },
        {
            "exptPart": "trial",
            "trialNumber": 91,
            "roleCurrent": "sender",
            "marblesSampled": 100,
            "probRed": 0.5,
            "lambda": 5,
            "drawnRed": 33,
            "reportedRed": 31,
            "inferredRed": 26,
            "playerTrialScore": 0,
            "oppTrialScore": -7,
            "playerTotalScore": -282,
            "oppTotalScore": -69,
            "waitTime": 2116.8486303319105,
            "responseTime": 1678832851369,
            "catchQuestion": "How many <b class=\"r\">red<\/b> marbles did you actually draw (before any changes)? ",
            "catchKey": -1,
            "catchResponse": -1,
            "catchTime": 1678832830691,
            "trialTime": 0
        },
        {
            "exptPart": "trial",
            "trialNumber": 92,
            "roleCurrent": "receiver",
            "marblesSampled": 100,
            "probRed": 0.5,
            "lambda": 5,
            "drawnRed": 75,
            "reportedRed": 79,
            "inferredRed": 79,
            "playerTrialScore": -4,
            "oppTrialScore": 4,
            "playerTotalScore": -286,
            "oppTotalScore": -65,
            "waitTime": 5248.942415770114,
            "responseTime": 1678832871038,
            "catchQuestion": "How many <b class=\"r\">red<\/b> marbles did you actually draw (before any changes)? ",
            "catchKey": -1,
            "catchResponse": -1,
            "catchTime": 1678832830691,
            "trialTime": 0
        },
        {
            "exptPart": "trial",
            "trialNumber": 93,
            "roleCurrent": "sender",
            "marblesSampled": 100,
            "probRed": 0.5,
            "lambda": 5,
            "drawnRed": 34,
            "reportedRed": 26,
            "inferredRed": 22,
            "playerTrialScore": 0,
            "oppTrialScore": -12,
            "playerTotalScore": -286,
            "oppTotalScore": -77,
            "waitTime": 2497.937564896197,
            "responseTime": 1678832893852,
            "catchQuestion": "How many <b class=\"r\">red<\/b> marbles did you actually draw (before any changes)? ",
            "catchKey": -1,
            "catchResponse": -1,
            "catchTime": 1678832830691,
            "trialTime": 0
        },
        {
            "exptPart": "trial",
            "trialNumber": 94,
            "roleCurrent": "receiver",
            "marblesSampled": 100,
            "probRed": 0.5,
            "lambda": 5,
            "drawnRed": 55,
            "reportedRed": 62,
            "inferredRed": 62,
            "playerTrialScore": -7,
            "oppTrialScore": 7,
            "playerTotalScore": -293,
            "oppTotalScore": -70,
            "waitTime": 6219.506360985977,
            "responseTime": 1678832923148,
            "catchQuestion": "How many <b class=\"r\">red<\/b> marbles did you actually draw (before any changes)? ",
            "catchKey": -1,
            "catchResponse": -1,
            "catchTime": 1678832830691,
            "trialTime": 0
        },
        {
            "exptPart": "trial",
            "trialNumber": 95,
            "roleCurrent": "sender",
            "marblesSampled": 100,
            "probRed": 0.5,
            "lambda": 5,
            "drawnRed": 68,
            "reportedRed": 68,
            "inferredRed": 66,
            "playerTrialScore": 0,
            "oppTrialScore": -2,
            "playerTotalScore": -293,
            "oppTotalScore": -72,
            "waitTime": 2290.9899802772884,
            "responseTime": 1678832933492,
            "catchQuestion": "How many <b class=\"r\">red<\/b> marbles did you actually draw (before any changes)? ",
            "catchKey": -1,
            "catchResponse": -1,
            "catchTime": 1678832933492,
            "trialTime": 0
        },
        {
            "exptPart": "trial",
            "trialNumber": 96,
            "roleCurrent": "receiver",
            "marblesSampled": 100,
            "probRed": 0.5,
            "lambda": 5,
            "drawnRed": 25,
            "reportedRed": 32,
            "inferredRed": 32,
            "playerTrialScore": -7,
            "oppTrialScore": 7,
            "playerTotalScore": -300,
            "oppTotalScore": -65,
            "waitTime": 6058.432117797143,
            "responseTime": 1678832944961,
            "catchQuestion": "How many <b class=\"r\">red<\/b> marbles did you actually draw (before any changes)? ",
            "catchKey": -1,
            "catchResponse": -1,
            "catchTime": 1678832933492,
            "trialTime": 0
        },
        {
            "exptPart": "trial",
            "trialNumber": 97,
            "roleCurrent": "sender",
            "marblesSampled": 100,
            "probRed": 0.5,
            "lambda": 5,
            "drawnRed": 64,
            "reportedRed": 64,
            "inferredRed": 59,
            "playerTrialScore": 0,
            "oppTrialScore": -5,
            "playerTotalScore": -300,
            "oppTotalScore": -70,
            "waitTime": 3187.030237895415,
            "responseTime": 1678832955906,
            "catchQuestion": "How many <b class=\"r\">red<\/b> marbles did you actually draw (before any changes)? ",
            "catchKey": -1,
            "catchResponse": -1,
            "catchTime": 1678832933492,
            "trialTime": 0
        },
        {
            "exptPart": "trial",
            "trialNumber": 98,
            "roleCurrent": "receiver",
            "marblesSampled": 100,
            "probRed": 0.5,
            "lambda": 5,
            "drawnRed": 54,
            "reportedRed": 61,
            "inferredRed": 61,
            "playerTrialScore": -7,
            "oppTrialScore": 7,
            "playerTotalScore": -307,
            "oppTotalScore": -63,
            "waitTime": 6334.62371416883,
            "responseTime": 1678832970813,
            "catchQuestion": "How many <b class=\"r\">red<\/b> marbles did you actually draw (before any changes)? ",
            "catchKey": -1,
            "catchResponse": -1,
            "catchTime": 1678832933492,
            "trialTime": 0
        },
        {
            "exptPart": "trial",
            "trialNumber": 99,
            "roleCurrent": "sender",
            "marblesSampled": 100,
            "probRed": 0.5,
            "lambda": 5,
            "drawnRed": 37,
            "reportedRed": 37,
            "inferredRed": 33,
            "playerTrialScore": 0,
            "oppTrialScore": -4,
            "playerTotalScore": -307,
            "oppTotalScore": -67,
            "waitTime": 2340.4732367975294,
            "responseTime": 1678832982635,
            "catchQuestion": "How many <b class=\"r\">red<\/b> marbles did you actually draw (before any changes)? ",
            "catchKey": -1,
            "catchResponse": -1,
            "catchTime": 1678832933492,
            "trialTime": 0
        },
        {
            "exptPart": "trial",
            "trialNumber": 100,
            "roleCurrent": "receiver",
            "marblesSampled": 100,
            "probRed": 0.5,
            "lambda": 5,
            "drawnRed": 55,
            "reportedRed": 59,
            "inferredRed": 59,
            "playerTrialScore": -4,
            "oppTrialScore": 4,
            "playerTotalScore": -311,
            "oppTotalScore": -63,
            "waitTime": 7332.515389577322,
            "responseTime": 1678832993352,
            "catchQuestion": "How many <b class=\"r\">red<\/b> marbles did you actually draw (before any changes)? ",
            "catchKey": -1,
            "catchResponse": -1,
            "catchTime": 1678832993352,
            "trialTime": 0
        }
    ]
}