{
    "client": {
        "type": "sona",
        "experiment_id": 2228,
        "credit_token": "b315147ae43241ea9c65086cb510cfb7",
        "survey_code": "47922",
        "sid": "sona-47922",
        "window": {
            "width": 1440,
            "height": 789
        },
        "screen": {
            "width": 1440,
            "height": 900
        },
        "userAgent": "Mozilla\/5.0 (Macintosh; Intel Mac OS X 10_15_7) AppleWebKit\/537.36 (KHTML, like Gecko) Chrome\/108.0.0.0 Safari\/537.36",
        "score": 0,
        "bonus": 0
    },
    "expt": {
        "saveURL": "submit.simple.php",
        "trials": 100,
        "practiceTrials": 2,
        "marblesSampled": 100,
        "probRed": 0.5,
        "lambdaAI": 5,
        "roleFirst": "receiver",
        "roles": [
            "sender",
            "receiver"
        ],
        "cost": "unif",
        "goal": "over",
        "goalInstructTxt": "below",
        "catchTrials": [
            99,
            76,
            44,
            68,
            61,
            31,
            5,
            64,
            39,
            70
        ],
        "scoreTotal": {
            "player": -146,
            "opp": -236
        },
        "sona": {
            "experiment_id": 2228,
            "credit_token": "b315147ae43241ea9c65086cb510cfb7"
        },
        "pilot": false,
        "debug": false
    },
    "trials": [
        {
            "exptPart": "practice",
            "trialNumber": 1,
            "roleCurrent": "sender",
            "marblesSampled": 100,
            "probRed": 0.5,
            "lambda": 5,
            "drawnRed": 25,
            "reportedRed": 36,
            "inferredRed": 31,
            "playerTrialScore": 6,
            "oppTrialScore": -6,
            "playerTotalScore": 6,
            "oppTotalScore": -6,
            "waitTime": 2615.0977156256963,
            "responseTime": 1678827444095,
            "catchQuestion": "How many <b class=\"r\">red<\/b> marbles did you actually draw (before any changes)? ",
            "catchKey": 25,
            "catchResponse": 25,
            "catchTime": 1678827444095,
            "trialTime": 0
        },
        {
            "exptPart": "practice",
            "trialNumber": 2,
            "roleCurrent": "receiver",
            "marblesSampled": 100,
            "probRed": 0.5,
            "lambda": 5,
            "drawnRed": 36,
            "reportedRed": 39,
            "inferredRed": 40,
            "playerTrialScore": -4,
            "oppTrialScore": 4,
            "playerTotalScore": 2,
            "oppTotalScore": -2,
            "waitTime": 5250.41744746069,
            "responseTime": 1678827492578,
            "catchQuestion": "How many <b class=\"r\">red<\/b> marbles did your opponent report drawing? ",
            "catchKey": 39,
            "catchResponse": 39,
            "catchTime": 1678827492578,
            "trialTime": 0
        },
        {
            "exptPart": "trial",
            "trialNumber": 1,
            "roleCurrent": "receiver",
            "marblesSampled": 100,
            "probRed": 0.5,
            "lambda": 5,
            "drawnRed": 54,
            "reportedRed": 61,
            "inferredRed": 61,
            "playerTrialScore": -7,
            "oppTrialScore": 7,
            "playerTotalScore": -7,
            "oppTotalScore": 7,
            "waitTime": 5660.4814638393655,
            "responseTime": 1678827519094,
            "catchQuestion": "How many <b class=\"r\">red<\/b> marbles did your opponent report drawing? ",
            "catchKey": -1,
            "catchResponse": -1,
            "catchTime": 1678827492578,
            "trialTime": 0
        },
        {
            "exptPart": "trial",
            "trialNumber": 2,
            "roleCurrent": "sender",
            "marblesSampled": 100,
            "probRed": 0.5,
            "lambda": 5,
            "drawnRed": 52,
            "reportedRed": 62,
            "inferredRed": 54,
            "playerTrialScore": 2,
            "oppTrialScore": -2,
            "playerTotalScore": -5,
            "oppTotalScore": 5,
            "waitTime": 2297.5360909900555,
            "responseTime": 1678827536978,
            "catchQuestion": "How many <b class=\"r\">red<\/b> marbles did your opponent report drawing? ",
            "catchKey": -1,
            "catchResponse": -1,
            "catchTime": 1678827492578,
            "trialTime": 0
        },
        {
            "exptPart": "trial",
            "trialNumber": 3,
            "roleCurrent": "receiver",
            "marblesSampled": 100,
            "probRed": 0.5,
            "lambda": 5,
            "drawnRed": 59,
            "reportedRed": 64,
            "inferredRed": 60,
            "playerTrialScore": -1,
            "oppTrialScore": 1,
            "playerTotalScore": -6,
            "oppTotalScore": 6,
            "waitTime": 5709.281509278307,
            "responseTime": 1678827567044,
            "catchQuestion": "How many <b class=\"r\">red<\/b> marbles did your opponent report drawing? ",
            "catchKey": -1,
            "catchResponse": -1,
            "catchTime": 1678827492578,
            "trialTime": 0
        },
        {
            "exptPart": "trial",
            "trialNumber": 4,
            "roleCurrent": "sender",
            "marblesSampled": 100,
            "probRed": 0.5,
            "lambda": 5,
            "drawnRed": 60,
            "reportedRed": 83,
            "inferredRed": 80,
            "playerTrialScore": 20,
            "oppTrialScore": -20,
            "playerTotalScore": 14,
            "oppTotalScore": -14,
            "waitTime": 2938.6334470542133,
            "responseTime": 1678827595261,
            "catchQuestion": "How many <b class=\"r\">red<\/b> marbles did your opponent report drawing? ",
            "catchKey": -1,
            "catchResponse": -1,
            "catchTime": 1678827492578,
            "trialTime": 0
        },
        {
            "exptPart": "trial",
            "trialNumber": 5,
            "roleCurrent": "receiver",
            "marblesSampled": 100,
            "probRed": 0.5,
            "lambda": 5,
            "drawnRed": 36,
            "reportedRed": 41,
            "inferredRed": 30,
            "playerTrialScore": -6,
            "oppTrialScore": 0,
            "playerTotalScore": 8,
            "oppTotalScore": -14,
            "waitTime": 7300.701122738541,
            "responseTime": 1678827610795,
            "catchQuestion": "How many <b class=\"r\">red<\/b> marbles did your opponent report drawing? ",
            "catchKey": -1,
            "catchResponse": -1,
            "catchTime": 1678827610795,
            "trialTime": 0
        },
        {
            "exptPart": "trial",
            "trialNumber": 6,
            "roleCurrent": "sender",
            "marblesSampled": 100,
            "probRed": 0.5,
            "lambda": 5,
            "drawnRed": 50,
            "reportedRed": 65,
            "inferredRed": 60,
            "playerTrialScore": 10,
            "oppTrialScore": -10,
            "playerTotalScore": 18,
            "oppTotalScore": -24,
            "waitTime": 2830.7665034011616,
            "responseTime": 1678827690147,
            "catchQuestion": "How many <b class=\"r\">red<\/b> marbles did you actually draw (before any changes)? ",
            "catchKey": 50,
            "catchResponse": 25,
            "catchTime": 1678827690147,
            "trialTime": 0
        },
        {
            "exptPart": "trial",
            "trialNumber": 7,
            "roleCurrent": "receiver",
            "marblesSampled": 100,
            "probRed": 0.5,
            "lambda": 5,
            "drawnRed": 44,
            "reportedRed": 48,
            "inferredRed": 40,
            "playerTrialScore": -4,
            "oppTrialScore": 0,
            "playerTotalScore": 14,
            "oppTotalScore": -24,
            "waitTime": 5780.685211010427,
            "responseTime": 1678827711612,
            "catchQuestion": "How many <b class=\"r\">red<\/b> marbles did you actually draw (before any changes)? ",
            "catchKey": -1,
            "catchResponse": -1,
            "catchTime": 1678827690147,
            "trialTime": 0
        },
        {
            "exptPart": "trial",
            "trialNumber": 8,
            "roleCurrent": "sender",
            "marblesSampled": 100,
            "probRed": 0.5,
            "lambda": 5,
            "drawnRed": 50,
            "reportedRed": 58,
            "inferredRed": 53,
            "playerTrialScore": 3,
            "oppTrialScore": -3,
            "playerTotalScore": 17,
            "oppTotalScore": -27,
            "waitTime": 2987.3245515699896,
            "responseTime": 1678827727862,
            "catchQuestion": "How many <b class=\"r\">red<\/b> marbles did you actually draw (before any changes)? ",
            "catchKey": -1,
            "catchResponse": -1,
            "catchTime": 1678827690147,
            "trialTime": 0
        },
        {
            "exptPart": "trial",
            "trialNumber": 9,
            "roleCurrent": "receiver",
            "marblesSampled": 100,
            "probRed": 0.5,
            "lambda": 5,
            "drawnRed": 38,
            "reportedRed": 40,
            "inferredRed": 30,
            "playerTrialScore": -8,
            "oppTrialScore": 0,
            "playerTotalScore": 9,
            "oppTotalScore": -27,
            "waitTime": 5270.930009305879,
            "responseTime": 1678827736778,
            "catchQuestion": "How many <b class=\"r\">red<\/b> marbles did you actually draw (before any changes)? ",
            "catchKey": -1,
            "catchResponse": -1,
            "catchTime": 1678827690147,
            "trialTime": 0
        },
        {
            "exptPart": "trial",
            "trialNumber": 10,
            "roleCurrent": "sender",
            "marblesSampled": 100,
            "probRed": 0.5,
            "lambda": 5,
            "drawnRed": 26,
            "reportedRed": 30,
            "inferredRed": 25,
            "playerTrialScore": 0,
            "oppTrialScore": -1,
            "playerTotalScore": 9,
            "oppTotalScore": -28,
            "waitTime": 2251.756156910324,
            "responseTime": 1678827747278,
            "catchQuestion": "How many <b class=\"r\">red<\/b> marbles did you actually draw (before any changes)? ",
            "catchKey": -1,
            "catchResponse": -1,
            "catchTime": 1678827747278,
            "trialTime": 0
        },
        {
            "exptPart": "trial",
            "trialNumber": 11,
            "roleCurrent": "receiver",
            "marblesSampled": 100,
            "probRed": 0.5,
            "lambda": 5,
            "drawnRed": 67,
            "reportedRed": 70,
            "inferredRed": 60,
            "playerTrialScore": -7,
            "oppTrialScore": 0,
            "playerTotalScore": 2,
            "oppTotalScore": -28,
            "waitTime": 5701.5566952554855,
            "responseTime": 1678827761813,
            "catchQuestion": "How many <b class=\"r\">red<\/b> marbles did you actually draw (before any changes)? ",
            "catchKey": -1,
            "catchResponse": -1,
            "catchTime": 1678827747278,
            "trialTime": 0
        },
        {
            "exptPart": "trial",
            "trialNumber": 12,
            "roleCurrent": "sender",
            "marblesSampled": 100,
            "probRed": 0.5,
            "lambda": 5,
            "drawnRed": 20,
            "reportedRed": 20,
            "inferredRed": 16,
            "playerTrialScore": 0,
            "oppTrialScore": -4,
            "playerTotalScore": 2,
            "oppTotalScore": -32,
            "waitTime": 2482.325364619485,
            "responseTime": 1678827770911,
            "catchQuestion": "How many <b class=\"r\">red<\/b> marbles did you actually draw (before any changes)? ",
            "catchKey": -1,
            "catchResponse": -1,
            "catchTime": 1678827747278,
            "trialTime": 0
        },
        {
            "exptPart": "trial",
            "trialNumber": 13,
            "roleCurrent": "receiver",
            "marblesSampled": 100,
            "probRed": 0.5,
            "lambda": 5,
            "drawnRed": 43,
            "reportedRed": 50,
            "inferredRed": 50,
            "playerTrialScore": -7,
            "oppTrialScore": 7,
            "playerTotalScore": -5,
            "oppTotalScore": -25,
            "waitTime": 5980.628110270911,
            "responseTime": 1678827783466,
            "catchQuestion": "How many <b class=\"r\">red<\/b> marbles did you actually draw (before any changes)? ",
            "catchKey": -1,
            "catchResponse": -1,
            "catchTime": 1678827747278,
            "trialTime": 0
        },
        {
            "exptPart": "trial",
            "trialNumber": 14,
            "roleCurrent": "sender",
            "marblesSampled": 100,
            "probRed": 0.5,
            "lambda": 5,
            "drawnRed": 39,
            "reportedRed": 51,
            "inferredRed": 45,
            "playerTrialScore": 6,
            "oppTrialScore": -6,
            "playerTotalScore": 1,
            "oppTotalScore": -31,
            "waitTime": 2739.550719919269,
            "responseTime": 1678827796246,
            "catchQuestion": "How many <b class=\"r\">red<\/b> marbles did you actually draw (before any changes)? ",
            "catchKey": -1,
            "catchResponse": -1,
            "catchTime": 1678827747278,
            "trialTime": 0
        },
        {
            "exptPart": "trial",
            "trialNumber": 15,
            "roleCurrent": "receiver",
            "marblesSampled": 100,
            "probRed": 0.5,
            "lambda": 5,
            "drawnRed": 20,
            "reportedRed": 22,
            "inferredRed": 15,
            "playerTrialScore": -5,
            "oppTrialScore": 0,
            "playerTotalScore": -4,
            "oppTotalScore": -31,
            "waitTime": 5211.414941657829,
            "responseTime": 1678827804779,
            "catchQuestion": "How many <b class=\"r\">red<\/b> marbles did you actually draw (before any changes)? ",
            "catchKey": -1,
            "catchResponse": -1,
            "catchTime": 1678827804779,
            "trialTime": 0
        },
        {
            "exptPart": "trial",
            "trialNumber": 16,
            "roleCurrent": "sender",
            "marblesSampled": 100,
            "probRed": 0.5,
            "lambda": 5,
            "drawnRed": 45,
            "reportedRed": 62,
            "inferredRed": 61,
            "playerTrialScore": 16,
            "oppTrialScore": -16,
            "playerTotalScore": 12,
            "oppTotalScore": -47,
            "waitTime": 2967.688204387635,
            "responseTime": 1678827824312,
            "catchQuestion": "How many <b class=\"r\">red<\/b> marbles did you actually draw (before any changes)? ",
            "catchKey": -1,
            "catchResponse": -1,
            "catchTime": 1678827804779,
            "trialTime": 0
        },
        {
            "exptPart": "trial",
            "trialNumber": 17,
            "roleCurrent": "receiver",
            "marblesSampled": 100,
            "probRed": 0.5,
            "lambda": 5,
            "drawnRed": 33,
            "reportedRed": 37,
            "inferredRed": 30,
            "playerTrialScore": -3,
            "oppTrialScore": 0,
            "playerTotalScore": 9,
            "oppTotalScore": -47,
            "waitTime": 6264.665254934656,
            "responseTime": 1678827834131,
            "catchQuestion": "How many <b class=\"r\">red<\/b> marbles did you actually draw (before any changes)? ",
            "catchKey": -1,
            "catchResponse": -1,
            "catchTime": 1678827804779,
            "trialTime": 0
        },
        {
            "exptPart": "trial",
            "trialNumber": 18,
            "roleCurrent": "sender",
            "marblesSampled": 100,
            "probRed": 0.5,
            "lambda": 5,
            "drawnRed": 71,
            "reportedRed": 83,
            "inferredRed": 79,
            "playerTrialScore": 8,
            "oppTrialScore": -8,
            "playerTotalScore": 17,
            "oppTotalScore": -55,
            "waitTime": 2892.3777244869943,
            "responseTime": 1678827850462,
            "catchQuestion": "How many <b class=\"r\">red<\/b> marbles did you actually draw (before any changes)? ",
            "catchKey": -1,
            "catchResponse": -1,
            "catchTime": 1678827804779,
            "trialTime": 0
        },
        {
            "exptPart": "trial",
            "trialNumber": 19,
            "roleCurrent": "receiver",
            "marblesSampled": 100,
            "probRed": 0.5,
            "lambda": 5,
            "drawnRed": 40,
            "reportedRed": 50,
            "inferredRed": 35,
            "playerTrialScore": -5,
            "oppTrialScore": 0,
            "playerTotalScore": 12,
            "oppTotalScore": -55,
            "waitTime": 6609.04163055147,
            "responseTime": 1678827861013,
            "catchQuestion": "How many <b class=\"r\">red<\/b> marbles did you actually draw (before any changes)? ",
            "catchKey": -1,
            "catchResponse": -1,
            "catchTime": 1678827804779,
            "trialTime": 0
        },
        {
            "exptPart": "trial",
            "trialNumber": 20,
            "roleCurrent": "sender",
            "marblesSampled": 100,
            "probRed": 0.5,
            "lambda": 5,
            "drawnRed": 37,
            "reportedRed": 45,
            "inferredRed": 40,
            "playerTrialScore": 3,
            "oppTrialScore": -3,
            "playerTotalScore": 15,
            "oppTotalScore": -58,
            "waitTime": 2182.382784440968,
            "responseTime": 1678827874281,
            "catchQuestion": "How many <b class=\"r\">red<\/b> marbles did you actually draw (before any changes)? ",
            "catchKey": -1,
            "catchResponse": -1,
            "catchTime": 1678827874281,
            "trialTime": 0
        },
        {
            "exptPart": "trial",
            "trialNumber": 21,
            "roleCurrent": "receiver",
            "marblesSampled": 100,
            "probRed": 0.5,
            "lambda": 5,
            "drawnRed": 9,
            "reportedRed": 11,
            "inferredRed": 5,
            "playerTrialScore": -4,
            "oppTrialScore": 0,
            "playerTotalScore": 11,
            "oppTotalScore": -58,
            "waitTime": 6840.0428467978245,
            "responseTime": 1678827887513,
            "catchQuestion": "How many <b class=\"r\">red<\/b> marbles did you actually draw (before any changes)? ",
            "catchKey": -1,
            "catchResponse": -1,
            "catchTime": 1678827874281,
            "trialTime": 0
        },
        {
            "exptPart": "trial",
            "trialNumber": 22,
            "roleCurrent": "sender",
            "marblesSampled": 100,
            "probRed": 0.5,
            "lambda": 5,
            "drawnRed": 50,
            "reportedRed": 62,
            "inferredRed": 59,
            "playerTrialScore": 9,
            "oppTrialScore": -9,
            "playerTotalScore": 20,
            "oppTotalScore": -67,
            "waitTime": 2243.03296502947,
            "responseTime": 1678827900914,
            "catchQuestion": "How many <b class=\"r\">red<\/b> marbles did you actually draw (before any changes)? ",
            "catchKey": -1,
            "catchResponse": -1,
            "catchTime": 1678827874281,
            "trialTime": 0
        },
        {
            "exptPart": "trial",
            "trialNumber": 23,
            "roleCurrent": "receiver",
            "marblesSampled": 100,
            "probRed": 0.5,
            "lambda": 5,
            "drawnRed": 43,
            "reportedRed": 47,
            "inferredRed": 40,
            "playerTrialScore": -3,
            "oppTrialScore": 0,
            "playerTotalScore": 17,
            "oppTotalScore": -67,
            "waitTime": 6747.193216512842,
            "responseTime": 1678827911579,
            "catchQuestion": "How many <b class=\"r\">red<\/b> marbles did you actually draw (before any changes)? ",
            "catchKey": -1,
            "catchResponse": -1,
            "catchTime": 1678827874281,
            "trialTime": 0
        },
        {
            "exptPart": "trial",
            "trialNumber": 24,
            "roleCurrent": "sender",
            "marblesSampled": 100,
            "probRed": 0.5,
            "lambda": 5,
            "drawnRed": 61,
            "reportedRed": 71,
            "inferredRed": 65,
            "playerTrialScore": 4,
            "oppTrialScore": -4,
            "playerTotalScore": 21,
            "oppTotalScore": -71,
            "waitTime": 2728.6496653397935,
            "responseTime": 1678827926595,
            "catchQuestion": "How many <b class=\"r\">red<\/b> marbles did you actually draw (before any changes)? ",
            "catchKey": -1,
            "catchResponse": -1,
            "catchTime": 1678827874281,
            "trialTime": 0
        },
        {
            "exptPart": "trial",
            "trialNumber": 25,
            "roleCurrent": "receiver",
            "marblesSampled": 100,
            "probRed": 0.5,
            "lambda": 5,
            "drawnRed": 50,
            "reportedRed": 55,
            "inferredRed": 50,
            "playerTrialScore": 0,
            "oppTrialScore": 0,
            "playerTotalScore": 21,
            "oppTotalScore": -71,
            "waitTime": 6511.137028211547,
            "responseTime": 1678827938762,
            "catchQuestion": "How many <b class=\"r\">red<\/b> marbles did you actually draw (before any changes)? ",
            "catchKey": -1,
            "catchResponse": -1,
            "catchTime": 1678827938762,
            "trialTime": 0
        },
        {
            "exptPart": "trial",
            "trialNumber": 26,
            "roleCurrent": "sender",
            "marblesSampled": 100,
            "probRed": 0.5,
            "lambda": 5,
            "drawnRed": 50,
            "reportedRed": 58,
            "inferredRed": 53,
            "playerTrialScore": 3,
            "oppTrialScore": -3,
            "playerTotalScore": 24,
            "oppTotalScore": -74,
            "waitTime": 2984.726963754213,
            "responseTime": 1678827969779,
            "catchQuestion": "How many <b class=\"r\">red<\/b> marbles did you actually draw (before any changes)? ",
            "catchKey": -1,
            "catchResponse": -1,
            "catchTime": 1678827938762,
            "trialTime": 0
        },
        {
            "exptPart": "trial",
            "trialNumber": 27,
            "roleCurrent": "receiver",
            "marblesSampled": 100,
            "probRed": 0.5,
            "lambda": 5,
            "drawnRed": 58,
            "reportedRed": 67,
            "inferredRed": 60,
            "playerTrialScore": -2,
            "oppTrialScore": 2,
            "playerTotalScore": 22,
            "oppTotalScore": -72,
            "waitTime": 6755.186181183836,
            "responseTime": 1678827980829,
            "catchQuestion": "How many <b class=\"r\">red<\/b> marbles did you actually draw (before any changes)? ",
            "catchKey": -1,
            "catchResponse": -1,
            "catchTime": 1678827938762,
            "trialTime": 0
        },
        {
            "exptPart": "trial",
            "trialNumber": 28,
            "roleCurrent": "sender",
            "marblesSampled": 100,
            "probRed": 0.5,
            "lambda": 5,
            "drawnRed": 38,
            "reportedRed": 50,
            "inferredRed": 46,
            "playerTrialScore": 8,
            "oppTrialScore": -8,
            "playerTotalScore": 30,
            "oppTotalScore": -80,
            "waitTime": 2153.3387808034768,
            "responseTime": 1678827993978,
            "catchQuestion": "How many <b class=\"r\">red<\/b> marbles did you actually draw (before any changes)? ",
            "catchKey": -1,
            "catchResponse": -1,
            "catchTime": 1678827938762,
            "trialTime": 0
        },
        {
            "exptPart": "trial",
            "trialNumber": 29,
            "roleCurrent": "receiver",
            "marblesSampled": 100,
            "probRed": 0.5,
            "lambda": 5,
            "drawnRed": 46,
            "reportedRed": 53,
            "inferredRed": 40,
            "playerTrialScore": -6,
            "oppTrialScore": 0,
            "playerTotalScore": 24,
            "oppTotalScore": -80,
            "waitTime": 5438.703306548288,
            "responseTime": 1678828003781,
            "catchQuestion": "How many <b class=\"r\">red<\/b> marbles did you actually draw (before any changes)? ",
            "catchKey": -1,
            "catchResponse": -1,
            "catchTime": 1678827938762,
            "trialTime": 0
        },
        {
            "exptPart": "trial",
            "trialNumber": 30,
            "roleCurrent": "sender",
            "marblesSampled": 100,
            "probRed": 0.5,
            "lambda": 5,
            "drawnRed": 36,
            "reportedRed": 36,
            "inferredRed": 29,
            "playerTrialScore": 0,
            "oppTrialScore": -7,
            "playerTotalScore": 24,
            "oppTotalScore": -87,
            "waitTime": 3181.175096278291,
            "responseTime": 1678828011530,
            "catchQuestion": "How many <b class=\"r\">red<\/b> marbles did you actually draw (before any changes)? ",
            "catchKey": -1,
            "catchResponse": -1,
            "catchTime": 1678828011530,
            "trialTime": 0
        },
        {
            "exptPart": "trial",
            "trialNumber": 31,
            "roleCurrent": "receiver",
            "marblesSampled": 100,
            "probRed": 0.5,
            "lambda": 5,
            "drawnRed": 36,
            "reportedRed": 41,
            "inferredRed": 35,
            "playerTrialScore": -1,
            "oppTrialScore": 0,
            "playerTotalScore": 23,
            "oppTotalScore": -87,
            "waitTime": 6783.037675864085,
            "responseTime": 1678828023296,
            "catchQuestion": "How many <b class=\"r\">red<\/b> marbles did you actually draw (before any changes)? ",
            "catchKey": -1,
            "catchResponse": -1,
            "catchTime": 1678828011530,
            "trialTime": 0
        },
        {
            "exptPart": "trial",
            "trialNumber": 32,
            "roleCurrent": "sender",
            "marblesSampled": 100,
            "probRed": 0.5,
            "lambda": 5,
            "drawnRed": 23,
            "reportedRed": 34,
            "inferredRed": 30,
            "playerTrialScore": 7,
            "oppTrialScore": -7,
            "playerTotalScore": 30,
            "oppTotalScore": -94,
            "waitTime": 2813.307741983427,
            "responseTime": 1678828036346,
            "catchQuestion": "How many <b class=\"r\">red<\/b> marbles did you actually draw (before any changes)? ",
            "catchKey": 23,
            "catchResponse": 24,
            "catchTime": 1678828036346,
            "trialTime": 0
        },
        {
            "exptPart": "trial",
            "trialNumber": 33,
            "roleCurrent": "receiver",
            "marblesSampled": 100,
            "probRed": 0.5,
            "lambda": 5,
            "drawnRed": 43,
            "reportedRed": 44,
            "inferredRed": 35,
            "playerTrialScore": -8,
            "oppTrialScore": 0,
            "playerTotalScore": 22,
            "oppTotalScore": -94,
            "waitTime": 5258.645411914518,
            "responseTime": 1678828050779,
            "catchQuestion": "How many <b class=\"r\">red<\/b> marbles did you actually draw (before any changes)? ",
            "catchKey": -1,
            "catchResponse": -1,
            "catchTime": 1678828036346,
            "trialTime": 0
        },
        {
            "exptPart": "trial",
            "trialNumber": 34,
            "roleCurrent": "sender",
            "marblesSampled": 100,
            "probRed": 0.5,
            "lambda": 5,
            "drawnRed": 44,
            "reportedRed": 44,
            "inferredRed": 41,
            "playerTrialScore": 0,
            "oppTrialScore": -3,
            "playerTotalScore": 22,
            "oppTotalScore": -97,
            "waitTime": 2064.1982935403666,
            "responseTime": 1678828057246,
            "catchQuestion": "How many <b class=\"r\">red<\/b> marbles did you actually draw (before any changes)? ",
            "catchKey": -1,
            "catchResponse": -1,
            "catchTime": 1678828036346,
            "trialTime": 0
        },
        {
            "exptPart": "trial",
            "trialNumber": 35,
            "roleCurrent": "receiver",
            "marblesSampled": 100,
            "probRed": 0.5,
            "lambda": 5,
            "drawnRed": 11,
            "reportedRed": 18,
            "inferredRed": 15,
            "playerTrialScore": -4,
            "oppTrialScore": 4,
            "playerTotalScore": 18,
            "oppTotalScore": -93,
            "waitTime": 5647.66359247806,
            "responseTime": 1678828065529,
            "catchQuestion": "How many <b class=\"r\">red<\/b> marbles did you actually draw (before any changes)? ",
            "catchKey": -1,
            "catchResponse": -1,
            "catchTime": 1678828065529,
            "trialTime": 0
        },
        {
            "exptPart": "trial",
            "trialNumber": 36,
            "roleCurrent": "sender",
            "marblesSampled": 100,
            "probRed": 0.5,
            "lambda": 5,
            "drawnRed": 69,
            "reportedRed": 69,
            "inferredRed": 65,
            "playerTrialScore": 0,
            "oppTrialScore": -4,
            "playerTotalScore": 18,
            "oppTotalScore": -97,
            "waitTime": 2711.3177419981303,
            "responseTime": 1678828075762,
            "catchQuestion": "How many <b class=\"r\">red<\/b> marbles did you actually draw (before any changes)? ",
            "catchKey": -1,
            "catchResponse": -1,
            "catchTime": 1678828065529,
            "trialTime": 0
        },
        {
            "exptPart": "trial",
            "trialNumber": 37,
            "roleCurrent": "receiver",
            "marblesSampled": 100,
            "probRed": 0.5,
            "lambda": 5,
            "drawnRed": 30,
            "reportedRed": 37,
            "inferredRed": 30,
            "playerTrialScore": 0,
            "oppTrialScore": 0,
            "playerTotalScore": 18,
            "oppTotalScore": -97,
            "waitTime": 5344.2481003209705,
            "responseTime": 1678828084515,
            "catchQuestion": "How many <b class=\"r\">red<\/b> marbles did you actually draw (before any changes)? ",
            "catchKey": -1,
            "catchResponse": -1,
            "catchTime": 1678828065529,
            "trialTime": 0
        },
        {
            "exptPart": "trial",
            "trialNumber": 38,
            "roleCurrent": "sender",
            "marblesSampled": 100,
            "probRed": 0.5,
            "lambda": 5,
            "drawnRed": 53,
            "reportedRed": 58,
            "inferredRed": 52,
            "playerTrialScore": 0,
            "oppTrialScore": -1,
            "playerTotalScore": 18,
            "oppTotalScore": -98,
            "waitTime": 2186.9338114122093,
            "responseTime": 1678828099512,
            "catchQuestion": "How many <b class=\"r\">red<\/b> marbles did you actually draw (before any changes)? ",
            "catchKey": -1,
            "catchResponse": -1,
            "catchTime": 1678828065529,
            "trialTime": 0
        },
        {
            "exptPart": "trial",
            "trialNumber": 39,
            "roleCurrent": "receiver",
            "marblesSampled": 100,
            "probRed": 0.5,
            "lambda": 5,
            "drawnRed": 79,
            "reportedRed": 85,
            "inferredRed": 75,
            "playerTrialScore": -4,
            "oppTrialScore": 0,
            "playerTotalScore": 14,
            "oppTotalScore": -98,
            "waitTime": 7067.880316198867,
            "responseTime": 1678828125229,
            "catchQuestion": "How many <b class=\"r\">red<\/b> marbles did you actually draw (before any changes)? ",
            "catchKey": -1,
            "catchResponse": -1,
            "catchTime": 1678828065529,
            "trialTime": 0
        },
        {
            "exptPart": "trial",
            "trialNumber": 40,
            "roleCurrent": "sender",
            "marblesSampled": 100,
            "probRed": 0.5,
            "lambda": 5,
            "drawnRed": 73,
            "reportedRed": 98,
            "inferredRed": 91,
            "playerTrialScore": 18,
            "oppTrialScore": -18,
            "playerTotalScore": 32,
            "oppTotalScore": -116,
            "waitTime": 3195.034869548591,
            "responseTime": 1678828147763,
            "catchQuestion": "How many <b class=\"r\">red<\/b> marbles did you actually draw (before any changes)? ",
            "catchKey": 73,
            "catchResponse": 73,
            "catchTime": 1678828147763,
            "trialTime": 0
        },
        {
            "exptPart": "trial",
            "trialNumber": 41,
            "roleCurrent": "receiver",
            "marblesSampled": 100,
            "probRed": 0.5,
            "lambda": 5,
            "drawnRed": 38,
            "reportedRed": 43,
            "inferredRed": 35,
            "playerTrialScore": -3,
            "oppTrialScore": 0,
            "playerTotalScore": 29,
            "oppTotalScore": -116,
            "waitTime": 6500.369505482408,
            "responseTime": 1678828164196,
            "catchQuestion": "How many <b class=\"r\">red<\/b> marbles did you actually draw (before any changes)? ",
            "catchKey": -1,
            "catchResponse": -1,
            "catchTime": 1678828147763,
            "trialTime": 0
        },
        {
            "exptPart": "trial",
            "trialNumber": 42,
            "roleCurrent": "sender",
            "marblesSampled": 100,
            "probRed": 0.5,
            "lambda": 5,
            "drawnRed": 59,
            "reportedRed": 59,
            "inferredRed": 52,
            "playerTrialScore": 0,
            "oppTrialScore": -7,
            "playerTotalScore": 29,
            "oppTotalScore": -123,
            "waitTime": 2863.9508565401457,
            "responseTime": 1678828171313,
            "catchQuestion": "How many <b class=\"r\">red<\/b> marbles did you actually draw (before any changes)? ",
            "catchKey": -1,
            "catchResponse": -1,
            "catchTime": 1678828147763,
            "trialTime": 0
        },
        {
            "exptPart": "trial",
            "trialNumber": 43,
            "roleCurrent": "receiver",
            "marblesSampled": 100,
            "probRed": 0.5,
            "lambda": 5,
            "drawnRed": 38,
            "reportedRed": 40,
            "inferredRed": 20,
            "playerTrialScore": -18,
            "oppTrialScore": 0,
            "playerTotalScore": 11,
            "oppTotalScore": -123,
            "waitTime": 5273.406548709245,
            "responseTime": 1678828179012,
            "catchQuestion": "How many <b class=\"r\">red<\/b> marbles did you actually draw (before any changes)? ",
            "catchKey": -1,
            "catchResponse": -1,
            "catchTime": 1678828147763,
            "trialTime": 0
        },
        {
            "exptPart": "trial",
            "trialNumber": 44,
            "roleCurrent": "sender",
            "marblesSampled": 100,
            "probRed": 0.5,
            "lambda": 5,
            "drawnRed": 70,
            "reportedRed": 70,
            "inferredRed": 61,
            "playerTrialScore": 0,
            "oppTrialScore": -9,
            "playerTotalScore": 11,
            "oppTotalScore": -132,
            "waitTime": 2460.6244039207304,
            "responseTime": 1678828188549,
            "catchQuestion": "How many <b class=\"r\">red<\/b> marbles did you actually draw (before any changes)? ",
            "catchKey": -1,
            "catchResponse": -1,
            "catchTime": 1678828147763,
            "trialTime": 0
        },
        {
            "exptPart": "trial",
            "trialNumber": 45,
            "roleCurrent": "receiver",
            "marblesSampled": 100,
            "probRed": 0.5,
            "lambda": 5,
            "drawnRed": 70,
            "reportedRed": 74,
            "inferredRed": 60,
            "playerTrialScore": -10,
            "oppTrialScore": 0,
            "playerTotalScore": 1,
            "oppTotalScore": -132,
            "waitTime": 5968.103235749626,
            "responseTime": 1678828197646,
            "catchQuestion": "How many <b class=\"r\">red<\/b> marbles did your opponent report drawing? ",
            "catchKey": 74,
            "catchResponse": 74,
            "catchTime": 1678828197646,
            "trialTime": 0
        },
        {
            "exptPart": "trial",
            "trialNumber": 46,
            "roleCurrent": "sender",
            "marblesSampled": 100,
            "probRed": 0.5,
            "lambda": 5,
            "drawnRed": 87,
            "reportedRed": 87,
            "inferredRed": 87,
            "playerTrialScore": 0,
            "oppTrialScore": 0,
            "playerTotalScore": 1,
            "oppTotalScore": -132,
            "waitTime": 2246.732181027766,
            "responseTime": 1678828214947,
            "catchQuestion": "How many <b class=\"r\">red<\/b> marbles did your opponent report drawing? ",
            "catchKey": -1,
            "catchResponse": -1,
            "catchTime": 1678828197646,
            "trialTime": 0
        },
        {
            "exptPart": "trial",
            "trialNumber": 47,
            "roleCurrent": "receiver",
            "marblesSampled": 100,
            "probRed": 0.5,
            "lambda": 5,
            "drawnRed": 33,
            "reportedRed": 36,
            "inferredRed": 36,
            "playerTrialScore": -3,
            "oppTrialScore": 3,
            "playerTotalScore": -2,
            "oppTotalScore": -129,
            "waitTime": 6630.816761411537,
            "responseTime": 1678828224413,
            "catchQuestion": "How many <b class=\"r\">red<\/b> marbles did your opponent report drawing? ",
            "catchKey": -1,
            "catchResponse": -1,
            "catchTime": 1678828197646,
            "trialTime": 0
        },
        {
            "exptPart": "trial",
            "trialNumber": 48,
            "roleCurrent": "sender",
            "marblesSampled": 100,
            "probRed": 0.5,
            "lambda": 5,
            "drawnRed": 62,
            "reportedRed": 62,
            "inferredRed": 56,
            "playerTrialScore": 0,
            "oppTrialScore": -6,
            "playerTotalScore": -2,
            "oppTotalScore": -135,
            "waitTime": 2319.8400575648348,
            "responseTime": 1678828231213,
            "catchQuestion": "How many <b class=\"r\">red<\/b> marbles did your opponent report drawing? ",
            "catchKey": -1,
            "catchResponse": -1,
            "catchTime": 1678828197646,
            "trialTime": 0
        },
        {
            "exptPart": "trial",
            "trialNumber": 49,
            "roleCurrent": "receiver",
            "marblesSampled": 100,
            "probRed": 0.5,
            "lambda": 5,
            "drawnRed": 47,
            "reportedRed": 51,
            "inferredRed": 51,
            "playerTrialScore": -4,
            "oppTrialScore": 4,
            "playerTotalScore": -6,
            "oppTotalScore": -131,
            "waitTime": 5151.491814492777,
            "responseTime": 1678828238396,
            "catchQuestion": "How many <b class=\"r\">red<\/b> marbles did your opponent report drawing? ",
            "catchKey": -1,
            "catchResponse": -1,
            "catchTime": 1678828197646,
            "trialTime": 0
        },
        {
            "exptPart": "trial",
            "trialNumber": 50,
            "roleCurrent": "sender",
            "marblesSampled": 100,
            "probRed": 0.5,
            "lambda": 5,
            "drawnRed": 42,
            "reportedRed": 42,
            "inferredRed": 35,
            "playerTrialScore": 0,
            "oppTrialScore": -7,
            "playerTotalScore": -6,
            "oppTotalScore": -138,
            "waitTime": 2649.761181754294,
            "responseTime": 1678828245963,
            "catchQuestion": "How many <b class=\"r\">red<\/b> marbles did your opponent report drawing? ",
            "catchKey": -1,
            "catchResponse": -1,
            "catchTime": 1678828245963,
            "trialTime": 0
        },
        {
            "exptPart": "trial",
            "trialNumber": 51,
            "roleCurrent": "receiver",
            "marblesSampled": 100,
            "probRed": 0.5,
            "lambda": 5,
            "drawnRed": 36,
            "reportedRed": 37,
            "inferredRed": 30,
            "playerTrialScore": -6,
            "oppTrialScore": 0,
            "playerTotalScore": -12,
            "oppTotalScore": -138,
            "waitTime": 5564.868965313202,
            "responseTime": 1678828257429,
            "catchQuestion": "How many <b class=\"r\">red<\/b> marbles did your opponent report drawing? ",
            "catchKey": -1,
            "catchResponse": -1,
            "catchTime": 1678828245963,
            "trialTime": 0
        },
        {
            "exptPart": "trial",
            "trialNumber": 52,
            "roleCurrent": "sender",
            "marblesSampled": 100,
            "probRed": 0.5,
            "lambda": 5,
            "drawnRed": 55,
            "reportedRed": 60,
            "inferredRed": 53,
            "playerTrialScore": 0,
            "oppTrialScore": -2,
            "playerTotalScore": -12,
            "oppTotalScore": -140,
            "waitTime": 2385.792212295394,
            "responseTime": 1678828267163,
            "catchQuestion": "How many <b class=\"r\">red<\/b> marbles did your opponent report drawing? ",
            "catchKey": -1,
            "catchResponse": -1,
            "catchTime": 1678828245963,
            "trialTime": 0
        },
        {
            "exptPart": "trial",
            "trialNumber": 53,
            "roleCurrent": "receiver",
            "marblesSampled": 100,
            "probRed": 0.5,
            "lambda": 5,
            "drawnRed": 37,
            "reportedRed": 45,
            "inferredRed": 35,
            "playerTrialScore": -2,
            "oppTrialScore": 0,
            "playerTotalScore": -14,
            "oppTotalScore": -140,
            "waitTime": 7161.014103251527,
            "responseTime": 1678828277946,
            "catchQuestion": "How many <b class=\"r\">red<\/b> marbles did your opponent report drawing? ",
            "catchKey": -1,
            "catchResponse": -1,
            "catchTime": 1678828245963,
            "trialTime": 0
        },
        {
            "exptPart": "trial",
            "trialNumber": 54,
            "roleCurrent": "sender",
            "marblesSampled": 100,
            "probRed": 0.5,
            "lambda": 5,
            "drawnRed": 33,
            "reportedRed": 37,
            "inferredRed": 34,
            "playerTrialScore": 1,
            "oppTrialScore": -1,
            "playerTotalScore": -13,
            "oppTotalScore": -141,
            "waitTime": 2098.3995006516975,
            "responseTime": 1678828289129,
            "catchQuestion": "How many <b class=\"r\">red<\/b> marbles did your opponent report drawing? ",
            "catchKey": -1,
            "catchResponse": -1,
            "catchTime": 1678828245963,
            "trialTime": 0
        },
        {
            "exptPart": "trial",
            "trialNumber": 55,
            "roleCurrent": "receiver",
            "marblesSampled": 100,
            "probRed": 0.5,
            "lambda": 5,
            "drawnRed": 53,
            "reportedRed": 56,
            "inferredRed": 45,
            "playerTrialScore": -8,
            "oppTrialScore": 0,
            "playerTotalScore": -21,
            "oppTotalScore": -141,
            "waitTime": 5278.374781619144,
            "responseTime": 1678828298930,
            "catchQuestion": "How many <b class=\"r\">red<\/b> marbles did your opponent report drawing? ",
            "catchKey": -1,
            "catchResponse": -1,
            "catchTime": 1678828298930,
            "trialTime": 0
        },
        {
            "exptPart": "trial",
            "trialNumber": 56,
            "roleCurrent": "sender",
            "marblesSampled": 100,
            "probRed": 0.5,
            "lambda": 5,
            "drawnRed": 69,
            "reportedRed": 80,
            "inferredRed": 76,
            "playerTrialScore": 7,
            "oppTrialScore": -7,
            "playerTotalScore": -14,
            "oppTotalScore": -148,
            "waitTime": 2264.6080661008846,
            "responseTime": 1678828313647,
            "catchQuestion": "How many <b class=\"r\">red<\/b> marbles did your opponent report drawing? ",
            "catchKey": -1,
            "catchResponse": -1,
            "catchTime": 1678828298930,
            "trialTime": 0
        },
        {
            "exptPart": "trial",
            "trialNumber": 57,
            "roleCurrent": "receiver",
            "marblesSampled": 100,
            "probRed": 0.5,
            "lambda": 5,
            "drawnRed": 20,
            "reportedRed": 26,
            "inferredRed": 20,
            "playerTrialScore": 0,
            "oppTrialScore": 0,
            "playerTotalScore": -14,
            "oppTotalScore": -148,
            "waitTime": 5713.66695495977,
            "responseTime": 1678828322180,
            "catchQuestion": "How many <b class=\"r\">red<\/b> marbles did your opponent report drawing? ",
            "catchKey": -1,
            "catchResponse": -1,
            "catchTime": 1678828298930,
            "trialTime": 0
        },
        {
            "exptPart": "trial",
            "trialNumber": 58,
            "roleCurrent": "sender",
            "marblesSampled": 100,
            "probRed": 0.5,
            "lambda": 5,
            "drawnRed": 29,
            "reportedRed": 30,
            "inferredRed": 25,
            "playerTrialScore": 0,
            "oppTrialScore": -4,
            "playerTotalScore": -14,
            "oppTotalScore": -152,
            "waitTime": 2252.176194559325,
            "responseTime": 1678828330863,
            "catchQuestion": "How many <b class=\"r\">red<\/b> marbles did your opponent report drawing? ",
            "catchKey": -1,
            "catchResponse": -1,
            "catchTime": 1678828298930,
            "trialTime": 0
        },
        {
            "exptPart": "trial",
            "trialNumber": 59,
            "roleCurrent": "receiver",
            "marblesSampled": 100,
            "probRed": 0.5,
            "lambda": 5,
            "drawnRed": 78,
            "reportedRed": 82,
            "inferredRed": 75,
            "playerTrialScore": -3,
            "oppTrialScore": 0,
            "playerTotalScore": -17,
            "oppTotalScore": -152,
            "waitTime": 5164.437944664571,
            "responseTime": 1678828340212,
            "catchQuestion": "How many <b class=\"r\">red<\/b> marbles did your opponent report drawing? ",
            "catchKey": -1,
            "catchResponse": -1,
            "catchTime": 1678828298930,
            "trialTime": 0
        },
        {
            "exptPart": "trial",
            "trialNumber": 60,
            "roleCurrent": "sender",
            "marblesSampled": 100,
            "probRed": 0.5,
            "lambda": 5,
            "drawnRed": 66,
            "reportedRed": 70,
            "inferredRed": 66,
            "playerTrialScore": 0,
            "oppTrialScore": 0,
            "playerTotalScore": -17,
            "oppTotalScore": -152,
            "waitTime": 2613.0893433137526,
            "responseTime": 1678828349596,
            "catchQuestion": "How many <b class=\"r\">red<\/b> marbles did your opponent report drawing? ",
            "catchKey": -1,
            "catchResponse": -1,
            "catchTime": 1678828349596,
            "trialTime": 0
        },
        {
            "exptPart": "trial",
            "trialNumber": 61,
            "roleCurrent": "receiver",
            "marblesSampled": 100,
            "probRed": 0.5,
            "lambda": 5,
            "drawnRed": 52,
            "reportedRed": 54,
            "inferredRed": 45,
            "playerTrialScore": -7,
            "oppTrialScore": 0,
            "playerTotalScore": -24,
            "oppTotalScore": -152,
            "waitTime": 5244.661805156928,
            "responseTime": 1678828360463,
            "catchQuestion": "How many <b class=\"r\">red<\/b> marbles did your opponent report drawing? ",
            "catchKey": -1,
            "catchResponse": -1,
            "catchTime": 1678828349596,
            "trialTime": 0
        },
        {
            "exptPart": "trial",
            "trialNumber": 62,
            "roleCurrent": "sender",
            "marblesSampled": 100,
            "probRed": 0.5,
            "lambda": 5,
            "drawnRed": 38,
            "reportedRed": 28,
            "inferredRed": 21,
            "playerTrialScore": 0,
            "oppTrialScore": -17,
            "playerTotalScore": -24,
            "oppTotalScore": -169,
            "waitTime": 2614.87096940874,
            "responseTime": 1678828375596,
            "catchQuestion": "How many <b class=\"r\">red<\/b> marbles did you actually draw (before any changes)? ",
            "catchKey": 38,
            "catchResponse": 32,
            "catchTime": 1678828375596,
            "trialTime": 0
        },
        {
            "exptPart": "trial",
            "trialNumber": 63,
            "roleCurrent": "receiver",
            "marblesSampled": 100,
            "probRed": 0.5,
            "lambda": 5,
            "drawnRed": 46,
            "reportedRed": 48,
            "inferredRed": 50,
            "playerTrialScore": -4,
            "oppTrialScore": 4,
            "playerTotalScore": -28,
            "oppTotalScore": -165,
            "waitTime": 5758.51362531797,
            "responseTime": 1678828393346,
            "catchQuestion": "How many <b class=\"r\">red<\/b> marbles did you actually draw (before any changes)? ",
            "catchKey": -1,
            "catchResponse": -1,
            "catchTime": 1678828375596,
            "trialTime": 0
        },
        {
            "exptPart": "trial",
            "trialNumber": 64,
            "roleCurrent": "sender",
            "marblesSampled": 100,
            "probRed": 0.5,
            "lambda": 5,
            "drawnRed": 60,
            "reportedRed": 51,
            "inferredRed": 48,
            "playerTrialScore": 0,
            "oppTrialScore": -12,
            "playerTotalScore": -28,
            "oppTotalScore": -177,
            "waitTime": 2463.984354105772,
            "responseTime": 1678828404730,
            "catchQuestion": "How many <b class=\"r\">red<\/b> marbles did you actually draw (before any changes)? ",
            "catchKey": -1,
            "catchResponse": -1,
            "catchTime": 1678828375596,
            "trialTime": 0
        },
        {
            "exptPart": "trial",
            "trialNumber": 65,
            "roleCurrent": "receiver",
            "marblesSampled": 100,
            "probRed": 0.5,
            "lambda": 5,
            "drawnRed": 45,
            "reportedRed": 50,
            "inferredRed": 30,
            "playerTrialScore": -15,
            "oppTrialScore": 0,
            "playerTotalScore": -43,
            "oppTotalScore": -177,
            "waitTime": 5687.607063518394,
            "responseTime": 1678828413162,
            "catchQuestion": "How many <b class=\"r\">red<\/b> marbles did your opponent report drawing? ",
            "catchKey": 50,
            "catchResponse": 50,
            "catchTime": 1678828413162,
            "trialTime": 0
        },
        {
            "exptPart": "trial",
            "trialNumber": 66,
            "roleCurrent": "sender",
            "marblesSampled": 100,
            "probRed": 0.5,
            "lambda": 5,
            "drawnRed": 63,
            "reportedRed": 68,
            "inferredRed": 64,
            "playerTrialScore": 1,
            "oppTrialScore": -1,
            "playerTotalScore": -42,
            "oppTotalScore": -178,
            "waitTime": 2629.535587953959,
            "responseTime": 1678828427630,
            "catchQuestion": "How many <b class=\"r\">red<\/b> marbles did your opponent report drawing? ",
            "catchKey": -1,
            "catchResponse": -1,
            "catchTime": 1678828413162,
            "trialTime": 0
        },
        {
            "exptPart": "trial",
            "trialNumber": 67,
            "roleCurrent": "receiver",
            "marblesSampled": 100,
            "probRed": 0.5,
            "lambda": 5,
            "drawnRed": 82,
            "reportedRed": 89,
            "inferredRed": 70,
            "playerTrialScore": -12,
            "oppTrialScore": 0,
            "playerTotalScore": -54,
            "oppTotalScore": -178,
            "waitTime": 6253.3198910302835,
            "responseTime": 1678828437280,
            "catchQuestion": "How many <b class=\"r\">red<\/b> marbles did your opponent report drawing? ",
            "catchKey": -1,
            "catchResponse": -1,
            "catchTime": 1678828413162,
            "trialTime": 0
        },
        {
            "exptPart": "trial",
            "trialNumber": 68,
            "roleCurrent": "sender",
            "marblesSampled": 100,
            "probRed": 0.5,
            "lambda": 5,
            "drawnRed": 60,
            "reportedRed": 67,
            "inferredRed": 64,
            "playerTrialScore": 4,
            "oppTrialScore": -4,
            "playerTotalScore": -50,
            "oppTotalScore": -182,
            "waitTime": 2104.6926487824567,
            "responseTime": 1678828450131,
            "catchQuestion": "How many <b class=\"r\">red<\/b> marbles did your opponent report drawing? ",
            "catchKey": -1,
            "catchResponse": -1,
            "catchTime": 1678828413162,
            "trialTime": 0
        },
        {
            "exptPart": "trial",
            "trialNumber": 69,
            "roleCurrent": "receiver",
            "marblesSampled": 100,
            "probRed": 0.5,
            "lambda": 5,
            "drawnRed": 47,
            "reportedRed": 51,
            "inferredRed": 30,
            "playerTrialScore": -17,
            "oppTrialScore": 0,
            "playerTotalScore": -67,
            "oppTotalScore": -182,
            "waitTime": 5187.1303309769955,
            "responseTime": 1678828458696,
            "catchQuestion": "How many <b class=\"r\">red<\/b> marbles did your opponent report drawing? ",
            "catchKey": 51,
            "catchResponse": 51,
            "catchTime": 1678828458696,
            "trialTime": 0
        },
        {
            "exptPart": "trial",
            "trialNumber": 70,
            "roleCurrent": "sender",
            "marblesSampled": 100,
            "probRed": 0.5,
            "lambda": 5,
            "drawnRed": 49,
            "reportedRed": 53,
            "inferredRed": 45,
            "playerTrialScore": 0,
            "oppTrialScore": -4,
            "playerTotalScore": -67,
            "oppTotalScore": -186,
            "waitTime": 2476.472247565205,
            "responseTime": 1678828472430,
            "catchQuestion": "How many <b class=\"r\">red<\/b> marbles did your opponent report drawing? ",
            "catchKey": -1,
            "catchResponse": -1,
            "catchTime": 1678828472430,
            "trialTime": 0
        },
        {
            "exptPart": "trial",
            "trialNumber": 71,
            "roleCurrent": "receiver",
            "marblesSampled": 100,
            "probRed": 0.5,
            "lambda": 5,
            "drawnRed": 38,
            "reportedRed": 43,
            "inferredRed": 35,
            "playerTrialScore": -3,
            "oppTrialScore": 0,
            "playerTotalScore": -70,
            "oppTotalScore": -186,
            "waitTime": 5215.69734551351,
            "responseTime": 1678828482180,
            "catchQuestion": "How many <b class=\"r\">red<\/b> marbles did your opponent report drawing? ",
            "catchKey": 43,
            "catchResponse": 43,
            "catchTime": 1678828482180,
            "trialTime": 0
        },
        {
            "exptPart": "trial",
            "trialNumber": 72,
            "roleCurrent": "sender",
            "marblesSampled": 100,
            "probRed": 0.5,
            "lambda": 5,
            "drawnRed": 39,
            "reportedRed": 47,
            "inferredRed": 42,
            "playerTrialScore": 3,
            "oppTrialScore": -3,
            "playerTotalScore": -67,
            "oppTotalScore": -189,
            "waitTime": 2535.981855023848,
            "responseTime": 1678828496081,
            "catchQuestion": "How many <b class=\"r\">red<\/b> marbles did your opponent report drawing? ",
            "catchKey": -1,
            "catchResponse": -1,
            "catchTime": 1678828482180,
            "trialTime": 0
        },
        {
            "exptPart": "trial",
            "trialNumber": 73,
            "roleCurrent": "receiver",
            "marblesSampled": 100,
            "probRed": 0.5,
            "lambda": 5,
            "drawnRed": 44,
            "reportedRed": 48,
            "inferredRed": 40,
            "playerTrialScore": -4,
            "oppTrialScore": 0,
            "playerTotalScore": -71,
            "oppTotalScore": -189,
            "waitTime": 6723.281047185345,
            "responseTime": 1678828504830,
            "catchQuestion": "How many <b class=\"r\">red<\/b> marbles did your opponent report drawing? ",
            "catchKey": -1,
            "catchResponse": -1,
            "catchTime": 1678828482180,
            "trialTime": 0
        },
        {
            "exptPart": "trial",
            "trialNumber": 74,
            "roleCurrent": "sender",
            "marblesSampled": 100,
            "probRed": 0.5,
            "lambda": 5,
            "drawnRed": 37,
            "reportedRed": 47,
            "inferredRed": 42,
            "playerTrialScore": 5,
            "oppTrialScore": -5,
            "playerTotalScore": -66,
            "oppTotalScore": -194,
            "waitTime": 2415.622955859276,
            "responseTime": 1678828516463,
            "catchQuestion": "How many <b class=\"r\">red<\/b> marbles did your opponent report drawing? ",
            "catchKey": -1,
            "catchResponse": -1,
            "catchTime": 1678828482180,
            "trialTime": 0
        },
        {
            "exptPart": "trial",
            "trialNumber": 75,
            "roleCurrent": "receiver",
            "marblesSampled": 100,
            "probRed": 0.5,
            "lambda": 5,
            "drawnRed": 46,
            "reportedRed": 48,
            "inferredRed": 39,
            "playerTrialScore": -7,
            "oppTrialScore": 0,
            "playerTotalScore": -73,
            "oppTotalScore": -194,
            "waitTime": 5994.128201456664,
            "responseTime": 1678828525430,
            "catchQuestion": "How many <b class=\"r\">red<\/b> marbles did your opponent report drawing? ",
            "catchKey": -1,
            "catchResponse": -1,
            "catchTime": 1678828525430,
            "trialTime": 0
        },
        {
            "exptPart": "trial",
            "trialNumber": 76,
            "roleCurrent": "sender",
            "marblesSampled": 100,
            "probRed": 0.5,
            "lambda": 5,
            "drawnRed": 60,
            "reportedRed": 68,
            "inferredRed": 62,
            "playerTrialScore": 2,
            "oppTrialScore": -2,
            "playerTotalScore": -71,
            "oppTotalScore": -196,
            "waitTime": 2936.0114937577655,
            "responseTime": 1678828536382,
            "catchQuestion": "How many <b class=\"r\">red<\/b> marbles did your opponent report drawing? ",
            "catchKey": -1,
            "catchResponse": -1,
            "catchTime": 1678828525430,
            "trialTime": 0
        },
        {
            "exptPart": "trial",
            "trialNumber": 77,
            "roleCurrent": "receiver",
            "marblesSampled": 100,
            "probRed": 0.5,
            "lambda": 5,
            "drawnRed": 41,
            "reportedRed": 49,
            "inferredRed": 40,
            "playerTrialScore": -1,
            "oppTrialScore": 0,
            "playerTotalScore": -72,
            "oppTotalScore": -196,
            "waitTime": 6356.407124462627,
            "responseTime": 1678828545946,
            "catchQuestion": "How many <b class=\"r\">red<\/b> marbles did your opponent report drawing? ",
            "catchKey": 49,
            "catchResponse": 49,
            "catchTime": 1678828545946,
            "trialTime": 0
        },
        {
            "exptPart": "trial",
            "trialNumber": 78,
            "roleCurrent": "sender",
            "marblesSampled": 100,
            "probRed": 0.5,
            "lambda": 5,
            "drawnRed": 65,
            "reportedRed": 68,
            "inferredRed": 63,
            "playerTrialScore": 0,
            "oppTrialScore": -2,
            "playerTotalScore": -72,
            "oppTotalScore": -198,
            "waitTime": 2581.1213400398756,
            "responseTime": 1678828559847,
            "catchQuestion": "How many <b class=\"r\">red<\/b> marbles did your opponent report drawing? ",
            "catchKey": -1,
            "catchResponse": -1,
            "catchTime": 1678828545946,
            "trialTime": 0
        },
        {
            "exptPart": "trial",
            "trialNumber": 79,
            "roleCurrent": "receiver",
            "marblesSampled": 100,
            "probRed": 0.5,
            "lambda": 5,
            "drawnRed": 69,
            "reportedRed": 72,
            "inferredRed": 70,
            "playerTrialScore": -1,
            "oppTrialScore": 1,
            "playerTotalScore": -73,
            "oppTotalScore": -197,
            "waitTime": 6879.194997247429,
            "responseTime": 1678828570583,
            "catchQuestion": "How many <b class=\"r\">red<\/b> marbles did your opponent report drawing? ",
            "catchKey": -1,
            "catchResponse": -1,
            "catchTime": 1678828545946,
            "trialTime": 0
        },
        {
            "exptPart": "trial",
            "trialNumber": 80,
            "roleCurrent": "sender",
            "marblesSampled": 100,
            "probRed": 0.5,
            "lambda": 5,
            "drawnRed": 84,
            "reportedRed": 100,
            "inferredRed": 97,
            "playerTrialScore": 13,
            "oppTrialScore": -13,
            "playerTotalScore": -60,
            "oppTotalScore": -210,
            "waitTime": 2576.430776685641,
            "responseTime": 1678828587147,
            "catchQuestion": "How many <b class=\"r\">red<\/b> marbles did your opponent report drawing? ",
            "catchKey": -1,
            "catchResponse": -1,
            "catchTime": 1678828587147,
            "trialTime": 0
        },
        {
            "exptPart": "trial",
            "trialNumber": 81,
            "roleCurrent": "receiver",
            "marblesSampled": 100,
            "probRed": 0.5,
            "lambda": 5,
            "drawnRed": 42,
            "reportedRed": 50,
            "inferredRed": 40,
            "playerTrialScore": -2,
            "oppTrialScore": 0,
            "playerTotalScore": -62,
            "oppTotalScore": -210,
            "waitTime": 6775.163935504671,
            "responseTime": 1678828598780,
            "catchQuestion": "How many <b class=\"r\">red<\/b> marbles did your opponent report drawing? ",
            "catchKey": -1,
            "catchResponse": -1,
            "catchTime": 1678828587147,
            "trialTime": 0
        },
        {
            "exptPart": "trial",
            "trialNumber": 82,
            "roleCurrent": "sender",
            "marblesSampled": 100,
            "probRed": 0.5,
            "lambda": 5,
            "drawnRed": 40,
            "reportedRed": 40,
            "inferredRed": 34,
            "playerTrialScore": 0,
            "oppTrialScore": -6,
            "playerTotalScore": -62,
            "oppTotalScore": -216,
            "waitTime": 2460.2602933915373,
            "responseTime": 1678828605296,
            "catchQuestion": "How many <b class=\"r\">red<\/b> marbles did your opponent report drawing? ",
            "catchKey": -1,
            "catchResponse": -1,
            "catchTime": 1678828587147,
            "trialTime": 0
        },
        {
            "exptPart": "trial",
            "trialNumber": 83,
            "roleCurrent": "receiver",
            "marblesSampled": 100,
            "probRed": 0.5,
            "lambda": 5,
            "drawnRed": 54,
            "reportedRed": 58,
            "inferredRed": 50,
            "playerTrialScore": -4,
            "oppTrialScore": 0,
            "playerTotalScore": -66,
            "oppTotalScore": -216,
            "waitTime": 6838.250895785384,
            "responseTime": 1678828614463,
            "catchQuestion": "How many <b class=\"r\">red<\/b> marbles did your opponent report drawing? ",
            "catchKey": -1,
            "catchResponse": -1,
            "catchTime": 1678828587147,
            "trialTime": 0
        },
        {
            "exptPart": "trial",
            "trialNumber": 84,
            "roleCurrent": "sender",
            "marblesSampled": 100,
            "probRed": 0.5,
            "lambda": 5,
            "drawnRed": 26,
            "reportedRed": 28,
            "inferredRed": 24,
            "playerTrialScore": 0,
            "oppTrialScore": -2,
            "playerTotalScore": -66,
            "oppTotalScore": -218,
            "waitTime": 2798.120611210526,
            "responseTime": 1678828623280,
            "catchQuestion": "How many <b class=\"r\">red<\/b> marbles did your opponent report drawing? ",
            "catchKey": -1,
            "catchResponse": -1,
            "catchTime": 1678828587147,
            "trialTime": 0
        },
        {
            "exptPart": "trial",
            "trialNumber": 85,
            "roleCurrent": "receiver",
            "marblesSampled": 100,
            "probRed": 0.5,
            "lambda": 5,
            "drawnRed": 14,
            "reportedRed": 17,
            "inferredRed": 5,
            "playerTrialScore": -9,
            "oppTrialScore": 0,
            "playerTotalScore": -75,
            "oppTotalScore": -218,
            "waitTime": 5923.6581676207425,
            "responseTime": 1678828631663,
            "catchQuestion": "How many <b class=\"r\">red<\/b> marbles did your opponent report drawing? ",
            "catchKey": -1,
            "catchResponse": -1,
            "catchTime": 1678828631663,
            "trialTime": 0
        },
        {
            "exptPart": "trial",
            "trialNumber": 86,
            "roleCurrent": "sender",
            "marblesSampled": 100,
            "probRed": 0.5,
            "lambda": 5,
            "drawnRed": 53,
            "reportedRed": 53,
            "inferredRed": 47,
            "playerTrialScore": 0,
            "oppTrialScore": -6,
            "playerTotalScore": -75,
            "oppTotalScore": -224,
            "waitTime": 2639.571724305042,
            "responseTime": 1678828639781,
            "catchQuestion": "How many <b class=\"r\">red<\/b> marbles did your opponent report drawing? ",
            "catchKey": -1,
            "catchResponse": -1,
            "catchTime": 1678828631663,
            "trialTime": 0
        },
        {
            "exptPart": "trial",
            "trialNumber": 87,
            "roleCurrent": "receiver",
            "marblesSampled": 100,
            "probRed": 0.5,
            "lambda": 5,
            "drawnRed": 36,
            "reportedRed": 37,
            "inferredRed": 37,
            "playerTrialScore": -1,
            "oppTrialScore": 1,
            "playerTotalScore": -76,
            "oppTotalScore": -223,
            "waitTime": 5371.69089381284,
            "responseTime": 1678828647347,
            "catchQuestion": "How many <b class=\"r\">red<\/b> marbles did your opponent report drawing? ",
            "catchKey": -1,
            "catchResponse": -1,
            "catchTime": 1678828631663,
            "trialTime": 0
        },
        {
            "exptPart": "trial",
            "trialNumber": 88,
            "roleCurrent": "sender",
            "marblesSampled": 100,
            "probRed": 0.5,
            "lambda": 5,
            "drawnRed": 34,
            "reportedRed": 34,
            "inferredRed": 28,
            "playerTrialScore": 0,
            "oppTrialScore": -6,
            "playerTotalScore": -76,
            "oppTotalScore": -229,
            "waitTime": 3028.5175211018886,
            "responseTime": 1678828654165,
            "catchQuestion": "How many <b class=\"r\">red<\/b> marbles did your opponent report drawing? ",
            "catchKey": -1,
            "catchResponse": -1,
            "catchTime": 1678828631663,
            "trialTime": 0
        },
        {
            "exptPart": "trial",
            "trialNumber": 89,
            "roleCurrent": "receiver",
            "marblesSampled": 100,
            "probRed": 0.5,
            "lambda": 5,
            "drawnRed": 47,
            "reportedRed": 50,
            "inferredRed": 50,
            "playerTrialScore": -3,
            "oppTrialScore": 3,
            "playerTotalScore": -79,
            "oppTotalScore": -226,
            "waitTime": 5320.620703798515,
            "responseTime": 1678828661280,
            "catchQuestion": "How many <b class=\"r\">red<\/b> marbles did your opponent report drawing? ",
            "catchKey": -1,
            "catchResponse": -1,
            "catchTime": 1678828631663,
            "trialTime": 0
        },
        {
            "exptPart": "trial",
            "trialNumber": 90,
            "roleCurrent": "sender",
            "marblesSampled": 100,
            "probRed": 0.5,
            "lambda": 5,
            "drawnRed": 24,
            "reportedRed": 24,
            "inferredRed": 19,
            "playerTrialScore": 0,
            "oppTrialScore": -5,
            "playerTotalScore": -79,
            "oppTotalScore": -231,
            "waitTime": 2157.8134225529516,
            "responseTime": 1678828669764,
            "catchQuestion": "How many <b class=\"r\">red<\/b> marbles did your opponent report drawing? ",
            "catchKey": -1,
            "catchResponse": -1,
            "catchTime": 1678828669764,
            "trialTime": 0
        },
        {
            "exptPart": "trial",
            "trialNumber": 91,
            "roleCurrent": "receiver",
            "marblesSampled": 100,
            "probRed": 0.5,
            "lambda": 5,
            "drawnRed": 81,
            "reportedRed": 83,
            "inferredRed": 83,
            "playerTrialScore": -2,
            "oppTrialScore": 2,
            "playerTotalScore": -81,
            "oppTotalScore": -229,
            "waitTime": 5160.378903177179,
            "responseTime": 1678828678834,
            "catchQuestion": "How many <b class=\"r\">red<\/b> marbles did your opponent report drawing? ",
            "catchKey": -1,
            "catchResponse": -1,
            "catchTime": 1678828669764,
            "trialTime": 0
        },
        {
            "exptPart": "trial",
            "trialNumber": 92,
            "roleCurrent": "sender",
            "marblesSampled": 100,
            "probRed": 0.5,
            "lambda": 5,
            "drawnRed": 79,
            "reportedRed": 79,
            "inferredRed": 75,
            "playerTrialScore": 0,
            "oppTrialScore": -4,
            "playerTotalScore": -81,
            "oppTotalScore": -233,
            "waitTime": 2171.5313156089614,
            "responseTime": 1678828686363,
            "catchQuestion": "How many <b class=\"r\">red<\/b> marbles did your opponent report drawing? ",
            "catchKey": -1,
            "catchResponse": -1,
            "catchTime": 1678828669764,
            "trialTime": 0
        },
        {
            "exptPart": "trial",
            "trialNumber": 93,
            "roleCurrent": "receiver",
            "marblesSampled": 100,
            "probRed": 0.5,
            "lambda": 5,
            "drawnRed": 37,
            "reportedRed": 40,
            "inferredRed": 40,
            "playerTrialScore": -3,
            "oppTrialScore": 3,
            "playerTotalScore": -84,
            "oppTotalScore": -230,
            "waitTime": 6137.274585579438,
            "responseTime": 1678828694997,
            "catchQuestion": "How many <b class=\"r\">red<\/b> marbles did your opponent report drawing? ",
            "catchKey": -1,
            "catchResponse": -1,
            "catchTime": 1678828669764,
            "trialTime": 0
        },
        {
            "exptPart": "trial",
            "trialNumber": 94,
            "roleCurrent": "sender",
            "marblesSampled": 100,
            "probRed": 0.5,
            "lambda": 5,
            "drawnRed": 37,
            "reportedRed": 37,
            "inferredRed": 30,
            "playerTrialScore": 0,
            "oppTrialScore": -7,
            "playerTotalScore": -84,
            "oppTotalScore": -237,
            "waitTime": 2275.795551625387,
            "responseTime": 1678828702764,
            "catchQuestion": "How many <b class=\"r\">red<\/b> marbles did your opponent report drawing? ",
            "catchKey": -1,
            "catchResponse": -1,
            "catchTime": 1678828669764,
            "trialTime": 0
        },
        {
            "exptPart": "trial",
            "trialNumber": 95,
            "roleCurrent": "receiver",
            "marblesSampled": 100,
            "probRed": 0.5,
            "lambda": 5,
            "drawnRed": 40,
            "reportedRed": 46,
            "inferredRed": 60,
            "playerTrialScore": -20,
            "oppTrialScore": 20,
            "playerTotalScore": -104,
            "oppTotalScore": -217,
            "waitTime": 6307.2239658117005,
            "responseTime": 1678828713247,
            "catchQuestion": "How many <b class=\"r\">red<\/b> marbles did your opponent report drawing? ",
            "catchKey": -1,
            "catchResponse": -1,
            "catchTime": 1678828713247,
            "trialTime": 0
        },
        {
            "exptPart": "trial",
            "trialNumber": 96,
            "roleCurrent": "sender",
            "marblesSampled": 100,
            "probRed": 0.5,
            "lambda": 5,
            "drawnRed": 42,
            "reportedRed": 42,
            "inferredRed": 39,
            "playerTrialScore": 0,
            "oppTrialScore": -3,
            "playerTotalScore": -104,
            "oppTotalScore": -220,
            "waitTime": 3239.3580874047875,
            "responseTime": 1678828724113,
            "catchQuestion": "How many <b class=\"r\">red<\/b> marbles did your opponent report drawing? ",
            "catchKey": -1,
            "catchResponse": -1,
            "catchTime": 1678828713247,
            "trialTime": 0
        },
        {
            "exptPart": "trial",
            "trialNumber": 97,
            "roleCurrent": "receiver",
            "marblesSampled": 100,
            "probRed": 0.5,
            "lambda": 5,
            "drawnRed": 55,
            "reportedRed": 56,
            "inferredRed": 30,
            "playerTrialScore": -25,
            "oppTrialScore": 0,
            "playerTotalScore": -129,
            "oppTotalScore": -220,
            "waitTime": 6751.3577820466835,
            "responseTime": 1678828732814,
            "catchQuestion": "How many <b class=\"r\">red<\/b> marbles did your opponent report drawing? ",
            "catchKey": -1,
            "catchResponse": -1,
            "catchTime": 1678828713247,
            "trialTime": 0
        },
        {
            "exptPart": "trial",
            "trialNumber": 98,
            "roleCurrent": "sender",
            "marblesSampled": 100,
            "probRed": 0.5,
            "lambda": 5,
            "drawnRed": 28,
            "reportedRed": 28,
            "inferredRed": 21,
            "playerTrialScore": 0,
            "oppTrialScore": -7,
            "playerTotalScore": -129,
            "oppTotalScore": -227,
            "waitTime": 2332.020425530787,
            "responseTime": 1678828739181,
            "catchQuestion": "How many <b class=\"r\">red<\/b> marbles did your opponent report drawing? ",
            "catchKey": -1,
            "catchResponse": -1,
            "catchTime": 1678828713247,
            "trialTime": 0
        },
        {
            "exptPart": "trial",
            "trialNumber": 99,
            "roleCurrent": "receiver",
            "marblesSampled": 100,
            "probRed": 0.5,
            "lambda": 5,
            "drawnRed": 87,
            "reportedRed": 88,
            "inferredRed": 70,
            "playerTrialScore": -17,
            "oppTrialScore": 0,
            "playerTotalScore": -146,
            "oppTotalScore": -227,
            "waitTime": 5630.739113092934,
            "responseTime": 1678828747815,
            "catchQuestion": "How many <b class=\"r\">red<\/b> marbles did your opponent report drawing? ",
            "catchKey": -1,
            "catchResponse": -1,
            "catchTime": 1678828713247,
            "trialTime": 0
        },
        {
            "exptPart": "trial",
            "trialNumber": 100,
            "roleCurrent": "sender",
            "marblesSampled": 100,
            "probRed": 0.5,
            "lambda": 5,
            "drawnRed": 48,
            "reportedRed": 48,
            "inferredRed": 39,
            "playerTrialScore": 0,
            "oppTrialScore": -9,
            "playerTotalScore": -146,
            "oppTotalScore": -236,
            "waitTime": 2778.081798321412,
            "responseTime": 1678828755430,
            "catchQuestion": "How many <b class=\"r\">red<\/b> marbles did you actually draw (before any changes)? ",
            "catchKey": 48,
            "catchResponse": 48,
            "catchTime": 1678828755430,
            "trialTime": 0
        }
    ]
}