{
    "client": {
        "type": "sona",
        "experiment_id": 2228,
        "credit_token": "b315147ae43241ea9c65086cb510cfb7",
        "survey_code": "47918",
        "sid": "sona-47918",
        "window": {
            "width": 1440,
            "height": 821
        },
        "screen": {
            "width": 1440,
            "height": 900
        },
        "userAgent": "Mozilla\/5.0 (Macintosh; Intel Mac OS X 10_15_7) AppleWebKit\/537.36 (KHTML, like Gecko) Chrome\/110.0.0.0 Safari\/537.36",
        "score": 0,
        "bonus": 0
    },
    "expt": {
        "saveURL": "submit.simple.php",
        "trials": 100,
        "practiceTrials": 2,
        "marblesSampled": 100,
        "probRed": 0.5,
        "lambdaAI": 5,
        "roleFirst": "receiver",
        "roles": [
            "sender",
            "receiver"
        ],
        "cost": "linear",
        "goal": "over",
        "goalInstructTxt": "below",
        "catchTrials": [
            79,
            13,
            84,
            74,
            42,
            10,
            12,
            73,
            29,
            75
        ],
        "scoreTotal": {
            "player": -584,
            "opp": -34
        },
        "sona": {
            "experiment_id": 2228,
            "credit_token": "b315147ae43241ea9c65086cb510cfb7"
        },
        "pilot": false,
        "debug": false
    },
    "trials": [
        {
            "exptPart": "practice",
            "trialNumber": 1,
            "roleCurrent": "sender",
            "marblesSampled": 100,
            "probRed": 0.5,
            "lambda": 5,
            "drawnRed": 82,
            "reportedRed": 82,
            "inferredRed": 80,
            "playerTrialScore": 0,
            "oppTrialScore": -2,
            "playerTotalScore": 0,
            "oppTotalScore": -2,
            "waitTime": 2858.686692852678,
            "responseTime": 1678825796703,
            "catchQuestion": "How many <b class=\"r\">red<\/b> marbles did you actually draw (before any changes)? ",
            "catchKey": 82,
            "catchResponse": 56,
            "catchTime": 1678825796704,
            "trialTime": 0
        },
        {
            "exptPart": "practice",
            "trialNumber": 2,
            "roleCurrent": "receiver",
            "marblesSampled": 100,
            "probRed": 0.5,
            "lambda": 5,
            "drawnRed": 30,
            "reportedRed": 36,
            "inferredRed": 22,
            "playerTrialScore": -8,
            "oppTrialScore": 0,
            "playerTotalScore": -8,
            "oppTotalScore": -2,
            "waitTime": 6325.310936544153,
            "responseTime": 1678825848652,
            "catchQuestion": "How many <b class=\"r\">red<\/b> marbles did your opponent report drawing? ",
            "catchKey": 36,
            "catchResponse": 36,
            "catchTime": 1678825848652,
            "trialTime": 0
        },
        {
            "exptPart": "trial",
            "trialNumber": 1,
            "roleCurrent": "receiver",
            "marblesSampled": 100,
            "probRed": 0.5,
            "lambda": 5,
            "drawnRed": 56,
            "reportedRed": 62,
            "inferredRed": 57,
            "playerTrialScore": -1,
            "oppTrialScore": 1,
            "playerTotalScore": -1,
            "oppTotalScore": 1,
            "waitTime": 6909.516611360154,
            "responseTime": 1678825885901,
            "catchQuestion": "How many <b class=\"r\">red<\/b> marbles did your opponent report drawing? ",
            "catchKey": -1,
            "catchResponse": -1,
            "catchTime": 1678825848652,
            "trialTime": 0
        },
        {
            "exptPart": "trial",
            "trialNumber": 2,
            "roleCurrent": "sender",
            "marblesSampled": 100,
            "probRed": 0.5,
            "lambda": 5,
            "drawnRed": 27,
            "reportedRed": 27,
            "inferredRed": 22,
            "playerTrialScore": 0,
            "oppTrialScore": -5,
            "playerTotalScore": -1,
            "oppTotalScore": -4,
            "waitTime": 2220.229266211156,
            "responseTime": 1678825899052,
            "catchQuestion": "How many <b class=\"r\">red<\/b> marbles did your opponent report drawing? ",
            "catchKey": -1,
            "catchResponse": -1,
            "catchTime": 1678825848652,
            "trialTime": 0
        },
        {
            "exptPart": "trial",
            "trialNumber": 3,
            "roleCurrent": "receiver",
            "marblesSampled": 100,
            "probRed": 0.5,
            "lambda": 5,
            "drawnRed": 51,
            "reportedRed": 54,
            "inferredRed": 23,
            "playerTrialScore": -28,
            "oppTrialScore": 0,
            "playerTotalScore": -29,
            "oppTotalScore": -4,
            "waitTime": 5871.751727557241,
            "responseTime": 1678825912004,
            "catchQuestion": "How many <b class=\"r\">red<\/b> marbles did your opponent report drawing? ",
            "catchKey": -1,
            "catchResponse": -1,
            "catchTime": 1678825848652,
            "trialTime": 0
        },
        {
            "exptPart": "trial",
            "trialNumber": 4,
            "roleCurrent": "sender",
            "marblesSampled": 100,
            "probRed": 0.5,
            "lambda": 5,
            "drawnRed": 61,
            "reportedRed": 58,
            "inferredRed": 53,
            "playerTrialScore": 0,
            "oppTrialScore": -8,
            "playerTotalScore": -29,
            "oppTotalScore": -12,
            "waitTime": 2426.098322776832,
            "responseTime": 1678825954936,
            "catchQuestion": "How many <b class=\"r\">red<\/b> marbles did your opponent report drawing? ",
            "catchKey": -1,
            "catchResponse": -1,
            "catchTime": 1678825848652,
            "trialTime": 0
        },
        {
            "exptPart": "trial",
            "trialNumber": 5,
            "roleCurrent": "receiver",
            "marblesSampled": 100,
            "probRed": 0.5,
            "lambda": 5,
            "drawnRed": 39,
            "reportedRed": 46,
            "inferredRed": 34,
            "playerTrialScore": -5,
            "oppTrialScore": 0,
            "playerTotalScore": -34,
            "oppTotalScore": -12,
            "waitTime": 6243.934555846416,
            "responseTime": 1678825974118,
            "catchQuestion": "How many <b class=\"r\">red<\/b> marbles did your opponent report drawing? ",
            "catchKey": -1,
            "catchResponse": -1,
            "catchTime": 1678825974118,
            "trialTime": 0
        },
        {
            "exptPart": "trial",
            "trialNumber": 6,
            "roleCurrent": "sender",
            "marblesSampled": 100,
            "probRed": 0.5,
            "lambda": 5,
            "drawnRed": 62,
            "reportedRed": 60,
            "inferredRed": 57,
            "playerTrialScore": 0,
            "oppTrialScore": -5,
            "playerTotalScore": -34,
            "oppTotalScore": -17,
            "waitTime": 2989.9342779078397,
            "responseTime": 1678826024052,
            "catchQuestion": "How many <b class=\"r\">red<\/b> marbles did your opponent report drawing? ",
            "catchKey": -1,
            "catchResponse": -1,
            "catchTime": 1678825974118,
            "trialTime": 0
        },
        {
            "exptPart": "trial",
            "trialNumber": 7,
            "roleCurrent": "receiver",
            "marblesSampled": 100,
            "probRed": 0.5,
            "lambda": 5,
            "drawnRed": 24,
            "reportedRed": 25,
            "inferredRed": 27,
            "playerTrialScore": -3,
            "oppTrialScore": 3,
            "playerTotalScore": -37,
            "oppTotalScore": -14,
            "waitTime": 6527.91971632672,
            "responseTime": 1678826050217,
            "catchQuestion": "How many <b class=\"r\">red<\/b> marbles did your opponent report drawing? ",
            "catchKey": -1,
            "catchResponse": -1,
            "catchTime": 1678825974118,
            "trialTime": 0
        },
        {
            "exptPart": "trial",
            "trialNumber": 8,
            "roleCurrent": "sender",
            "marblesSampled": 100,
            "probRed": 0.5,
            "lambda": 5,
            "drawnRed": 40,
            "reportedRed": 36,
            "inferredRed": 30,
            "playerTrialScore": 0,
            "oppTrialScore": -10,
            "playerTotalScore": -37,
            "oppTotalScore": -24,
            "waitTime": 2332.2809245490016,
            "responseTime": 1678826079634,
            "catchQuestion": "How many <b class=\"r\">red<\/b> marbles did your opponent report drawing? ",
            "catchKey": -1,
            "catchResponse": -1,
            "catchTime": 1678825974118,
            "trialTime": 0
        },
        {
            "exptPart": "trial",
            "trialNumber": 9,
            "roleCurrent": "receiver",
            "marblesSampled": 100,
            "probRed": 0.5,
            "lambda": 5,
            "drawnRed": 34,
            "reportedRed": 37,
            "inferredRed": 25,
            "playerTrialScore": -9,
            "oppTrialScore": 0,
            "playerTotalScore": -46,
            "oppTotalScore": -24,
            "waitTime": 5222.995546474023,
            "responseTime": 1678826091634,
            "catchQuestion": "How many <b class=\"r\">red<\/b> marbles did your opponent report drawing? ",
            "catchKey": -1,
            "catchResponse": -1,
            "catchTime": 1678825974118,
            "trialTime": 0
        },
        {
            "exptPart": "trial",
            "trialNumber": 10,
            "roleCurrent": "sender",
            "marblesSampled": 100,
            "probRed": 0.5,
            "lambda": 5,
            "drawnRed": 75,
            "reportedRed": 75,
            "inferredRed": 72,
            "playerTrialScore": 0,
            "oppTrialScore": -3,
            "playerTotalScore": -46,
            "oppTotalScore": -27,
            "waitTime": 2448.805246631887,
            "responseTime": 1678826102384,
            "catchQuestion": "How many <b class=\"r\">red<\/b> marbles did your opponent report drawing? ",
            "catchKey": -1,
            "catchResponse": -1,
            "catchTime": 1678826102384,
            "trialTime": 0
        },
        {
            "exptPart": "trial",
            "trialNumber": 11,
            "roleCurrent": "receiver",
            "marblesSampled": 100,
            "probRed": 0.5,
            "lambda": 5,
            "drawnRed": 59,
            "reportedRed": 62,
            "inferredRed": 12,
            "playerTrialScore": -47,
            "oppTrialScore": 0,
            "playerTotalScore": -93,
            "oppTotalScore": -27,
            "waitTime": 6026.085995704727,
            "responseTime": 1678826117768,
            "catchQuestion": "How many <b class=\"r\">red<\/b> marbles did your opponent report drawing? ",
            "catchKey": 62,
            "catchResponse": 47,
            "catchTime": 1678826117768,
            "trialTime": 0
        },
        {
            "exptPart": "trial",
            "trialNumber": 12,
            "roleCurrent": "sender",
            "marblesSampled": 100,
            "probRed": 0.5,
            "lambda": 5,
            "drawnRed": 77,
            "reportedRed": 77,
            "inferredRed": 72,
            "playerTrialScore": 0,
            "oppTrialScore": -5,
            "playerTotalScore": -93,
            "oppTotalScore": -32,
            "waitTime": 2594.355270709017,
            "responseTime": 1678826144384,
            "catchQuestion": "How many <b class=\"r\">red<\/b> marbles did your opponent report drawing? ",
            "catchKey": -1,
            "catchResponse": -1,
            "catchTime": 1678826117768,
            "trialTime": 0
        },
        {
            "exptPart": "trial",
            "trialNumber": 13,
            "roleCurrent": "receiver",
            "marblesSampled": 100,
            "probRed": 0.5,
            "lambda": 5,
            "drawnRed": 23,
            "reportedRed": 26,
            "inferredRed": 30,
            "playerTrialScore": -7,
            "oppTrialScore": 7,
            "playerTotalScore": -100,
            "oppTotalScore": -25,
            "waitTime": 5425.3209368937605,
            "responseTime": 1678826160317,
            "catchQuestion": "How many <b class=\"r\">red<\/b> marbles did your opponent report drawing? ",
            "catchKey": 26,
            "catchResponse": 24,
            "catchTime": 1678826160317,
            "trialTime": 0
        },
        {
            "exptPart": "trial",
            "trialNumber": 14,
            "roleCurrent": "sender",
            "marblesSampled": 100,
            "probRed": 0.5,
            "lambda": 5,
            "drawnRed": 21,
            "reportedRed": 21,
            "inferredRed": 18,
            "playerTrialScore": 0,
            "oppTrialScore": -3,
            "playerTotalScore": -100,
            "oppTotalScore": -28,
            "waitTime": 2175.0054233598576,
            "responseTime": 1678826185417,
            "catchQuestion": "How many <b class=\"r\">red<\/b> marbles did you actually draw (before any changes)? ",
            "catchKey": 21,
            "catchResponse": 12,
            "catchTime": 1678826185418,
            "trialTime": 0
        },
        {
            "exptPart": "trial",
            "trialNumber": 15,
            "roleCurrent": "receiver",
            "marblesSampled": 100,
            "probRed": 0.5,
            "lambda": 5,
            "drawnRed": 52,
            "reportedRed": 55,
            "inferredRed": 56,
            "playerTrialScore": -4,
            "oppTrialScore": 4,
            "playerTotalScore": -104,
            "oppTotalScore": -24,
            "waitTime": 6461.999277581726,
            "responseTime": 1678826209667,
            "catchQuestion": "How many <b class=\"r\">red<\/b> marbles did you actually draw (before any changes)? ",
            "catchKey": -1,
            "catchResponse": -1,
            "catchTime": 1678826209667,
            "trialTime": 0
        },
        {
            "exptPart": "trial",
            "trialNumber": 16,
            "roleCurrent": "sender",
            "marblesSampled": 100,
            "probRed": 0.5,
            "lambda": 5,
            "drawnRed": 92,
            "reportedRed": 92,
            "inferredRed": 90,
            "playerTrialScore": 0,
            "oppTrialScore": -2,
            "playerTotalScore": -104,
            "oppTotalScore": -26,
            "waitTime": 3121.7237593433624,
            "responseTime": 1678826224817,
            "catchQuestion": "How many <b class=\"r\">red<\/b> marbles did you actually draw (before any changes)? ",
            "catchKey": -1,
            "catchResponse": -1,
            "catchTime": 1678826209667,
            "trialTime": 0
        },
        {
            "exptPart": "trial",
            "trialNumber": 17,
            "roleCurrent": "receiver",
            "marblesSampled": 100,
            "probRed": 0.5,
            "lambda": 5,
            "drawnRed": 68,
            "reportedRed": 73,
            "inferredRed": 1,
            "playerTrialScore": -67,
            "oppTrialScore": 0,
            "playerTotalScore": -171,
            "oppTotalScore": -26,
            "waitTime": 6609.005794420405,
            "responseTime": 1678826234266,
            "catchQuestion": "How many <b class=\"r\">red<\/b> marbles did you actually draw (before any changes)? ",
            "catchKey": -1,
            "catchResponse": -1,
            "catchTime": 1678826209667,
            "trialTime": 0
        },
        {
            "exptPart": "trial",
            "trialNumber": 18,
            "roleCurrent": "sender",
            "marblesSampled": 100,
            "probRed": 0.5,
            "lambda": 5,
            "drawnRed": 50,
            "reportedRed": 50,
            "inferredRed": 45,
            "playerTrialScore": 0,
            "oppTrialScore": -5,
            "playerTotalScore": -171,
            "oppTotalScore": -31,
            "waitTime": 2572.2319830968518,
            "responseTime": 1678826240484,
            "catchQuestion": "How many <b class=\"r\">red<\/b> marbles did you actually draw (before any changes)? ",
            "catchKey": -1,
            "catchResponse": -1,
            "catchTime": 1678826209667,
            "trialTime": 0
        },
        {
            "exptPart": "trial",
            "trialNumber": 19,
            "roleCurrent": "receiver",
            "marblesSampled": 100,
            "probRed": 0.5,
            "lambda": 5,
            "drawnRed": 24,
            "reportedRed": 33,
            "inferredRed": 12,
            "playerTrialScore": -12,
            "oppTrialScore": 0,
            "playerTotalScore": -183,
            "oppTotalScore": -31,
            "waitTime": 6217.096876830747,
            "responseTime": 1678826250933,
            "catchQuestion": "How many <b class=\"r\">red<\/b> marbles did you actually draw (before any changes)? ",
            "catchKey": -1,
            "catchResponse": -1,
            "catchTime": 1678826209667,
            "trialTime": 0
        },
        {
            "exptPart": "trial",
            "trialNumber": 20,
            "roleCurrent": "sender",
            "marblesSampled": 100,
            "probRed": 0.5,
            "lambda": 5,
            "drawnRed": 51,
            "reportedRed": 51,
            "inferredRed": 46,
            "playerTrialScore": 0,
            "oppTrialScore": -5,
            "playerTotalScore": -183,
            "oppTotalScore": -36,
            "waitTime": 2529.191364760468,
            "responseTime": 1678826258051,
            "catchQuestion": "How many <b class=\"r\">red<\/b> marbles did you actually draw (before any changes)? ",
            "catchKey": -1,
            "catchResponse": -1,
            "catchTime": 1678826258051,
            "trialTime": 0
        },
        {
            "exptPart": "trial",
            "trialNumber": 21,
            "roleCurrent": "receiver",
            "marblesSampled": 100,
            "probRed": 0.5,
            "lambda": 5,
            "drawnRed": 78,
            "reportedRed": 83,
            "inferredRed": 12,
            "playerTrialScore": -66,
            "oppTrialScore": 0,
            "playerTotalScore": -249,
            "oppTotalScore": -36,
            "waitTime": 6554.456309653135,
            "responseTime": 1678826328149,
            "catchQuestion": "How many <b class=\"r\">red<\/b> marbles did you actually draw (before any changes)? ",
            "catchKey": -1,
            "catchResponse": -1,
            "catchTime": 1678826258051,
            "trialTime": 0
        },
        {
            "exptPart": "trial",
            "trialNumber": 22,
            "roleCurrent": "sender",
            "marblesSampled": 100,
            "probRed": 0.5,
            "lambda": 5,
            "drawnRed": 40,
            "reportedRed": 40,
            "inferredRed": 34,
            "playerTrialScore": 0,
            "oppTrialScore": -6,
            "playerTotalScore": -249,
            "oppTotalScore": -42,
            "waitTime": 2943.3849568066316,
            "responseTime": 1678826336784,
            "catchQuestion": "How many <b class=\"r\">red<\/b> marbles did you actually draw (before any changes)? ",
            "catchKey": -1,
            "catchResponse": -1,
            "catchTime": 1678826258051,
            "trialTime": 0
        },
        {
            "exptPart": "trial",
            "trialNumber": 23,
            "roleCurrent": "receiver",
            "marblesSampled": 100,
            "probRed": 0.5,
            "lambda": 5,
            "drawnRed": 83,
            "reportedRed": 86,
            "inferredRed": 2,
            "playerTrialScore": -81,
            "oppTrialScore": 0,
            "playerTotalScore": -330,
            "oppTotalScore": -42,
            "waitTime": 5493.237538430685,
            "responseTime": 1678826347549,
            "catchQuestion": "How many <b class=\"r\">red<\/b> marbles did you actually draw (before any changes)? ",
            "catchKey": -1,
            "catchResponse": -1,
            "catchTime": 1678826258051,
            "trialTime": 0
        },
        {
            "exptPart": "trial",
            "trialNumber": 24,
            "roleCurrent": "sender",
            "marblesSampled": 100,
            "probRed": 0.5,
            "lambda": 5,
            "drawnRed": 56,
            "reportedRed": 56,
            "inferredRed": 42,
            "playerTrialScore": 0,
            "oppTrialScore": -14,
            "playerTotalScore": -330,
            "oppTotalScore": -56,
            "waitTime": 2618.5522685105075,
            "responseTime": 1678826354800,
            "catchQuestion": "How many <b class=\"r\">red<\/b> marbles did you actually draw (before any changes)? ",
            "catchKey": -1,
            "catchResponse": -1,
            "catchTime": 1678826258051,
            "trialTime": 0
        },
        {
            "exptPart": "trial",
            "trialNumber": 25,
            "roleCurrent": "receiver",
            "marblesSampled": 100,
            "probRed": 0.5,
            "lambda": 5,
            "drawnRed": 39,
            "reportedRed": 44,
            "inferredRed": 3,
            "playerTrialScore": -36,
            "oppTrialScore": 0,
            "playerTotalScore": -366,
            "oppTotalScore": -56,
            "waitTime": 5805.278744008761,
            "responseTime": 1678826363966,
            "catchQuestion": "How many <b class=\"r\">red<\/b> marbles did you actually draw (before any changes)? ",
            "catchKey": -1,
            "catchResponse": -1,
            "catchTime": 1678826363966,
            "trialTime": 0
        },
        {
            "exptPart": "trial",
            "trialNumber": 26,
            "roleCurrent": "sender",
            "marblesSampled": 100,
            "probRed": 0.5,
            "lambda": 5,
            "drawnRed": 75,
            "reportedRed": 75,
            "inferredRed": 71,
            "playerTrialScore": 0,
            "oppTrialScore": -4,
            "playerTotalScore": -366,
            "oppTotalScore": -60,
            "waitTime": 2116.8631373089092,
            "responseTime": 1678826374050,
            "catchQuestion": "How many <b class=\"r\">red<\/b> marbles did you actually draw (before any changes)? ",
            "catchKey": -1,
            "catchResponse": -1,
            "catchTime": 1678826363966,
            "trialTime": 0
        },
        {
            "exptPart": "trial",
            "trialNumber": 27,
            "roleCurrent": "receiver",
            "marblesSampled": 100,
            "probRed": 0.5,
            "lambda": 5,
            "drawnRed": 58,
            "reportedRed": 66,
            "inferredRed": 39,
            "playerTrialScore": -19,
            "oppTrialScore": 0,
            "playerTotalScore": -385,
            "oppTotalScore": -60,
            "waitTime": 7033.277389151963,
            "responseTime": 1678826388916,
            "catchQuestion": "How many <b class=\"r\">red<\/b> marbles did you actually draw (before any changes)? ",
            "catchKey": -1,
            "catchResponse": -1,
            "catchTime": 1678826363966,
            "trialTime": 0
        },
        {
            "exptPart": "trial",
            "trialNumber": 28,
            "roleCurrent": "sender",
            "marblesSampled": 100,
            "probRed": 0.5,
            "lambda": 5,
            "drawnRed": 75,
            "reportedRed": 75,
            "inferredRed": 71,
            "playerTrialScore": 0,
            "oppTrialScore": -4,
            "playerTotalScore": -385,
            "oppTotalScore": -64,
            "waitTime": 2407.2687658060177,
            "responseTime": 1678826395299,
            "catchQuestion": "How many <b class=\"r\">red<\/b> marbles did you actually draw (before any changes)? ",
            "catchKey": -1,
            "catchResponse": -1,
            "catchTime": 1678826363966,
            "trialTime": 0
        },
        {
            "exptPart": "trial",
            "trialNumber": 29,
            "roleCurrent": "receiver",
            "marblesSampled": 100,
            "probRed": 0.5,
            "lambda": 5,
            "drawnRed": 61,
            "reportedRed": 65,
            "inferredRed": 56,
            "playerTrialScore": -5,
            "oppTrialScore": 0,
            "playerTotalScore": -390,
            "oppTotalScore": -64,
            "waitTime": 6185.480958192598,
            "responseTime": 1678826405049,
            "catchQuestion": "How many <b class=\"r\">red<\/b> marbles did you actually draw (before any changes)? ",
            "catchKey": -1,
            "catchResponse": -1,
            "catchTime": 1678826363966,
            "trialTime": 0
        },
        {
            "exptPart": "trial",
            "trialNumber": 30,
            "roleCurrent": "sender",
            "marblesSampled": 100,
            "probRed": 0.5,
            "lambda": 5,
            "drawnRed": 68,
            "reportedRed": 68,
            "inferredRed": 64,
            "playerTrialScore": 0,
            "oppTrialScore": -4,
            "playerTotalScore": -390,
            "oppTotalScore": -68,
            "waitTime": 2072.3646118794204,
            "responseTime": 1678826412083,
            "catchQuestion": "How many <b class=\"r\">red<\/b> marbles did you actually draw (before any changes)? ",
            "catchKey": 68,
            "catchResponse": 34,
            "catchTime": 1678826412083,
            "trialTime": 0
        },
        {
            "exptPart": "trial",
            "trialNumber": 31,
            "roleCurrent": "receiver",
            "marblesSampled": 100,
            "probRed": 0.5,
            "lambda": 5,
            "drawnRed": 25,
            "reportedRed": 29,
            "inferredRed": 20,
            "playerTrialScore": -5,
            "oppTrialScore": 0,
            "playerTotalScore": -395,
            "oppTotalScore": -68,
            "waitTime": 6432.9694502048515,
            "responseTime": 1678826430545,
            "catchQuestion": "How many <b class=\"r\">red<\/b> marbles did you actually draw (before any changes)? ",
            "catchKey": -1,
            "catchResponse": -1,
            "catchTime": 1678826412083,
            "trialTime": 0
        },
        {
            "exptPart": "trial",
            "trialNumber": 32,
            "roleCurrent": "sender",
            "marblesSampled": 100,
            "probRed": 0.5,
            "lambda": 5,
            "drawnRed": 77,
            "reportedRed": 77,
            "inferredRed": 73,
            "playerTrialScore": 0,
            "oppTrialScore": -4,
            "playerTotalScore": -395,
            "oppTotalScore": -72,
            "waitTime": 2873.9602758154733,
            "responseTime": 1678826437561,
            "catchQuestion": "How many <b class=\"r\">red<\/b> marbles did you actually draw (before any changes)? ",
            "catchKey": -1,
            "catchResponse": -1,
            "catchTime": 1678826412083,
            "trialTime": 0
        },
        {
            "exptPart": "trial",
            "trialNumber": 33,
            "roleCurrent": "receiver",
            "marblesSampled": 100,
            "probRed": 0.5,
            "lambda": 5,
            "drawnRed": 34,
            "reportedRed": 38,
            "inferredRed": 35,
            "playerTrialScore": -1,
            "oppTrialScore": 1,
            "playerTotalScore": -396,
            "oppTotalScore": -71,
            "waitTime": 7122.46359237,
            "responseTime": 1678826455091,
            "catchQuestion": "How many <b class=\"r\">red<\/b> marbles did you actually draw (before any changes)? ",
            "catchKey": -1,
            "catchResponse": -1,
            "catchTime": 1678826412083,
            "trialTime": 0
        },
        {
            "exptPart": "trial",
            "trialNumber": 34,
            "roleCurrent": "sender",
            "marblesSampled": 100,
            "probRed": 0.5,
            "lambda": 5,
            "drawnRed": 62,
            "reportedRed": 62,
            "inferredRed": 56,
            "playerTrialScore": 0,
            "oppTrialScore": -6,
            "playerTotalScore": -396,
            "oppTotalScore": -77,
            "waitTime": 2696.1285174223312,
            "responseTime": 1678826462808,
            "catchQuestion": "How many <b class=\"r\">red<\/b> marbles did you actually draw (before any changes)? ",
            "catchKey": -1,
            "catchResponse": -1,
            "catchTime": 1678826412083,
            "trialTime": 0
        },
        {
            "exptPart": "trial",
            "trialNumber": 35,
            "roleCurrent": "receiver",
            "marblesSampled": 100,
            "probRed": 0.5,
            "lambda": 5,
            "drawnRed": 46,
            "reportedRed": 52,
            "inferredRed": 56,
            "playerTrialScore": -10,
            "oppTrialScore": 10,
            "playerTotalScore": -406,
            "oppTotalScore": -67,
            "waitTime": 6073.130491906223,
            "responseTime": 1678826473774,
            "catchQuestion": "How many <b class=\"r\">red<\/b> marbles did you actually draw (before any changes)? ",
            "catchKey": -1,
            "catchResponse": -1,
            "catchTime": 1678826473774,
            "trialTime": 0
        },
        {
            "exptPart": "trial",
            "trialNumber": 36,
            "roleCurrent": "sender",
            "marblesSampled": 100,
            "probRed": 0.5,
            "lambda": 5,
            "drawnRed": 36,
            "reportedRed": 36,
            "inferredRed": 32,
            "playerTrialScore": 0,
            "oppTrialScore": -4,
            "playerTotalScore": -406,
            "oppTotalScore": -71,
            "waitTime": 2780.7612994774463,
            "responseTime": 1678826482707,
            "catchQuestion": "How many <b class=\"r\">red<\/b> marbles did you actually draw (before any changes)? ",
            "catchKey": -1,
            "catchResponse": -1,
            "catchTime": 1678826473774,
            "trialTime": 0
        },
        {
            "exptPart": "trial",
            "trialNumber": 37,
            "roleCurrent": "receiver",
            "marblesSampled": 100,
            "probRed": 0.5,
            "lambda": 5,
            "drawnRed": 37,
            "reportedRed": 44,
            "inferredRed": 45,
            "playerTrialScore": -8,
            "oppTrialScore": 8,
            "playerTotalScore": -414,
            "oppTotalScore": -63,
            "waitTime": 5384.762965055921,
            "responseTime": 1678826491290,
            "catchQuestion": "How many <b class=\"r\">red<\/b> marbles did you actually draw (before any changes)? ",
            "catchKey": -1,
            "catchResponse": -1,
            "catchTime": 1678826473774,
            "trialTime": 0
        },
        {
            "exptPart": "trial",
            "trialNumber": 38,
            "roleCurrent": "sender",
            "marblesSampled": 100,
            "probRed": 0.5,
            "lambda": 5,
            "drawnRed": 24,
            "reportedRed": 24,
            "inferredRed": 17,
            "playerTrialScore": 0,
            "oppTrialScore": -7,
            "playerTotalScore": -414,
            "oppTotalScore": -70,
            "waitTime": 2107.2855555735264,
            "responseTime": 1678826498491,
            "catchQuestion": "How many <b class=\"r\">red<\/b> marbles did you actually draw (before any changes)? ",
            "catchKey": -1,
            "catchResponse": -1,
            "catchTime": 1678826473774,
            "trialTime": 0
        },
        {
            "exptPart": "trial",
            "trialNumber": 39,
            "roleCurrent": "receiver",
            "marblesSampled": 100,
            "probRed": 0.5,
            "lambda": 5,
            "drawnRed": 50,
            "reportedRed": 53,
            "inferredRed": 55,
            "playerTrialScore": -5,
            "oppTrialScore": 5,
            "playerTotalScore": -419,
            "oppTotalScore": -65,
            "waitTime": 7290.1305420575445,
            "responseTime": 1678826509123,
            "catchQuestion": "How many <b class=\"r\">red<\/b> marbles did you actually draw (before any changes)? ",
            "catchKey": -1,
            "catchResponse": -1,
            "catchTime": 1678826473774,
            "trialTime": 0
        },
        {
            "exptPart": "trial",
            "trialNumber": 40,
            "roleCurrent": "sender",
            "marblesSampled": 100,
            "probRed": 0.5,
            "lambda": 5,
            "drawnRed": 46,
            "reportedRed": 46,
            "inferredRed": 43,
            "playerTrialScore": 0,
            "oppTrialScore": -3,
            "playerTotalScore": -419,
            "oppTotalScore": -68,
            "waitTime": 2863.9031536868692,
            "responseTime": 1678826524307,
            "catchQuestion": "How many <b class=\"r\">red<\/b> marbles did you actually draw (before any changes)? ",
            "catchKey": -1,
            "catchResponse": -1,
            "catchTime": 1678826524307,
            "trialTime": 0
        },
        {
            "exptPart": "trial",
            "trialNumber": 41,
            "roleCurrent": "receiver",
            "marblesSampled": 100,
            "probRed": 0.5,
            "lambda": 5,
            "drawnRed": 60,
            "reportedRed": 66,
            "inferredRed": 68,
            "playerTrialScore": -8,
            "oppTrialScore": 8,
            "playerTotalScore": -427,
            "oppTotalScore": -60,
            "waitTime": 7249.900675662278,
            "responseTime": 1678826539506,
            "catchQuestion": "How many <b class=\"r\">red<\/b> marbles did you actually draw (before any changes)? ",
            "catchKey": -1,
            "catchResponse": -1,
            "catchTime": 1678826524307,
            "trialTime": 0
        },
        {
            "exptPart": "trial",
            "trialNumber": 42,
            "roleCurrent": "sender",
            "marblesSampled": 100,
            "probRed": 0.5,
            "lambda": 5,
            "drawnRed": 82,
            "reportedRed": 84,
            "inferredRed": 78,
            "playerTrialScore": 0,
            "oppTrialScore": -4,
            "playerTotalScore": -427,
            "oppTotalScore": -64,
            "waitTime": 2239.804497711949,
            "responseTime": 1678826558607,
            "catchQuestion": "How many <b class=\"r\">red<\/b> marbles did you actually draw (before any changes)? ",
            "catchKey": -1,
            "catchResponse": -1,
            "catchTime": 1678826524307,
            "trialTime": 0
        },
        {
            "exptPart": "trial",
            "trialNumber": 43,
            "roleCurrent": "receiver",
            "marblesSampled": 100,
            "probRed": 0.5,
            "lambda": 5,
            "drawnRed": 16,
            "reportedRed": 20,
            "inferredRed": 22,
            "playerTrialScore": -6,
            "oppTrialScore": 6,
            "playerTotalScore": -433,
            "oppTotalScore": -58,
            "waitTime": 6939.150346479881,
            "responseTime": 1678826582656,
            "catchQuestion": "How many <b class=\"r\">red<\/b> marbles did your opponent report drawing? ",
            "catchKey": 20,
            "catchResponse": 22,
            "catchTime": 1678826582656,
            "trialTime": 0
        },
        {
            "exptPart": "trial",
            "trialNumber": 44,
            "roleCurrent": "sender",
            "marblesSampled": 100,
            "probRed": 0.5,
            "lambda": 5,
            "drawnRed": 53,
            "reportedRed": 54,
            "inferredRed": 49,
            "playerTrialScore": 0,
            "oppTrialScore": -4,
            "playerTotalScore": -433,
            "oppTotalScore": -62,
            "waitTime": 2258.9148879722698,
            "responseTime": 1678826655023,
            "catchQuestion": "How many <b class=\"r\">red<\/b> marbles did your opponent report drawing? ",
            "catchKey": -1,
            "catchResponse": -1,
            "catchTime": 1678826582656,
            "trialTime": 0
        },
        {
            "exptPart": "trial",
            "trialNumber": 45,
            "roleCurrent": "receiver",
            "marblesSampled": 100,
            "probRed": 0.5,
            "lambda": 5,
            "drawnRed": 77,
            "reportedRed": 79,
            "inferredRed": 82,
            "playerTrialScore": -5,
            "oppTrialScore": 5,
            "playerTotalScore": -438,
            "oppTotalScore": -57,
            "waitTime": 6333.189454091018,
            "responseTime": 1678826698288,
            "catchQuestion": "How many <b class=\"r\">red<\/b> marbles did your opponent report drawing? ",
            "catchKey": -1,
            "catchResponse": -1,
            "catchTime": 1678826698288,
            "trialTime": 0
        },
        {
            "exptPart": "trial",
            "trialNumber": 46,
            "roleCurrent": "sender",
            "marblesSampled": 100,
            "probRed": 0.5,
            "lambda": 5,
            "drawnRed": 72,
            "reportedRed": 72,
            "inferredRed": 70,
            "playerTrialScore": 0,
            "oppTrialScore": -2,
            "playerTotalScore": -438,
            "oppTotalScore": -59,
            "waitTime": 2981.587171720557,
            "responseTime": 1678826713372,
            "catchQuestion": "How many <b class=\"r\">red<\/b> marbles did your opponent report drawing? ",
            "catchKey": -1,
            "catchResponse": -1,
            "catchTime": 1678826698288,
            "trialTime": 0
        },
        {
            "exptPart": "trial",
            "trialNumber": 47,
            "roleCurrent": "receiver",
            "marblesSampled": 100,
            "probRed": 0.5,
            "lambda": 5,
            "drawnRed": 31,
            "reportedRed": 33,
            "inferredRed": 34,
            "playerTrialScore": -3,
            "oppTrialScore": 3,
            "playerTotalScore": -441,
            "oppTotalScore": -56,
            "waitTime": 6307.405859207902,
            "responseTime": 1678826731106,
            "catchQuestion": "How many <b class=\"r\">red<\/b> marbles did your opponent report drawing? ",
            "catchKey": -1,
            "catchResponse": -1,
            "catchTime": 1678826698288,
            "trialTime": 0
        },
        {
            "exptPart": "trial",
            "trialNumber": 48,
            "roleCurrent": "sender",
            "marblesSampled": 100,
            "probRed": 0.5,
            "lambda": 5,
            "drawnRed": 26,
            "reportedRed": 26,
            "inferredRed": 20,
            "playerTrialScore": 0,
            "oppTrialScore": -6,
            "playerTotalScore": -441,
            "oppTotalScore": -62,
            "waitTime": 2653.8124993591787,
            "responseTime": 1678826942104,
            "catchQuestion": "How many <b class=\"r\">red<\/b> marbles did your opponent report drawing? ",
            "catchKey": -1,
            "catchResponse": -1,
            "catchTime": 1678826698288,
            "trialTime": 0
        },
        {
            "exptPart": "trial",
            "trialNumber": 49,
            "roleCurrent": "receiver",
            "marblesSampled": 100,
            "probRed": 0.5,
            "lambda": 5,
            "drawnRed": 60,
            "reportedRed": 64,
            "inferredRed": 58,
            "playerTrialScore": -2,
            "oppTrialScore": 0,
            "playerTotalScore": -443,
            "oppTotalScore": -62,
            "waitTime": 5767.4065262011045,
            "responseTime": 1678826954553,
            "catchQuestion": "How many <b class=\"r\">red<\/b> marbles did your opponent report drawing? ",
            "catchKey": -1,
            "catchResponse": -1,
            "catchTime": 1678826698288,
            "trialTime": 0
        },
        {
            "exptPart": "trial",
            "trialNumber": 50,
            "roleCurrent": "sender",
            "marblesSampled": 100,
            "probRed": 0.5,
            "lambda": 5,
            "drawnRed": 52,
            "reportedRed": 52,
            "inferredRed": 46,
            "playerTrialScore": 0,
            "oppTrialScore": -6,
            "playerTotalScore": -443,
            "oppTotalScore": -68,
            "waitTime": 2291.1863172799094,
            "responseTime": 1678826964403,
            "catchQuestion": "How many <b class=\"r\">red<\/b> marbles did your opponent report drawing? ",
            "catchKey": -1,
            "catchResponse": -1,
            "catchTime": 1678826964403,
            "trialTime": 0
        },
        {
            "exptPart": "trial",
            "trialNumber": 51,
            "roleCurrent": "receiver",
            "marblesSampled": 100,
            "probRed": 0.5,
            "lambda": 5,
            "drawnRed": 51,
            "reportedRed": 58,
            "inferredRed": 56,
            "playerTrialScore": -5,
            "oppTrialScore": 5,
            "playerTotalScore": -448,
            "oppTotalScore": -63,
            "waitTime": 5148.071140896773,
            "responseTime": 1678826976903,
            "catchQuestion": "How many <b class=\"r\">red<\/b> marbles did your opponent report drawing? ",
            "catchKey": -1,
            "catchResponse": -1,
            "catchTime": 1678826964403,
            "trialTime": 0
        },
        {
            "exptPart": "trial",
            "trialNumber": 52,
            "roleCurrent": "sender",
            "marblesSampled": 100,
            "probRed": 0.5,
            "lambda": 5,
            "drawnRed": 22,
            "reportedRed": 22,
            "inferredRed": 15,
            "playerTrialScore": 0,
            "oppTrialScore": -7,
            "playerTotalScore": -448,
            "oppTotalScore": -70,
            "waitTime": 2149.2495113284504,
            "responseTime": 1678826984237,
            "catchQuestion": "How many <b class=\"r\">red<\/b> marbles did your opponent report drawing? ",
            "catchKey": -1,
            "catchResponse": -1,
            "catchTime": 1678826964403,
            "trialTime": 0
        },
        {
            "exptPart": "trial",
            "trialNumber": 53,
            "roleCurrent": "receiver",
            "marblesSampled": 100,
            "probRed": 0.5,
            "lambda": 5,
            "drawnRed": 86,
            "reportedRed": 90,
            "inferredRed": 92,
            "playerTrialScore": -6,
            "oppTrialScore": 6,
            "playerTotalScore": -454,
            "oppTotalScore": -64,
            "waitTime": 6601.512097120177,
            "responseTime": 1678826997636,
            "catchQuestion": "How many <b class=\"r\">red<\/b> marbles did your opponent report drawing? ",
            "catchKey": -1,
            "catchResponse": -1,
            "catchTime": 1678826964403,
            "trialTime": 0
        },
        {
            "exptPart": "trial",
            "trialNumber": 54,
            "roleCurrent": "sender",
            "marblesSampled": 100,
            "probRed": 0.5,
            "lambda": 5,
            "drawnRed": 51,
            "reportedRed": 51,
            "inferredRed": 46,
            "playerTrialScore": 0,
            "oppTrialScore": -5,
            "playerTotalScore": -454,
            "oppTotalScore": -69,
            "waitTime": 2629.5129459133123,
            "responseTime": 1678827012453,
            "catchQuestion": "How many <b class=\"r\">red<\/b> marbles did your opponent report drawing? ",
            "catchKey": -1,
            "catchResponse": -1,
            "catchTime": 1678826964403,
            "trialTime": 0
        },
        {
            "exptPart": "trial",
            "trialNumber": 55,
            "roleCurrent": "receiver",
            "marblesSampled": 100,
            "probRed": 0.5,
            "lambda": 5,
            "drawnRed": 34,
            "reportedRed": 37,
            "inferredRed": 38,
            "playerTrialScore": -4,
            "oppTrialScore": 4,
            "playerTotalScore": -458,
            "oppTotalScore": -65,
            "waitTime": 5951.296704614686,
            "responseTime": 1678827026020,
            "catchQuestion": "How many <b class=\"r\">red<\/b> marbles did your opponent report drawing? ",
            "catchKey": -1,
            "catchResponse": -1,
            "catchTime": 1678827026020,
            "trialTime": 0
        },
        {
            "exptPart": "trial",
            "trialNumber": 56,
            "roleCurrent": "sender",
            "marblesSampled": 100,
            "probRed": 0.5,
            "lambda": 5,
            "drawnRed": 51,
            "reportedRed": 51,
            "inferredRed": 49,
            "playerTrialScore": 0,
            "oppTrialScore": -2,
            "playerTotalScore": -458,
            "oppTotalScore": -67,
            "waitTime": 2879.087995270761,
            "responseTime": 1678827042119,
            "catchQuestion": "How many <b class=\"r\">red<\/b> marbles did your opponent report drawing? ",
            "catchKey": -1,
            "catchResponse": -1,
            "catchTime": 1678827026020,
            "trialTime": 0
        },
        {
            "exptPart": "trial",
            "trialNumber": 57,
            "roleCurrent": "receiver",
            "marblesSampled": 100,
            "probRed": 0.5,
            "lambda": 5,
            "drawnRed": 61,
            "reportedRed": 63,
            "inferredRed": 62,
            "playerTrialScore": -1,
            "oppTrialScore": 1,
            "playerTotalScore": -459,
            "oppTotalScore": -66,
            "waitTime": 7048.040943105261,
            "responseTime": 1678827057002,
            "catchQuestion": "How many <b class=\"r\">red<\/b> marbles did your opponent report drawing? ",
            "catchKey": -1,
            "catchResponse": -1,
            "catchTime": 1678827026020,
            "trialTime": 0
        },
        {
            "exptPart": "trial",
            "trialNumber": 58,
            "roleCurrent": "sender",
            "marblesSampled": 100,
            "probRed": 0.5,
            "lambda": 5,
            "drawnRed": 56,
            "reportedRed": 54,
            "inferredRed": 54,
            "playerTrialScore": 0,
            "oppTrialScore": -2,
            "playerTotalScore": -459,
            "oppTotalScore": -68,
            "waitTime": 2161.280636988721,
            "responseTime": 1678827068819,
            "catchQuestion": "How many <b class=\"r\">red<\/b> marbles did your opponent report drawing? ",
            "catchKey": -1,
            "catchResponse": -1,
            "catchTime": 1678827026020,
            "trialTime": 0
        },
        {
            "exptPart": "trial",
            "trialNumber": 59,
            "roleCurrent": "receiver",
            "marblesSampled": 100,
            "probRed": 0.5,
            "lambda": 5,
            "drawnRed": 69,
            "reportedRed": 71,
            "inferredRed": 72,
            "playerTrialScore": -3,
            "oppTrialScore": 3,
            "playerTotalScore": -462,
            "oppTotalScore": -65,
            "waitTime": 5611.242677728043,
            "responseTime": 1678827079935,
            "catchQuestion": "How many <b class=\"r\">red<\/b> marbles did your opponent report drawing? ",
            "catchKey": -1,
            "catchResponse": -1,
            "catchTime": 1678827026020,
            "trialTime": 0
        },
        {
            "exptPart": "trial",
            "trialNumber": 60,
            "roleCurrent": "sender",
            "marblesSampled": 100,
            "probRed": 0.5,
            "lambda": 5,
            "drawnRed": 66,
            "reportedRed": 66,
            "inferredRed": 59,
            "playerTrialScore": 0,
            "oppTrialScore": -7,
            "playerTotalScore": -462,
            "oppTotalScore": -72,
            "waitTime": 2677.8939133837694,
            "responseTime": 1678827089653,
            "catchQuestion": "How many <b class=\"r\">red<\/b> marbles did your opponent report drawing? ",
            "catchKey": -1,
            "catchResponse": -1,
            "catchTime": 1678827089653,
            "trialTime": 0
        },
        {
            "exptPart": "trial",
            "trialNumber": 61,
            "roleCurrent": "receiver",
            "marblesSampled": 100,
            "probRed": 0.5,
            "lambda": 5,
            "drawnRed": 30,
            "reportedRed": 31,
            "inferredRed": 35,
            "playerTrialScore": -5,
            "oppTrialScore": 5,
            "playerTotalScore": -467,
            "oppTotalScore": -67,
            "waitTime": 6744.502672395913,
            "responseTime": 1678827102751,
            "catchQuestion": "How many <b class=\"r\">red<\/b> marbles did your opponent report drawing? ",
            "catchKey": -1,
            "catchResponse": -1,
            "catchTime": 1678827089653,
            "trialTime": 0
        },
        {
            "exptPart": "trial",
            "trialNumber": 62,
            "roleCurrent": "sender",
            "marblesSampled": 100,
            "probRed": 0.5,
            "lambda": 5,
            "drawnRed": 48,
            "reportedRed": 47,
            "inferredRed": 44,
            "playerTrialScore": 0,
            "oppTrialScore": -4,
            "playerTotalScore": -467,
            "oppTotalScore": -71,
            "waitTime": 3178.0405535100226,
            "responseTime": 1678827118835,
            "catchQuestion": "How many <b class=\"r\">red<\/b> marbles did your opponent report drawing? ",
            "catchKey": -1,
            "catchResponse": -1,
            "catchTime": 1678827089653,
            "trialTime": 0
        },
        {
            "exptPart": "trial",
            "trialNumber": 63,
            "roleCurrent": "receiver",
            "marblesSampled": 100,
            "probRed": 0.5,
            "lambda": 5,
            "drawnRed": 34,
            "reportedRed": 37,
            "inferredRed": 38,
            "playerTrialScore": -4,
            "oppTrialScore": 4,
            "playerTotalScore": -471,
            "oppTotalScore": -67,
            "waitTime": 5405.983221324763,
            "responseTime": 1678827135518,
            "catchQuestion": "How many <b class=\"r\">red<\/b> marbles did your opponent report drawing? ",
            "catchKey": -1,
            "catchResponse": -1,
            "catchTime": 1678827089653,
            "trialTime": 0
        },
        {
            "exptPart": "trial",
            "trialNumber": 64,
            "roleCurrent": "sender",
            "marblesSampled": 100,
            "probRed": 0.5,
            "lambda": 5,
            "drawnRed": 61,
            "reportedRed": 63,
            "inferredRed": 55,
            "playerTrialScore": 0,
            "oppTrialScore": -6,
            "playerTotalScore": -471,
            "oppTotalScore": -73,
            "waitTime": 2747.5295514858444,
            "responseTime": 1678827153452,
            "catchQuestion": "How many <b class=\"r\">red<\/b> marbles did your opponent report drawing? ",
            "catchKey": -1,
            "catchResponse": -1,
            "catchTime": 1678827089653,
            "trialTime": 0
        },
        {
            "exptPart": "trial",
            "trialNumber": 65,
            "roleCurrent": "receiver",
            "marblesSampled": 100,
            "probRed": 0.5,
            "lambda": 5,
            "drawnRed": 31,
            "reportedRed": 36,
            "inferredRed": 39,
            "playerTrialScore": -8,
            "oppTrialScore": 8,
            "playerTotalScore": -479,
            "oppTotalScore": -65,
            "waitTime": 5623.065109286992,
            "responseTime": 1678827170401,
            "catchQuestion": "How many <b class=\"r\">red<\/b> marbles did your opponent report drawing? ",
            "catchKey": -1,
            "catchResponse": -1,
            "catchTime": 1678827170401,
            "trialTime": 0
        },
        {
            "exptPart": "trial",
            "trialNumber": 66,
            "roleCurrent": "sender",
            "marblesSampled": 100,
            "probRed": 0.5,
            "lambda": 5,
            "drawnRed": 25,
            "reportedRed": 28,
            "inferredRed": 21,
            "playerTrialScore": 0,
            "oppTrialScore": -4,
            "playerTotalScore": -479,
            "oppTotalScore": -69,
            "waitTime": 2335.7763131227375,
            "responseTime": 1678827188736,
            "catchQuestion": "How many <b class=\"r\">red<\/b> marbles did your opponent report drawing? ",
            "catchKey": -1,
            "catchResponse": -1,
            "catchTime": 1678827170401,
            "trialTime": 0
        },
        {
            "exptPart": "trial",
            "trialNumber": 67,
            "roleCurrent": "receiver",
            "marblesSampled": 100,
            "probRed": 0.5,
            "lambda": 5,
            "drawnRed": 62,
            "reportedRed": 68,
            "inferredRed": 67,
            "playerTrialScore": -5,
            "oppTrialScore": 5,
            "playerTotalScore": -484,
            "oppTotalScore": -64,
            "waitTime": 5378.192642460038,
            "responseTime": 1678827214985,
            "catchQuestion": "How many <b class=\"r\">red<\/b> marbles did your opponent report drawing? ",
            "catchKey": -1,
            "catchResponse": -1,
            "catchTime": 1678827170401,
            "trialTime": 0
        },
        {
            "exptPart": "trial",
            "trialNumber": 68,
            "roleCurrent": "sender",
            "marblesSampled": 100,
            "probRed": 0.5,
            "lambda": 5,
            "drawnRed": 50,
            "reportedRed": 50,
            "inferredRed": 47,
            "playerTrialScore": 0,
            "oppTrialScore": -3,
            "playerTotalScore": -484,
            "oppTotalScore": -67,
            "waitTime": 2828.507449462757,
            "responseTime": 1678827228618,
            "catchQuestion": "How many <b class=\"r\">red<\/b> marbles did your opponent report drawing? ",
            "catchKey": -1,
            "catchResponse": -1,
            "catchTime": 1678827170401,
            "trialTime": 0
        },
        {
            "exptPart": "trial",
            "trialNumber": 69,
            "roleCurrent": "receiver",
            "marblesSampled": 100,
            "probRed": 0.5,
            "lambda": 5,
            "drawnRed": 70,
            "reportedRed": 72,
            "inferredRed": 76,
            "playerTrialScore": -6,
            "oppTrialScore": 6,
            "playerTotalScore": -490,
            "oppTotalScore": -61,
            "waitTime": 5871.801240437879,
            "responseTime": 1678827241583,
            "catchQuestion": "How many <b class=\"r\">red<\/b> marbles did your opponent report drawing? ",
            "catchKey": -1,
            "catchResponse": -1,
            "catchTime": 1678827170401,
            "trialTime": 0
        },
        {
            "exptPart": "trial",
            "trialNumber": 70,
            "roleCurrent": "sender",
            "marblesSampled": 100,
            "probRed": 0.5,
            "lambda": 5,
            "drawnRed": 22,
            "reportedRed": 22,
            "inferredRed": 20,
            "playerTrialScore": 0,
            "oppTrialScore": -2,
            "playerTotalScore": -490,
            "oppTotalScore": -63,
            "waitTime": 3188.3601865147666,
            "responseTime": 1678827379616,
            "catchQuestion": "How many <b class=\"r\">red<\/b> marbles did your opponent report drawing? ",
            "catchKey": -1,
            "catchResponse": -1,
            "catchTime": 1678827379617,
            "trialTime": 0
        },
        {
            "exptPart": "trial",
            "trialNumber": 71,
            "roleCurrent": "receiver",
            "marblesSampled": 100,
            "probRed": 0.5,
            "lambda": 5,
            "drawnRed": 43,
            "reportedRed": 53,
            "inferredRed": 55,
            "playerTrialScore": -12,
            "oppTrialScore": 12,
            "playerTotalScore": -502,
            "oppTotalScore": -51,
            "waitTime": 7452.0558774341625,
            "responseTime": 1678827396032,
            "catchQuestion": "How many <b class=\"r\">red<\/b> marbles did your opponent report drawing? ",
            "catchKey": -1,
            "catchResponse": -1,
            "catchTime": 1678827379617,
            "trialTime": 0
        },
        {
            "exptPart": "trial",
            "trialNumber": 72,
            "roleCurrent": "sender",
            "marblesSampled": 100,
            "probRed": 0.5,
            "lambda": 5,
            "drawnRed": 23,
            "reportedRed": 23,
            "inferredRed": 21,
            "playerTrialScore": 0,
            "oppTrialScore": -2,
            "playerTotalScore": -502,
            "oppTotalScore": -53,
            "waitTime": 2882.3801279642357,
            "responseTime": 1678827453416,
            "catchQuestion": "How many <b class=\"r\">red<\/b> marbles did your opponent report drawing? ",
            "catchKey": -1,
            "catchResponse": -1,
            "catchTime": 1678827379617,
            "trialTime": 0
        },
        {
            "exptPart": "trial",
            "trialNumber": 73,
            "roleCurrent": "receiver",
            "marblesSampled": 100,
            "probRed": 0.5,
            "lambda": 5,
            "drawnRed": 12,
            "reportedRed": 18,
            "inferredRed": 20,
            "playerTrialScore": -8,
            "oppTrialScore": 8,
            "playerTotalScore": -510,
            "oppTotalScore": -45,
            "waitTime": 5567.170609319961,
            "responseTime": 1678827463915,
            "catchQuestion": "How many <b class=\"r\">red<\/b> marbles did your opponent report drawing? ",
            "catchKey": -1,
            "catchResponse": -1,
            "catchTime": 1678827379617,
            "trialTime": 0
        },
        {
            "exptPart": "trial",
            "trialNumber": 74,
            "roleCurrent": "sender",
            "marblesSampled": 100,
            "probRed": 0.5,
            "lambda": 5,
            "drawnRed": 23,
            "reportedRed": 25,
            "inferredRed": 19,
            "playerTrialScore": 0,
            "oppTrialScore": -4,
            "playerTotalScore": -510,
            "oppTotalScore": -49,
            "waitTime": 2068.631849981752,
            "responseTime": 1678827485299,
            "catchQuestion": "How many <b class=\"r\">red<\/b> marbles did you actually draw (before any changes)? ",
            "catchKey": 23,
            "catchResponse": 23,
            "catchTime": 1678827485299,
            "trialTime": 0
        },
        {
            "exptPart": "trial",
            "trialNumber": 75,
            "roleCurrent": "receiver",
            "marblesSampled": 100,
            "probRed": 0.5,
            "lambda": 5,
            "drawnRed": 44,
            "reportedRed": 51,
            "inferredRed": 49,
            "playerTrialScore": -5,
            "oppTrialScore": 5,
            "playerTotalScore": -515,
            "oppTotalScore": -44,
            "waitTime": 7194.887871995118,
            "responseTime": 1678827511532,
            "catchQuestion": "How many <b class=\"r\">red<\/b> marbles did your opponent report drawing? ",
            "catchKey": 51,
            "catchResponse": 51,
            "catchTime": 1678827511532,
            "trialTime": 0
        },
        {
            "exptPart": "trial",
            "trialNumber": 76,
            "roleCurrent": "sender",
            "marblesSampled": 100,
            "probRed": 0.5,
            "lambda": 5,
            "drawnRed": 32,
            "reportedRed": 32,
            "inferredRed": 28,
            "playerTrialScore": 0,
            "oppTrialScore": -4,
            "playerTotalScore": -515,
            "oppTotalScore": -48,
            "waitTime": 2954.9493041030764,
            "responseTime": 1678827542598,
            "catchQuestion": "How many <b class=\"r\">red<\/b> marbles did you actually draw (before any changes)? ",
            "catchKey": 32,
            "catchResponse": 67,
            "catchTime": 1678827542598,
            "trialTime": 0
        },
        {
            "exptPart": "trial",
            "trialNumber": 77,
            "roleCurrent": "receiver",
            "marblesSampled": 100,
            "probRed": 0.5,
            "lambda": 5,
            "drawnRed": 88,
            "reportedRed": 94,
            "inferredRed": 96,
            "playerTrialScore": -8,
            "oppTrialScore": 8,
            "playerTotalScore": -523,
            "oppTotalScore": -40,
            "waitTime": 6166.993640233815,
            "responseTime": 1678827566998,
            "catchQuestion": "How many <b class=\"r\">red<\/b> marbles did you actually draw (before any changes)? ",
            "catchKey": -1,
            "catchResponse": -1,
            "catchTime": 1678827542598,
            "trialTime": 0
        },
        {
            "exptPart": "trial",
            "trialNumber": 78,
            "roleCurrent": "sender",
            "marblesSampled": 100,
            "probRed": 0.5,
            "lambda": 5,
            "drawnRed": 47,
            "reportedRed": 47,
            "inferredRed": 42,
            "playerTrialScore": 0,
            "oppTrialScore": -5,
            "playerTotalScore": -523,
            "oppTotalScore": -45,
            "waitTime": 2453.6423344659424,
            "responseTime": 1678827576232,
            "catchQuestion": "How many <b class=\"r\">red<\/b> marbles did you actually draw (before any changes)? ",
            "catchKey": -1,
            "catchResponse": -1,
            "catchTime": 1678827542598,
            "trialTime": 0
        },
        {
            "exptPart": "trial",
            "trialNumber": 79,
            "roleCurrent": "receiver",
            "marblesSampled": 100,
            "probRed": 0.5,
            "lambda": 5,
            "drawnRed": 58,
            "reportedRed": 59,
            "inferredRed": 62,
            "playerTrialScore": -4,
            "oppTrialScore": 4,
            "playerTotalScore": -527,
            "oppTotalScore": -41,
            "waitTime": 6242.452282093114,
            "responseTime": 1678827588765,
            "catchQuestion": "How many <b class=\"r\">red<\/b> marbles did you actually draw (before any changes)? ",
            "catchKey": -1,
            "catchResponse": -1,
            "catchTime": 1678827542598,
            "trialTime": 0
        },
        {
            "exptPart": "trial",
            "trialNumber": 80,
            "roleCurrent": "sender",
            "marblesSampled": 100,
            "probRed": 0.5,
            "lambda": 5,
            "drawnRed": 51,
            "reportedRed": 51,
            "inferredRed": 47,
            "playerTrialScore": 0,
            "oppTrialScore": -4,
            "playerTotalScore": -527,
            "oppTotalScore": -45,
            "waitTime": 2473.03921874129,
            "responseTime": 1678827602565,
            "catchQuestion": "How many <b class=\"r\">red<\/b> marbles did you actually draw (before any changes)? ",
            "catchKey": 51,
            "catchResponse": 67,
            "catchTime": 1678827602565,
            "trialTime": 0
        },
        {
            "exptPart": "trial",
            "trialNumber": 81,
            "roleCurrent": "receiver",
            "marblesSampled": 100,
            "probRed": 0.5,
            "lambda": 5,
            "drawnRed": 20,
            "reportedRed": 24,
            "inferredRed": 22,
            "playerTrialScore": -2,
            "oppTrialScore": 2,
            "playerTotalScore": -529,
            "oppTotalScore": -43,
            "waitTime": 6370.6596777333125,
            "responseTime": 1678827620581,
            "catchQuestion": "How many <b class=\"r\">red<\/b> marbles did you actually draw (before any changes)? ",
            "catchKey": -1,
            "catchResponse": -1,
            "catchTime": 1678827602565,
            "trialTime": 0
        },
        {
            "exptPart": "trial",
            "trialNumber": 82,
            "roleCurrent": "sender",
            "marblesSampled": 100,
            "probRed": 0.5,
            "lambda": 5,
            "drawnRed": 77,
            "reportedRed": 79,
            "inferredRed": 76,
            "playerTrialScore": 0,
            "oppTrialScore": -1,
            "playerTotalScore": -529,
            "oppTotalScore": -44,
            "waitTime": 3143.3329859693818,
            "responseTime": 1678827645748,
            "catchQuestion": "How many <b class=\"r\">red<\/b> marbles did you actually draw (before any changes)? ",
            "catchKey": -1,
            "catchResponse": -1,
            "catchTime": 1678827602565,
            "trialTime": 0
        },
        {
            "exptPart": "trial",
            "trialNumber": 83,
            "roleCurrent": "receiver",
            "marblesSampled": 100,
            "probRed": 0.5,
            "lambda": 5,
            "drawnRed": 37,
            "reportedRed": 44,
            "inferredRed": 45,
            "playerTrialScore": -8,
            "oppTrialScore": 8,
            "playerTotalScore": -537,
            "oppTotalScore": -36,
            "waitTime": 6466.042286951264,
            "responseTime": 1678827656063,
            "catchQuestion": "How many <b class=\"r\">red<\/b> marbles did you actually draw (before any changes)? ",
            "catchKey": -1,
            "catchResponse": -1,
            "catchTime": 1678827602565,
            "trialTime": 0
        },
        {
            "exptPart": "trial",
            "trialNumber": 84,
            "roleCurrent": "sender",
            "marblesSampled": 100,
            "probRed": 0.5,
            "lambda": 5,
            "drawnRed": 27,
            "reportedRed": 27,
            "inferredRed": 19,
            "playerTrialScore": 0,
            "oppTrialScore": -8,
            "playerTotalScore": -537,
            "oppTotalScore": -44,
            "waitTime": 3059.105162638848,
            "responseTime": 1678827680331,
            "catchQuestion": "How many <b class=\"r\">red<\/b> marbles did you actually draw (before any changes)? ",
            "catchKey": -1,
            "catchResponse": -1,
            "catchTime": 1678827602565,
            "trialTime": 0
        },
        {
            "exptPart": "trial",
            "trialNumber": 85,
            "roleCurrent": "receiver",
            "marblesSampled": 100,
            "probRed": 0.5,
            "lambda": 5,
            "drawnRed": 68,
            "reportedRed": 75,
            "inferredRed": 78,
            "playerTrialScore": -10,
            "oppTrialScore": 10,
            "playerTotalScore": -547,
            "oppTotalScore": -34,
            "waitTime": 7166.998140639493,
            "responseTime": 1678827692079,
            "catchQuestion": "How many <b class=\"r\">red<\/b> marbles did your opponent report drawing? ",
            "catchKey": 75,
            "catchResponse": 75,
            "catchTime": 1678827692079,
            "trialTime": 0
        },
        {
            "exptPart": "trial",
            "trialNumber": 86,
            "roleCurrent": "sender",
            "marblesSampled": 100,
            "probRed": 0.5,
            "lambda": 5,
            "drawnRed": 51,
            "reportedRed": 54,
            "inferredRed": 50,
            "playerTrialScore": 0,
            "oppTrialScore": -1,
            "playerTotalScore": -547,
            "oppTotalScore": -35,
            "waitTime": 2484.981095190638,
            "responseTime": 1678827714581,
            "catchQuestion": "How many <b class=\"r\">red<\/b> marbles did your opponent report drawing? ",
            "catchKey": -1,
            "catchResponse": -1,
            "catchTime": 1678827692079,
            "trialTime": 0
        },
        {
            "exptPart": "trial",
            "trialNumber": 87,
            "roleCurrent": "receiver",
            "marblesSampled": 100,
            "probRed": 0.5,
            "lambda": 5,
            "drawnRed": 37,
            "reportedRed": 39,
            "inferredRed": 42,
            "playerTrialScore": -5,
            "oppTrialScore": 5,
            "playerTotalScore": -552,
            "oppTotalScore": -30,
            "waitTime": 6418.339310236495,
            "responseTime": 1678827725580,
            "catchQuestion": "How many <b class=\"r\">red<\/b> marbles did your opponent report drawing? ",
            "catchKey": -1,
            "catchResponse": -1,
            "catchTime": 1678827692079,
            "trialTime": 0
        },
        {
            "exptPart": "trial",
            "trialNumber": 88,
            "roleCurrent": "sender",
            "marblesSampled": 100,
            "probRed": 0.5,
            "lambda": 5,
            "drawnRed": 35,
            "reportedRed": 35,
            "inferredRed": 26,
            "playerTrialScore": 0,
            "oppTrialScore": -9,
            "playerTotalScore": -552,
            "oppTotalScore": -39,
            "waitTime": 2520.330241324991,
            "responseTime": 1678827734680,
            "catchQuestion": "How many <b class=\"r\">red<\/b> marbles did your opponent report drawing? ",
            "catchKey": -1,
            "catchResponse": -1,
            "catchTime": 1678827692079,
            "trialTime": 0
        },
        {
            "exptPart": "trial",
            "trialNumber": 89,
            "roleCurrent": "receiver",
            "marblesSampled": 100,
            "probRed": 0.5,
            "lambda": 5,
            "drawnRed": 20,
            "reportedRed": 24,
            "inferredRed": 25,
            "playerTrialScore": -5,
            "oppTrialScore": 5,
            "playerTotalScore": -557,
            "oppTotalScore": -34,
            "waitTime": 5177.96175221969,
            "responseTime": 1678827746196,
            "catchQuestion": "How many <b class=\"r\">red<\/b> marbles did your opponent report drawing? ",
            "catchKey": -1,
            "catchResponse": -1,
            "catchTime": 1678827692079,
            "trialTime": 0
        },
        {
            "exptPart": "trial",
            "trialNumber": 90,
            "roleCurrent": "sender",
            "marblesSampled": 100,
            "probRed": 0.5,
            "lambda": 5,
            "drawnRed": 28,
            "reportedRed": 28,
            "inferredRed": 21,
            "playerTrialScore": 0,
            "oppTrialScore": -7,
            "playerTotalScore": -557,
            "oppTotalScore": -41,
            "waitTime": 2702.0068126286333,
            "responseTime": 1678827753697,
            "catchQuestion": "How many <b class=\"r\">red<\/b> marbles did your opponent report drawing? ",
            "catchKey": -1,
            "catchResponse": -1,
            "catchTime": 1678827753697,
            "trialTime": 0
        },
        {
            "exptPart": "trial",
            "trialNumber": 91,
            "roleCurrent": "receiver",
            "marblesSampled": 100,
            "probRed": 0.5,
            "lambda": 5,
            "drawnRed": 37,
            "reportedRed": 41,
            "inferredRed": 43,
            "playerTrialScore": -6,
            "oppTrialScore": 6,
            "playerTotalScore": -563,
            "oppTotalScore": -35,
            "waitTime": 6921.853671966635,
            "responseTime": 1678827765563,
            "catchQuestion": "How many <b class=\"r\">red<\/b> marbles did your opponent report drawing? ",
            "catchKey": -1,
            "catchResponse": -1,
            "catchTime": 1678827753697,
            "trialTime": 0
        },
        {
            "exptPart": "trial",
            "trialNumber": 92,
            "roleCurrent": "sender",
            "marblesSampled": 100,
            "probRed": 0.5,
            "lambda": 5,
            "drawnRed": 50,
            "reportedRed": 50,
            "inferredRed": 44,
            "playerTrialScore": 0,
            "oppTrialScore": -6,
            "playerTotalScore": -563,
            "oppTotalScore": -41,
            "waitTime": 2465.4692298830023,
            "responseTime": 1678827773113,
            "catchQuestion": "How many <b class=\"r\">red<\/b> marbles did your opponent report drawing? ",
            "catchKey": -1,
            "catchResponse": -1,
            "catchTime": 1678827753697,
            "trialTime": 0
        },
        {
            "exptPart": "trial",
            "trialNumber": 93,
            "roleCurrent": "receiver",
            "marblesSampled": 100,
            "probRed": 0.5,
            "lambda": 5,
            "drawnRed": 22,
            "reportedRed": 29,
            "inferredRed": 30,
            "playerTrialScore": -8,
            "oppTrialScore": 8,
            "playerTotalScore": -571,
            "oppTotalScore": -33,
            "waitTime": 7091.592823819314,
            "responseTime": 1678827786495,
            "catchQuestion": "How many <b class=\"r\">red<\/b> marbles did your opponent report drawing? ",
            "catchKey": -1,
            "catchResponse": -1,
            "catchTime": 1678827753697,
            "trialTime": 0
        },
        {
            "exptPart": "trial",
            "trialNumber": 94,
            "roleCurrent": "sender",
            "marblesSampled": 100,
            "probRed": 0.5,
            "lambda": 5,
            "drawnRed": 58,
            "reportedRed": 58,
            "inferredRed": 50,
            "playerTrialScore": 0,
            "oppTrialScore": -8,
            "playerTotalScore": -571,
            "oppTotalScore": -41,
            "waitTime": 2229.657292690593,
            "responseTime": 1678827793447,
            "catchQuestion": "How many <b class=\"r\">red<\/b> marbles did your opponent report drawing? ",
            "catchKey": -1,
            "catchResponse": -1,
            "catchTime": 1678827753697,
            "trialTime": 0
        },
        {
            "exptPart": "trial",
            "trialNumber": 95,
            "roleCurrent": "receiver",
            "marblesSampled": 100,
            "probRed": 0.5,
            "lambda": 5,
            "drawnRed": 58,
            "reportedRed": 61,
            "inferredRed": 65,
            "playerTrialScore": -7,
            "oppTrialScore": 7,
            "playerTotalScore": -578,
            "oppTotalScore": -34,
            "waitTime": 7086.585319423294,
            "responseTime": 1678827806228,
            "catchQuestion": "How many <b class=\"r\">red<\/b> marbles did your opponent report drawing? ",
            "catchKey": -1,
            "catchResponse": -1,
            "catchTime": 1678827806229,
            "trialTime": 0
        },
        {
            "exptPart": "trial",
            "trialNumber": 96,
            "roleCurrent": "sender",
            "marblesSampled": 100,
            "probRed": 0.5,
            "lambda": 5,
            "drawnRed": 76,
            "reportedRed": 76,
            "inferredRed": 74,
            "playerTrialScore": 0,
            "oppTrialScore": -2,
            "playerTotalScore": -578,
            "oppTotalScore": -36,
            "waitTime": 2962.347133147834,
            "responseTime": 1678827815430,
            "catchQuestion": "How many <b class=\"r\">red<\/b> marbles did your opponent report drawing? ",
            "catchKey": -1,
            "catchResponse": -1,
            "catchTime": 1678827806229,
            "trialTime": 0
        },
        {
            "exptPart": "trial",
            "trialNumber": 97,
            "roleCurrent": "receiver",
            "marblesSampled": 100,
            "probRed": 0.5,
            "lambda": 5,
            "drawnRed": 41,
            "reportedRed": 41,
            "inferredRed": 40,
            "playerTrialScore": -1,
            "oppTrialScore": 0,
            "playerTotalScore": -579,
            "oppTotalScore": -36,
            "waitTime": 5138.4867227615505,
            "responseTime": 1678827825112,
            "catchQuestion": "How many <b class=\"r\">red<\/b> marbles did your opponent report drawing? ",
            "catchKey": -1,
            "catchResponse": -1,
            "catchTime": 1678827806229,
            "trialTime": 0
        },
        {
            "exptPart": "trial",
            "trialNumber": 98,
            "roleCurrent": "sender",
            "marblesSampled": 100,
            "probRed": 0.5,
            "lambda": 5,
            "drawnRed": 80,
            "reportedRed": 80,
            "inferredRed": 79,
            "playerTrialScore": 0,
            "oppTrialScore": -1,
            "playerTotalScore": -579,
            "oppTotalScore": -37,
            "waitTime": 2252.6892498335146,
            "responseTime": 1678827839496,
            "catchQuestion": "How many <b class=\"r\">red<\/b> marbles did your opponent report drawing? ",
            "catchKey": -1,
            "catchResponse": -1,
            "catchTime": 1678827806229,
            "trialTime": 0
        },
        {
            "exptPart": "trial",
            "trialNumber": 99,
            "roleCurrent": "receiver",
            "marblesSampled": 100,
            "probRed": 0.5,
            "lambda": 5,
            "drawnRed": 74,
            "reportedRed": 78,
            "inferredRed": 79,
            "playerTrialScore": -5,
            "oppTrialScore": 5,
            "playerTotalScore": -584,
            "oppTotalScore": -32,
            "waitTime": 5831.706257004262,
            "responseTime": 1678827849929,
            "catchQuestion": "How many <b class=\"r\">red<\/b> marbles did your opponent report drawing? ",
            "catchKey": -1,
            "catchResponse": -1,
            "catchTime": 1678827806229,
            "trialTime": 0
        },
        {
            "exptPart": "trial",
            "trialNumber": 100,
            "roleCurrent": "sender",
            "marblesSampled": 100,
            "probRed": 0.5,
            "lambda": 5,
            "drawnRed": 51,
            "reportedRed": 53,
            "inferredRed": 49,
            "playerTrialScore": 0,
            "oppTrialScore": -2,
            "playerTotalScore": -584,
            "oppTotalScore": -34,
            "waitTime": 2779.559249805596,
            "responseTime": 1678827865779,
            "catchQuestion": "How many <b class=\"r\">red<\/b> marbles did your opponent report drawing? ",
            "catchKey": -1,
            "catchResponse": -1,
            "catchTime": 1678827865779,
            "trialTime": 0
        }
    ]
}