{
    "client": {
        "type": "sona",
        "experiment_id": 2228,
        "credit_token": "b315147ae43241ea9c65086cb510cfb7",
        "survey_code": "48150",
        "sid": "sona-48150",
        "window": {
            "width": 1160,
            "height": 689
        },
        "screen": {
            "width": 1280,
            "height": 800
        },
        "userAgent": "Mozilla\/5.0 (Macintosh; Intel Mac OS X 10_15_7) AppleWebKit\/537.36 (KHTML, like Gecko) Chrome\/111.0.0.0 Safari\/537.36",
        "score": 0,
        "bonus": 0
    },
    "expt": {
        "saveURL": "submit.simple.php",
        "trials": 100,
        "practiceTrials": 2,
        "marblesSampled": 100,
        "probRed": 0.5,
        "lambdaAI": 5,
        "roleFirst": "sender",
        "roles": [
            "sender",
            "receiver"
        ],
        "cost": "linear",
        "goal": "over",
        "goalInstructTxt": "below",
        "catchTrials": [
            86,
            46,
            7,
            56,
            22,
            59,
            11,
            70,
            95,
            12
        ],
        "scoreTotal": {
            "player": -238,
            "opp": -62
        },
        "sona": {
            "experiment_id": 2228,
            "credit_token": "b315147ae43241ea9c65086cb510cfb7"
        },
        "pilot": false,
        "debug": false
    },
    "trials": [
        {
            "exptPart": "practice",
            "trialNumber": 1,
            "roleCurrent": "sender",
            "marblesSampled": 100,
            "probRed": 0.5,
            "lambda": 5,
            "drawnRed": 40,
            "reportedRed": 41,
            "inferredRed": 34,
            "playerTrialScore": 0,
            "oppTrialScore": -6,
            "playerTotalScore": 0,
            "oppTotalScore": -6,
            "waitTime": 2152.3801417211807,
            "responseTime": 1680581429873,
            "catchQuestion": "How many <b class=\"r\">red<\/b> marbles did you actually draw (before any changes)? ",
            "catchKey": 40,
            "catchResponse": 43,
            "catchTime": 1680581429873,
            "trialTime": 0
        },
        {
            "exptPart": "practice",
            "trialNumber": 2,
            "roleCurrent": "receiver",
            "marblesSampled": 100,
            "probRed": 0.5,
            "lambda": 5,
            "drawnRed": 26,
            "reportedRed": 32,
            "inferredRed": 34,
            "playerTrialScore": -8,
            "oppTrialScore": 8,
            "playerTotalScore": -8,
            "oppTotalScore": 2,
            "waitTime": 6482.087831003862,
            "responseTime": 1680581491075,
            "catchQuestion": "How many <b class=\"r\">red<\/b> marbles did your opponent report drawing? ",
            "catchKey": 32,
            "catchResponse": 32,
            "catchTime": 1680581491075,
            "trialTime": 0
        },
        {
            "exptPart": "trial",
            "trialNumber": 1,
            "roleCurrent": "sender",
            "marblesSampled": 100,
            "probRed": 0.5,
            "lambda": 5,
            "drawnRed": 36,
            "reportedRed": 37,
            "inferredRed": 35,
            "playerTrialScore": 0,
            "oppTrialScore": -1,
            "playerTotalScore": 0,
            "oppTotalScore": -1,
            "waitTime": 2171.0567517105874,
            "responseTime": 1680581556384,
            "catchQuestion": "How many <b class=\"r\">red<\/b> marbles did your opponent report drawing? ",
            "catchKey": -1,
            "catchResponse": -1,
            "catchTime": 1680581491075,
            "trialTime": 0
        },
        {
            "exptPart": "trial",
            "trialNumber": 2,
            "roleCurrent": "receiver",
            "marblesSampled": 100,
            "probRed": 0.5,
            "lambda": 5,
            "drawnRed": 47,
            "reportedRed": 54,
            "inferredRed": 40,
            "playerTrialScore": -7,
            "oppTrialScore": 0,
            "playerTotalScore": -7,
            "oppTotalScore": -1,
            "waitTime": 5524.068489008589,
            "responseTime": 1680581568318,
            "catchQuestion": "How many <b class=\"r\">red<\/b> marbles did your opponent report drawing? ",
            "catchKey": -1,
            "catchResponse": -1,
            "catchTime": 1680581491075,
            "trialTime": 0
        },
        {
            "exptPart": "trial",
            "trialNumber": 3,
            "roleCurrent": "sender",
            "marblesSampled": 100,
            "probRed": 0.5,
            "lambda": 5,
            "drawnRed": 20,
            "reportedRed": 21,
            "inferredRed": 16,
            "playerTrialScore": 0,
            "oppTrialScore": -4,
            "playerTotalScore": -7,
            "oppTotalScore": -5,
            "waitTime": 2872.1664134433267,
            "responseTime": 1680581611147,
            "catchQuestion": "How many <b class=\"r\">red<\/b> marbles did your opponent report drawing? ",
            "catchKey": -1,
            "catchResponse": -1,
            "catchTime": 1680581491075,
            "trialTime": 0
        },
        {
            "exptPart": "trial",
            "trialNumber": 4,
            "roleCurrent": "receiver",
            "marblesSampled": 100,
            "probRed": 0.5,
            "lambda": 5,
            "drawnRed": 21,
            "reportedRed": 28,
            "inferredRed": 26,
            "playerTrialScore": -5,
            "oppTrialScore": 5,
            "playerTotalScore": -12,
            "oppTotalScore": 0,
            "waitTime": 6806.3416183838135,
            "responseTime": 1680581655249,
            "catchQuestion": "How many <b class=\"r\">red<\/b> marbles did your opponent report drawing? ",
            "catchKey": -1,
            "catchResponse": -1,
            "catchTime": 1680581491075,
            "trialTime": 0
        },
        {
            "exptPart": "trial",
            "trialNumber": 5,
            "roleCurrent": "sender",
            "marblesSampled": 100,
            "probRed": 0.5,
            "lambda": 5,
            "drawnRed": 66,
            "reportedRed": 66,
            "inferredRed": 64,
            "playerTrialScore": 0,
            "oppTrialScore": -2,
            "playerTotalScore": -12,
            "oppTotalScore": -2,
            "waitTime": 2568.7216809926613,
            "responseTime": 1680581668823,
            "catchQuestion": "How many <b class=\"r\">red<\/b> marbles did your opponent report drawing? ",
            "catchKey": -1,
            "catchResponse": -1,
            "catchTime": 1680581668823,
            "trialTime": 0
        },
        {
            "exptPart": "trial",
            "trialNumber": 6,
            "roleCurrent": "receiver",
            "marblesSampled": 100,
            "probRed": 0.5,
            "lambda": 5,
            "drawnRed": 74,
            "reportedRed": 78,
            "inferredRed": 75,
            "playerTrialScore": -1,
            "oppTrialScore": 1,
            "playerTotalScore": -13,
            "oppTotalScore": -1,
            "waitTime": 6478.302723207937,
            "responseTime": 1680581693763,
            "catchQuestion": "How many <b class=\"r\">red<\/b> marbles did your opponent report drawing? ",
            "catchKey": -1,
            "catchResponse": -1,
            "catchTime": 1680581668823,
            "trialTime": 0
        },
        {
            "exptPart": "trial",
            "trialNumber": 7,
            "roleCurrent": "sender",
            "marblesSampled": 100,
            "probRed": 0.5,
            "lambda": 5,
            "drawnRed": 82,
            "reportedRed": 83,
            "inferredRed": 75,
            "playerTrialScore": 0,
            "oppTrialScore": -7,
            "playerTotalScore": -13,
            "oppTotalScore": -8,
            "waitTime": 3119.835345236579,
            "responseTime": 1680581717165,
            "catchQuestion": "How many <b class=\"r\">red<\/b> marbles did your opponent report drawing? ",
            "catchKey": -1,
            "catchResponse": -1,
            "catchTime": 1680581668823,
            "trialTime": 0
        },
        {
            "exptPart": "trial",
            "trialNumber": 8,
            "roleCurrent": "receiver",
            "marblesSampled": 100,
            "probRed": 0.5,
            "lambda": 5,
            "drawnRed": 75,
            "reportedRed": 79,
            "inferredRed": 80,
            "playerTrialScore": -5,
            "oppTrialScore": 5,
            "playerTotalScore": -18,
            "oppTotalScore": -3,
            "waitTime": 6499.026833172009,
            "responseTime": 1680581732110,
            "catchQuestion": "How many <b class=\"r\">red<\/b> marbles did your opponent report drawing? ",
            "catchKey": 79,
            "catchResponse": 80,
            "catchTime": 1680581732110,
            "trialTime": 0
        },
        {
            "exptPart": "trial",
            "trialNumber": 9,
            "roleCurrent": "sender",
            "marblesSampled": 100,
            "probRed": 0.5,
            "lambda": 5,
            "drawnRed": 81,
            "reportedRed": 82,
            "inferredRed": 75,
            "playerTrialScore": 0,
            "oppTrialScore": -6,
            "playerTotalScore": -18,
            "oppTotalScore": -9,
            "waitTime": 2217.665708510279,
            "responseTime": 1680581754243,
            "catchQuestion": "How many <b class=\"r\">red<\/b> marbles did your opponent report drawing? ",
            "catchKey": -1,
            "catchResponse": -1,
            "catchTime": 1680581732110,
            "trialTime": 0
        },
        {
            "exptPart": "trial",
            "trialNumber": 10,
            "roleCurrent": "receiver",
            "marblesSampled": 100,
            "probRed": 0.5,
            "lambda": 5,
            "drawnRed": 55,
            "reportedRed": 62,
            "inferredRed": 60,
            "playerTrialScore": -5,
            "oppTrialScore": 5,
            "playerTotalScore": -23,
            "oppTotalScore": -4,
            "waitTime": 6707.276172788101,
            "responseTime": 1680581769050,
            "catchQuestion": "How many <b class=\"r\">red<\/b> marbles did your opponent report drawing? ",
            "catchKey": -1,
            "catchResponse": -1,
            "catchTime": 1680581769051,
            "trialTime": 0
        },
        {
            "exptPart": "trial",
            "trialNumber": 11,
            "roleCurrent": "sender",
            "marblesSampled": 100,
            "probRed": 0.5,
            "lambda": 5,
            "drawnRed": 76,
            "reportedRed": 76,
            "inferredRed": 68,
            "playerTrialScore": 0,
            "oppTrialScore": -8,
            "playerTotalScore": -23,
            "oppTotalScore": -12,
            "waitTime": 2541.151386176037,
            "responseTime": 1680581777531,
            "catchQuestion": "How many <b class=\"r\">red<\/b> marbles did your opponent report drawing? ",
            "catchKey": -1,
            "catchResponse": -1,
            "catchTime": 1680581769051,
            "trialTime": 0
        },
        {
            "exptPart": "trial",
            "trialNumber": 12,
            "roleCurrent": "receiver",
            "marblesSampled": 100,
            "probRed": 0.5,
            "lambda": 5,
            "drawnRed": 60,
            "reportedRed": 64,
            "inferredRed": 63,
            "playerTrialScore": -3,
            "oppTrialScore": 3,
            "playerTotalScore": -26,
            "oppTotalScore": -9,
            "waitTime": 6681.94248122337,
            "responseTime": 1680581803834,
            "catchQuestion": "How many <b class=\"r\">red<\/b> marbles did your opponent report drawing? ",
            "catchKey": 64,
            "catchResponse": 63,
            "catchTime": 1680581803834,
            "trialTime": 0
        },
        {
            "exptPart": "trial",
            "trialNumber": 13,
            "roleCurrent": "sender",
            "marblesSampled": 100,
            "probRed": 0.5,
            "lambda": 5,
            "drawnRed": 61,
            "reportedRed": 62,
            "inferredRed": 52,
            "playerTrialScore": 0,
            "oppTrialScore": -9,
            "playerTotalScore": -26,
            "oppTotalScore": -18,
            "waitTime": 2241.432691874841,
            "responseTime": 1680581883173,
            "catchQuestion": "How many <b class=\"r\">red<\/b> marbles did you actually draw (before any changes)? ",
            "catchKey": 61,
            "catchResponse": 32,
            "catchTime": 1680581883173,
            "trialTime": 0
        },
        {
            "exptPart": "trial",
            "trialNumber": 14,
            "roleCurrent": "receiver",
            "marblesSampled": 100,
            "probRed": 0.5,
            "lambda": 5,
            "drawnRed": 53,
            "reportedRed": 62,
            "inferredRed": 60,
            "playerTrialScore": -7,
            "oppTrialScore": 7,
            "playerTotalScore": -33,
            "oppTotalScore": -11,
            "waitTime": 6664.788138596574,
            "responseTime": 1680581927498,
            "catchQuestion": "How many <b class=\"r\">red<\/b> marbles did you actually draw (before any changes)? ",
            "catchKey": -1,
            "catchResponse": -1,
            "catchTime": 1680581883173,
            "trialTime": 0
        },
        {
            "exptPart": "trial",
            "trialNumber": 15,
            "roleCurrent": "sender",
            "marblesSampled": 100,
            "probRed": 0.5,
            "lambda": 5,
            "drawnRed": 56,
            "reportedRed": 57,
            "inferredRed": 53,
            "playerTrialScore": 0,
            "oppTrialScore": -3,
            "playerTotalScore": -33,
            "oppTotalScore": -14,
            "waitTime": 2159.675119579908,
            "responseTime": 1680581999830,
            "catchQuestion": "How many <b class=\"r\">red<\/b> marbles did you actually draw (before any changes)? ",
            "catchKey": -1,
            "catchResponse": -1,
            "catchTime": 1680581999831,
            "trialTime": 0
        },
        {
            "exptPart": "trial",
            "trialNumber": 16,
            "roleCurrent": "receiver",
            "marblesSampled": 100,
            "probRed": 0.5,
            "lambda": 5,
            "drawnRed": 83,
            "reportedRed": 86,
            "inferredRed": 84,
            "playerTrialScore": -1,
            "oppTrialScore": 1,
            "playerTotalScore": -34,
            "oppTotalScore": -13,
            "waitTime": 6609.51838445475,
            "responseTime": 1680582020024,
            "catchQuestion": "How many <b class=\"r\">red<\/b> marbles did you actually draw (before any changes)? ",
            "catchKey": -1,
            "catchResponse": -1,
            "catchTime": 1680581999831,
            "trialTime": 0
        },
        {
            "exptPart": "trial",
            "trialNumber": 17,
            "roleCurrent": "sender",
            "marblesSampled": 100,
            "probRed": 0.5,
            "lambda": 5,
            "drawnRed": 68,
            "reportedRed": 69,
            "inferredRed": 66,
            "playerTrialScore": 0,
            "oppTrialScore": -2,
            "playerTotalScore": -34,
            "oppTotalScore": -15,
            "waitTime": 3129.7208309201005,
            "responseTime": 1680582115620,
            "catchQuestion": "How many <b class=\"r\">red<\/b> marbles did you actually draw (before any changes)? ",
            "catchKey": -1,
            "catchResponse": -1,
            "catchTime": 1680581999831,
            "trialTime": 0
        },
        {
            "exptPart": "trial",
            "trialNumber": 18,
            "roleCurrent": "receiver",
            "marblesSampled": 100,
            "probRed": 0.5,
            "lambda": 5,
            "drawnRed": 56,
            "reportedRed": 59,
            "inferredRed": 56,
            "playerTrialScore": 0,
            "oppTrialScore": 0,
            "playerTotalScore": -34,
            "oppTotalScore": -15,
            "waitTime": 7043.764177351019,
            "responseTime": 1680582186459,
            "catchQuestion": "How many <b class=\"r\">red<\/b> marbles did you actually draw (before any changes)? ",
            "catchKey": -1,
            "catchResponse": -1,
            "catchTime": 1680581999831,
            "trialTime": 0
        },
        {
            "exptPart": "trial",
            "trialNumber": 19,
            "roleCurrent": "sender",
            "marblesSampled": 100,
            "probRed": 0.5,
            "lambda": 5,
            "drawnRed": 51,
            "reportedRed": 52,
            "inferredRed": 47,
            "playerTrialScore": 0,
            "oppTrialScore": -4,
            "playerTotalScore": -34,
            "oppTotalScore": -19,
            "waitTime": 2541.2661164628266,
            "responseTime": 1680582205985,
            "catchQuestion": "How many <b class=\"r\">red<\/b> marbles did you actually draw (before any changes)? ",
            "catchKey": -1,
            "catchResponse": -1,
            "catchTime": 1680581999831,
            "trialTime": 0
        },
        {
            "exptPart": "trial",
            "trialNumber": 20,
            "roleCurrent": "receiver",
            "marblesSampled": 100,
            "probRed": 0.5,
            "lambda": 5,
            "drawnRed": 50,
            "reportedRed": 57,
            "inferredRed": 51,
            "playerTrialScore": -1,
            "oppTrialScore": 1,
            "playerTotalScore": -35,
            "oppTotalScore": -18,
            "waitTime": 6172.239768233179,
            "responseTime": 1680582219995,
            "catchQuestion": "How many <b class=\"r\">red<\/b> marbles did you actually draw (before any changes)? ",
            "catchKey": -1,
            "catchResponse": -1,
            "catchTime": 1680582219995,
            "trialTime": 0
        },
        {
            "exptPart": "trial",
            "trialNumber": 21,
            "roleCurrent": "sender",
            "marblesSampled": 100,
            "probRed": 0.5,
            "lambda": 5,
            "drawnRed": 5,
            "reportedRed": 6,
            "inferredRed": 5,
            "playerTrialScore": 0,
            "oppTrialScore": 0,
            "playerTotalScore": -35,
            "oppTotalScore": -18,
            "waitTime": 2532.869702192357,
            "responseTime": 1680582242940,
            "catchQuestion": "How many <b class=\"r\">red<\/b> marbles did you actually draw (before any changes)? ",
            "catchKey": -1,
            "catchResponse": -1,
            "catchTime": 1680582219995,
            "trialTime": 0
        },
        {
            "exptPart": "trial",
            "trialNumber": 22,
            "roleCurrent": "receiver",
            "marblesSampled": 100,
            "probRed": 0.5,
            "lambda": 5,
            "drawnRed": 51,
            "reportedRed": 57,
            "inferredRed": 60,
            "playerTrialScore": -9,
            "oppTrialScore": 9,
            "playerTotalScore": -44,
            "oppTotalScore": -9,
            "waitTime": 5423.277760504794,
            "responseTime": 1680582257423,
            "catchQuestion": "How many <b class=\"r\">red<\/b> marbles did you actually draw (before any changes)? ",
            "catchKey": -1,
            "catchResponse": -1,
            "catchTime": 1680582219995,
            "trialTime": 0
        },
        {
            "exptPart": "trial",
            "trialNumber": 23,
            "roleCurrent": "sender",
            "marblesSampled": 100,
            "probRed": 0.5,
            "lambda": 5,
            "drawnRed": 33,
            "reportedRed": 33,
            "inferredRed": 29,
            "playerTrialScore": 0,
            "oppTrialScore": -4,
            "playerTotalScore": -44,
            "oppTotalScore": -13,
            "waitTime": 2394.2218215653147,
            "responseTime": 1680582266477,
            "catchQuestion": "How many <b class=\"r\">red<\/b> marbles did you actually draw (before any changes)? ",
            "catchKey": 33,
            "catchResponse": 33,
            "catchTime": 1680582266478,
            "trialTime": 0
        },
        {
            "exptPart": "trial",
            "trialNumber": 24,
            "roleCurrent": "receiver",
            "marblesSampled": 100,
            "probRed": 0.5,
            "lambda": 5,
            "drawnRed": 50,
            "reportedRed": 55,
            "inferredRed": 51,
            "playerTrialScore": -1,
            "oppTrialScore": 1,
            "playerTotalScore": -45,
            "oppTotalScore": -12,
            "waitTime": 7437.995375767692,
            "responseTime": 1680582308801,
            "catchQuestion": "How many <b class=\"r\">red<\/b> marbles did you actually draw (before any changes)? ",
            "catchKey": -1,
            "catchResponse": -1,
            "catchTime": 1680582266478,
            "trialTime": 0
        },
        {
            "exptPart": "trial",
            "trialNumber": 25,
            "roleCurrent": "sender",
            "marblesSampled": 100,
            "probRed": 0.5,
            "lambda": 5,
            "drawnRed": 34,
            "reportedRed": 34,
            "inferredRed": 27,
            "playerTrialScore": 0,
            "oppTrialScore": -7,
            "playerTotalScore": -45,
            "oppTotalScore": -19,
            "waitTime": 2609.58918432917,
            "responseTime": 1680582318228,
            "catchQuestion": "How many <b class=\"r\">red<\/b> marbles did you actually draw (before any changes)? ",
            "catchKey": -1,
            "catchResponse": -1,
            "catchTime": 1680582318228,
            "trialTime": 0
        },
        {
            "exptPart": "trial",
            "trialNumber": 26,
            "roleCurrent": "receiver",
            "marblesSampled": 100,
            "probRed": 0.5,
            "lambda": 5,
            "drawnRed": 8,
            "reportedRed": 11,
            "inferredRed": 10,
            "playerTrialScore": -2,
            "oppTrialScore": 2,
            "playerTotalScore": -47,
            "oppTotalScore": -17,
            "waitTime": 6381.58715721005,
            "responseTime": 1680582344395,
            "catchQuestion": "How many <b class=\"r\">red<\/b> marbles did you actually draw (before any changes)? ",
            "catchKey": -1,
            "catchResponse": -1,
            "catchTime": 1680582318228,
            "trialTime": 0
        },
        {
            "exptPart": "trial",
            "trialNumber": 27,
            "roleCurrent": "sender",
            "marblesSampled": 100,
            "probRed": 0.5,
            "lambda": 5,
            "drawnRed": 66,
            "reportedRed": 66,
            "inferredRed": 59,
            "playerTrialScore": 0,
            "oppTrialScore": -7,
            "playerTotalScore": -47,
            "oppTotalScore": -24,
            "waitTime": 2480.7160925545277,
            "responseTime": 1680582354368,
            "catchQuestion": "How many <b class=\"r\">red<\/b> marbles did you actually draw (before any changes)? ",
            "catchKey": -1,
            "catchResponse": -1,
            "catchTime": 1680582318228,
            "trialTime": 0
        },
        {
            "exptPart": "trial",
            "trialNumber": 28,
            "roleCurrent": "receiver",
            "marblesSampled": 100,
            "probRed": 0.5,
            "lambda": 5,
            "drawnRed": 43,
            "reportedRed": 56,
            "inferredRed": 66,
            "playerTrialScore": -23,
            "oppTrialScore": 23,
            "playerTotalScore": -70,
            "oppTotalScore": -1,
            "waitTime": 5477.484282651238,
            "responseTime": 1680582368770,
            "catchQuestion": "How many <b class=\"r\">red<\/b> marbles did you actually draw (before any changes)? ",
            "catchKey": -1,
            "catchResponse": -1,
            "catchTime": 1680582318228,
            "trialTime": 0
        },
        {
            "exptPart": "trial",
            "trialNumber": 29,
            "roleCurrent": "sender",
            "marblesSampled": 100,
            "probRed": 0.5,
            "lambda": 5,
            "drawnRed": 24,
            "reportedRed": 24,
            "inferredRed": 19,
            "playerTrialScore": 0,
            "oppTrialScore": -5,
            "playerTotalScore": -70,
            "oppTotalScore": -6,
            "waitTime": 3140.344104746643,
            "responseTime": 1680582381662,
            "catchQuestion": "How many <b class=\"r\">red<\/b> marbles did you actually draw (before any changes)? ",
            "catchKey": -1,
            "catchResponse": -1,
            "catchTime": 1680582318228,
            "trialTime": 0
        },
        {
            "exptPart": "trial",
            "trialNumber": 30,
            "roleCurrent": "receiver",
            "marblesSampled": 100,
            "probRed": 0.5,
            "lambda": 5,
            "drawnRed": 40,
            "reportedRed": 42,
            "inferredRed": 40,
            "playerTrialScore": 0,
            "oppTrialScore": 0,
            "playerTotalScore": -70,
            "oppTotalScore": -6,
            "waitTime": 6254.889630994385,
            "responseTime": 1680582396539,
            "catchQuestion": "How many <b class=\"r\">red<\/b> marbles did you actually draw (before any changes)? ",
            "catchKey": -1,
            "catchResponse": -1,
            "catchTime": 1680582396539,
            "trialTime": 0
        },
        {
            "exptPart": "trial",
            "trialNumber": 31,
            "roleCurrent": "sender",
            "marblesSampled": 100,
            "probRed": 0.5,
            "lambda": 5,
            "drawnRed": 37,
            "reportedRed": 37,
            "inferredRed": 27,
            "playerTrialScore": 0,
            "oppTrialScore": -10,
            "playerTotalScore": -70,
            "oppTotalScore": -16,
            "waitTime": 2186.4705796632165,
            "responseTime": 1680582411531,
            "catchQuestion": "How many <b class=\"r\">red<\/b> marbles did you actually draw (before any changes)? ",
            "catchKey": -1,
            "catchResponse": -1,
            "catchTime": 1680582396539,
            "trialTime": 0
        },
        {
            "exptPart": "trial",
            "trialNumber": 32,
            "roleCurrent": "receiver",
            "marblesSampled": 100,
            "probRed": 0.5,
            "lambda": 5,
            "drawnRed": 19,
            "reportedRed": 23,
            "inferredRed": 23,
            "playerTrialScore": -4,
            "oppTrialScore": 4,
            "playerTotalScore": -74,
            "oppTotalScore": -12,
            "waitTime": 7333.883998474507,
            "responseTime": 1680582424184,
            "catchQuestion": "How many <b class=\"r\">red<\/b> marbles did you actually draw (before any changes)? ",
            "catchKey": -1,
            "catchResponse": -1,
            "catchTime": 1680582396539,
            "trialTime": 0
        },
        {
            "exptPart": "trial",
            "trialNumber": 33,
            "roleCurrent": "sender",
            "marblesSampled": 100,
            "probRed": 0.5,
            "lambda": 5,
            "drawnRed": 55,
            "reportedRed": 55,
            "inferredRed": 49,
            "playerTrialScore": 0,
            "oppTrialScore": -6,
            "playerTotalScore": -74,
            "oppTotalScore": -18,
            "waitTime": 3027.6625713079115,
            "responseTime": 1680582432929,
            "catchQuestion": "How many <b class=\"r\">red<\/b> marbles did you actually draw (before any changes)? ",
            "catchKey": -1,
            "catchResponse": -1,
            "catchTime": 1680582396539,
            "trialTime": 0
        },
        {
            "exptPart": "trial",
            "trialNumber": 34,
            "roleCurrent": "receiver",
            "marblesSampled": 100,
            "probRed": 0.5,
            "lambda": 5,
            "drawnRed": 37,
            "reportedRed": 42,
            "inferredRed": 42,
            "playerTrialScore": -5,
            "oppTrialScore": 5,
            "playerTotalScore": -79,
            "oppTotalScore": -13,
            "waitTime": 5689.506483931713,
            "responseTime": 1680582444592,
            "catchQuestion": "How many <b class=\"r\">red<\/b> marbles did you actually draw (before any changes)? ",
            "catchKey": -1,
            "catchResponse": -1,
            "catchTime": 1680582396539,
            "trialTime": 0
        },
        {
            "exptPart": "trial",
            "trialNumber": 35,
            "roleCurrent": "sender",
            "marblesSampled": 100,
            "probRed": 0.5,
            "lambda": 5,
            "drawnRed": 47,
            "reportedRed": 47,
            "inferredRed": 42,
            "playerTrialScore": 0,
            "oppTrialScore": -5,
            "playerTotalScore": -79,
            "oppTotalScore": -18,
            "waitTime": 3029.3745293215393,
            "responseTime": 1680582452545,
            "catchQuestion": "How many <b class=\"r\">red<\/b> marbles did you actually draw (before any changes)? ",
            "catchKey": -1,
            "catchResponse": -1,
            "catchTime": 1680582452545,
            "trialTime": 0
        },
        {
            "exptPart": "trial",
            "trialNumber": 36,
            "roleCurrent": "receiver",
            "marblesSampled": 100,
            "probRed": 0.5,
            "lambda": 5,
            "drawnRed": 21,
            "reportedRed": 25,
            "inferredRed": 25,
            "playerTrialScore": -4,
            "oppTrialScore": 4,
            "playerTotalScore": -83,
            "oppTotalScore": -14,
            "waitTime": 6071.668084059094,
            "responseTime": 1680582466863,
            "catchQuestion": "How many <b class=\"r\">red<\/b> marbles did you actually draw (before any changes)? ",
            "catchKey": -1,
            "catchResponse": -1,
            "catchTime": 1680582452545,
            "trialTime": 0
        },
        {
            "exptPart": "trial",
            "trialNumber": 37,
            "roleCurrent": "sender",
            "marblesSampled": 100,
            "probRed": 0.5,
            "lambda": 5,
            "drawnRed": 39,
            "reportedRed": 39,
            "inferredRed": 31,
            "playerTrialScore": 0,
            "oppTrialScore": -8,
            "playerTotalScore": -83,
            "oppTotalScore": -22,
            "waitTime": 2374.354197942698,
            "responseTime": 1680582475640,
            "catchQuestion": "How many <b class=\"r\">red<\/b> marbles did you actually draw (before any changes)? ",
            "catchKey": -1,
            "catchResponse": -1,
            "catchTime": 1680582452545,
            "trialTime": 0
        },
        {
            "exptPart": "trial",
            "trialNumber": 38,
            "roleCurrent": "receiver",
            "marblesSampled": 100,
            "probRed": 0.5,
            "lambda": 5,
            "drawnRed": 20,
            "reportedRed": 27,
            "inferredRed": 25,
            "playerTrialScore": -5,
            "oppTrialScore": 5,
            "playerTotalScore": -88,
            "oppTotalScore": -17,
            "waitTime": 5126.524326063541,
            "responseTime": 1680582486970,
            "catchQuestion": "How many <b class=\"r\">red<\/b> marbles did you actually draw (before any changes)? ",
            "catchKey": -1,
            "catchResponse": -1,
            "catchTime": 1680582452545,
            "trialTime": 0
        },
        {
            "exptPart": "trial",
            "trialNumber": 39,
            "roleCurrent": "sender",
            "marblesSampled": 100,
            "probRed": 0.5,
            "lambda": 5,
            "drawnRed": 57,
            "reportedRed": 57,
            "inferredRed": 51,
            "playerTrialScore": 0,
            "oppTrialScore": -6,
            "playerTotalScore": -88,
            "oppTotalScore": -23,
            "waitTime": 2805.832976055558,
            "responseTime": 1680582495309,
            "catchQuestion": "How many <b class=\"r\">red<\/b> marbles did you actually draw (before any changes)? ",
            "catchKey": -1,
            "catchResponse": -1,
            "catchTime": 1680582452545,
            "trialTime": 0
        },
        {
            "exptPart": "trial",
            "trialNumber": 40,
            "roleCurrent": "receiver",
            "marblesSampled": 100,
            "probRed": 0.5,
            "lambda": 5,
            "drawnRed": 61,
            "reportedRed": 64,
            "inferredRed": 55,
            "playerTrialScore": -6,
            "oppTrialScore": 0,
            "playerTotalScore": -94,
            "oppTotalScore": -23,
            "waitTime": 6386.280848109609,
            "responseTime": 1680582508817,
            "catchQuestion": "How many <b class=\"r\">red<\/b> marbles did you actually draw (before any changes)? ",
            "catchKey": -1,
            "catchResponse": -1,
            "catchTime": 1680582508817,
            "trialTime": 0
        },
        {
            "exptPart": "trial",
            "trialNumber": 41,
            "roleCurrent": "sender",
            "marblesSampled": 100,
            "probRed": 0.5,
            "lambda": 5,
            "drawnRed": 53,
            "reportedRed": 53,
            "inferredRed": 46,
            "playerTrialScore": 0,
            "oppTrialScore": -7,
            "playerTotalScore": -94,
            "oppTotalScore": -30,
            "waitTime": 2605.601214654387,
            "responseTime": 1680582517642,
            "catchQuestion": "How many <b class=\"r\">red<\/b> marbles did you actually draw (before any changes)? ",
            "catchKey": -1,
            "catchResponse": -1,
            "catchTime": 1680582508817,
            "trialTime": 0
        },
        {
            "exptPart": "trial",
            "trialNumber": 42,
            "roleCurrent": "receiver",
            "marblesSampled": 100,
            "probRed": 0.5,
            "lambda": 5,
            "drawnRed": 46,
            "reportedRed": 51,
            "inferredRed": 50,
            "playerTrialScore": -4,
            "oppTrialScore": 4,
            "playerTotalScore": -98,
            "oppTotalScore": -26,
            "waitTime": 5263.168610220236,
            "responseTime": 1680582529880,
            "catchQuestion": "How many <b class=\"r\">red<\/b> marbles did you actually draw (before any changes)? ",
            "catchKey": -1,
            "catchResponse": -1,
            "catchTime": 1680582508817,
            "trialTime": 0
        },
        {
            "exptPart": "trial",
            "trialNumber": 43,
            "roleCurrent": "sender",
            "marblesSampled": 100,
            "probRed": 0.5,
            "lambda": 5,
            "drawnRed": 53,
            "reportedRed": 53,
            "inferredRed": 44,
            "playerTrialScore": 0,
            "oppTrialScore": -9,
            "playerTotalScore": -98,
            "oppTotalScore": -35,
            "waitTime": 2963.0337123616764,
            "responseTime": 1680582539365,
            "catchQuestion": "How many <b class=\"r\">red<\/b> marbles did you actually draw (before any changes)? ",
            "catchKey": -1,
            "catchResponse": -1,
            "catchTime": 1680582508817,
            "trialTime": 0
        },
        {
            "exptPart": "trial",
            "trialNumber": 44,
            "roleCurrent": "receiver",
            "marblesSampled": 100,
            "probRed": 0.5,
            "lambda": 5,
            "drawnRed": 71,
            "reportedRed": 73,
            "inferredRed": 70,
            "playerTrialScore": -1,
            "oppTrialScore": 0,
            "playerTotalScore": -99,
            "oppTotalScore": -35,
            "waitTime": 6191.781594797011,
            "responseTime": 1680582550336,
            "catchQuestion": "How many <b class=\"r\">red<\/b> marbles did you actually draw (before any changes)? ",
            "catchKey": -1,
            "catchResponse": -1,
            "catchTime": 1680582508817,
            "trialTime": 0
        },
        {
            "exptPart": "trial",
            "trialNumber": 45,
            "roleCurrent": "sender",
            "marblesSampled": 100,
            "probRed": 0.5,
            "lambda": 5,
            "drawnRed": 11,
            "reportedRed": 10,
            "inferredRed": 2,
            "playerTrialScore": 0,
            "oppTrialScore": -9,
            "playerTotalScore": -99,
            "oppTotalScore": -44,
            "waitTime": 2928.658522159334,
            "responseTime": 1680582569875,
            "catchQuestion": "How many <b class=\"r\">red<\/b> marbles did you actually draw (before any changes)? ",
            "catchKey": -1,
            "catchResponse": -1,
            "catchTime": 1680582569875,
            "trialTime": 0
        },
        {
            "exptPart": "trial",
            "trialNumber": 46,
            "roleCurrent": "receiver",
            "marblesSampled": 100,
            "probRed": 0.5,
            "lambda": 5,
            "drawnRed": 26,
            "reportedRed": 31,
            "inferredRed": 31,
            "playerTrialScore": -5,
            "oppTrialScore": 5,
            "playerTotalScore": -104,
            "oppTotalScore": -39,
            "waitTime": 6001.30441256369,
            "responseTime": 1680582581992,
            "catchQuestion": "How many <b class=\"r\">red<\/b> marbles did you actually draw (before any changes)? ",
            "catchKey": -1,
            "catchResponse": -1,
            "catchTime": 1680582569875,
            "trialTime": 0
        },
        {
            "exptPart": "trial",
            "trialNumber": 47,
            "roleCurrent": "sender",
            "marblesSampled": 100,
            "probRed": 0.5,
            "lambda": 5,
            "drawnRed": 91,
            "reportedRed": 91,
            "inferredRed": 84,
            "playerTrialScore": 0,
            "oppTrialScore": -7,
            "playerTotalScore": -104,
            "oppTotalScore": -46,
            "waitTime": 2982.5308413685807,
            "responseTime": 1680582596311,
            "catchQuestion": "How many <b class=\"r\">red<\/b> marbles did you actually draw (before any changes)? ",
            "catchKey": 91,
            "catchResponse": 91,
            "catchTime": 1680582596311,
            "trialTime": 0
        },
        {
            "exptPart": "trial",
            "trialNumber": 48,
            "roleCurrent": "receiver",
            "marblesSampled": 100,
            "probRed": 0.5,
            "lambda": 5,
            "drawnRed": 38,
            "reportedRed": 44,
            "inferredRed": 44,
            "playerTrialScore": -6,
            "oppTrialScore": 6,
            "playerTotalScore": -110,
            "oppTotalScore": -40,
            "waitTime": 6553.998916074766,
            "responseTime": 1680582619439,
            "catchQuestion": "How many <b class=\"r\">red<\/b> marbles did you actually draw (before any changes)? ",
            "catchKey": -1,
            "catchResponse": -1,
            "catchTime": 1680582596311,
            "trialTime": 0
        },
        {
            "exptPart": "trial",
            "trialNumber": 49,
            "roleCurrent": "sender",
            "marblesSampled": 100,
            "probRed": 0.5,
            "lambda": 5,
            "drawnRed": 58,
            "reportedRed": 58,
            "inferredRed": 55,
            "playerTrialScore": 0,
            "oppTrialScore": -3,
            "playerTotalScore": -110,
            "oppTotalScore": -43,
            "waitTime": 2326.475835330682,
            "responseTime": 1680582635382,
            "catchQuestion": "How many <b class=\"r\">red<\/b> marbles did you actually draw (before any changes)? ",
            "catchKey": -1,
            "catchResponse": -1,
            "catchTime": 1680582596311,
            "trialTime": 0
        },
        {
            "exptPart": "trial",
            "trialNumber": 50,
            "roleCurrent": "receiver",
            "marblesSampled": 100,
            "probRed": 0.5,
            "lambda": 5,
            "drawnRed": 52,
            "reportedRed": 52,
            "inferredRed": 45,
            "playerTrialScore": -7,
            "oppTrialScore": 0,
            "playerTotalScore": -117,
            "oppTotalScore": -43,
            "waitTime": 6615.6277028992,
            "responseTime": 1680582651281,
            "catchQuestion": "How many <b class=\"r\">red<\/b> marbles did you actually draw (before any changes)? ",
            "catchKey": -1,
            "catchResponse": -1,
            "catchTime": 1680582651281,
            "trialTime": 0
        },
        {
            "exptPart": "trial",
            "trialNumber": 51,
            "roleCurrent": "sender",
            "marblesSampled": 100,
            "probRed": 0.5,
            "lambda": 5,
            "drawnRed": 7,
            "reportedRed": 8,
            "inferredRed": 5,
            "playerTrialScore": 0,
            "oppTrialScore": -2,
            "playerTotalScore": -117,
            "oppTotalScore": -45,
            "waitTime": 3081.964566820592,
            "responseTime": 1680582697202,
            "catchQuestion": "How many <b class=\"r\">red<\/b> marbles did you actually draw (before any changes)? ",
            "catchKey": -1,
            "catchResponse": -1,
            "catchTime": 1680582651281,
            "trialTime": 0
        },
        {
            "exptPart": "trial",
            "trialNumber": 52,
            "roleCurrent": "receiver",
            "marblesSampled": 100,
            "probRed": 0.5,
            "lambda": 5,
            "drawnRed": 43,
            "reportedRed": 46,
            "inferredRed": 43,
            "playerTrialScore": 0,
            "oppTrialScore": 0,
            "playerTotalScore": -117,
            "oppTotalScore": -45,
            "waitTime": 5467.671763493419,
            "responseTime": 1680582723917,
            "catchQuestion": "How many <b class=\"r\">red<\/b> marbles did you actually draw (before any changes)? ",
            "catchKey": -1,
            "catchResponse": -1,
            "catchTime": 1680582651281,
            "trialTime": 0
        },
        {
            "exptPart": "trial",
            "trialNumber": 53,
            "roleCurrent": "sender",
            "marblesSampled": 100,
            "probRed": 0.5,
            "lambda": 5,
            "drawnRed": 91,
            "reportedRed": 91,
            "inferredRed": 89,
            "playerTrialScore": 0,
            "oppTrialScore": -2,
            "playerTotalScore": -117,
            "oppTotalScore": -47,
            "waitTime": 2448.405020390789,
            "responseTime": 1680582734070,
            "catchQuestion": "How many <b class=\"r\">red<\/b> marbles did you actually draw (before any changes)? ",
            "catchKey": -1,
            "catchResponse": -1,
            "catchTime": 1680582651281,
            "trialTime": 0
        },
        {
            "exptPart": "trial",
            "trialNumber": 54,
            "roleCurrent": "receiver",
            "marblesSampled": 100,
            "probRed": 0.5,
            "lambda": 5,
            "drawnRed": 69,
            "reportedRed": 73,
            "inferredRed": 73,
            "playerTrialScore": -4,
            "oppTrialScore": 4,
            "playerTotalScore": -121,
            "oppTotalScore": -43,
            "waitTime": 6852.373167506001,
            "responseTime": 1680582747551,
            "catchQuestion": "How many <b class=\"r\">red<\/b> marbles did you actually draw (before any changes)? ",
            "catchKey": -1,
            "catchResponse": -1,
            "catchTime": 1680582651281,
            "trialTime": 0
        },
        {
            "exptPart": "trial",
            "trialNumber": 55,
            "roleCurrent": "sender",
            "marblesSampled": 100,
            "probRed": 0.5,
            "lambda": 5,
            "drawnRed": 31,
            "reportedRed": 31,
            "inferredRed": 26,
            "playerTrialScore": 0,
            "oppTrialScore": -5,
            "playerTotalScore": -121,
            "oppTotalScore": -48,
            "waitTime": 2648.187656722371,
            "responseTime": 1680582757199,
            "catchQuestion": "How many <b class=\"r\">red<\/b> marbles did you actually draw (before any changes)? ",
            "catchKey": -1,
            "catchResponse": -1,
            "catchTime": 1680582757200,
            "trialTime": 0
        },
        {
            "exptPart": "trial",
            "trialNumber": 56,
            "roleCurrent": "receiver",
            "marblesSampled": 100,
            "probRed": 0.5,
            "lambda": 5,
            "drawnRed": 72,
            "reportedRed": 78,
            "inferredRed": 75,
            "playerTrialScore": -3,
            "oppTrialScore": 3,
            "playerTotalScore": -124,
            "oppTotalScore": -45,
            "waitTime": 5275.9504046823295,
            "responseTime": 1680582770898,
            "catchQuestion": "How many <b class=\"r\">red<\/b> marbles did you actually draw (before any changes)? ",
            "catchKey": -1,
            "catchResponse": -1,
            "catchTime": 1680582757200,
            "trialTime": 0
        },
        {
            "exptPart": "trial",
            "trialNumber": 57,
            "roleCurrent": "sender",
            "marblesSampled": 100,
            "probRed": 0.5,
            "lambda": 5,
            "drawnRed": 51,
            "reportedRed": 51,
            "inferredRed": 44,
            "playerTrialScore": 0,
            "oppTrialScore": -7,
            "playerTotalScore": -124,
            "oppTotalScore": -52,
            "waitTime": 2776.1035831557156,
            "responseTime": 1680582779461,
            "catchQuestion": "How many <b class=\"r\">red<\/b> marbles did you actually draw (before any changes)? ",
            "catchKey": 51,
            "catchResponse": 57,
            "catchTime": 1680582779461,
            "trialTime": 0
        },
        {
            "exptPart": "trial",
            "trialNumber": 58,
            "roleCurrent": "receiver",
            "marblesSampled": 100,
            "probRed": 0.5,
            "lambda": 5,
            "drawnRed": 70,
            "reportedRed": 83,
            "inferredRed": 83,
            "playerTrialScore": -13,
            "oppTrialScore": 13,
            "playerTotalScore": -137,
            "oppTotalScore": -39,
            "waitTime": 6780.237571168518,
            "responseTime": 1680582805762,
            "catchQuestion": "How many <b class=\"r\">red<\/b> marbles did you actually draw (before any changes)? ",
            "catchKey": -1,
            "catchResponse": -1,
            "catchTime": 1680582779461,
            "trialTime": 0
        },
        {
            "exptPart": "trial",
            "trialNumber": 59,
            "roleCurrent": "sender",
            "marblesSampled": 100,
            "probRed": 0.5,
            "lambda": 5,
            "drawnRed": 23,
            "reportedRed": 23,
            "inferredRed": 20,
            "playerTrialScore": 0,
            "oppTrialScore": -3,
            "playerTotalScore": -137,
            "oppTotalScore": -42,
            "waitTime": 3191.623637820714,
            "responseTime": 1680582817138,
            "catchQuestion": "How many <b class=\"r\">red<\/b> marbles did you actually draw (before any changes)? ",
            "catchKey": -1,
            "catchResponse": -1,
            "catchTime": 1680582779461,
            "trialTime": 0
        },
        {
            "exptPart": "trial",
            "trialNumber": 60,
            "roleCurrent": "receiver",
            "marblesSampled": 100,
            "probRed": 0.5,
            "lambda": 5,
            "drawnRed": 50,
            "reportedRed": 54,
            "inferredRed": 50,
            "playerTrialScore": 0,
            "oppTrialScore": 0,
            "playerTotalScore": -137,
            "oppTotalScore": -42,
            "waitTime": 5585.980901239124,
            "responseTime": 1680582828307,
            "catchQuestion": "How many <b class=\"r\">red<\/b> marbles did your opponent report drawing? ",
            "catchKey": 54,
            "catchResponse": 33,
            "catchTime": 1680582828307,
            "trialTime": 0
        },
        {
            "exptPart": "trial",
            "trialNumber": 61,
            "roleCurrent": "sender",
            "marblesSampled": 100,
            "probRed": 0.5,
            "lambda": 5,
            "drawnRed": 80,
            "reportedRed": 80,
            "inferredRed": 76,
            "playerTrialScore": 0,
            "oppTrialScore": -4,
            "playerTotalScore": -137,
            "oppTotalScore": -46,
            "waitTime": 2696.428117703882,
            "responseTime": 1680582849191,
            "catchQuestion": "How many <b class=\"r\">red<\/b> marbles did your opponent report drawing? ",
            "catchKey": -1,
            "catchResponse": -1,
            "catchTime": 1680582828307,
            "trialTime": 0
        },
        {
            "exptPart": "trial",
            "trialNumber": 62,
            "roleCurrent": "receiver",
            "marblesSampled": 100,
            "probRed": 0.5,
            "lambda": 5,
            "drawnRed": 43,
            "reportedRed": 47,
            "inferredRed": 45,
            "playerTrialScore": -2,
            "oppTrialScore": 2,
            "playerTotalScore": -139,
            "oppTotalScore": -44,
            "waitTime": 6670.269367075793,
            "responseTime": 1680582860800,
            "catchQuestion": "How many <b class=\"r\">red<\/b> marbles did your opponent report drawing? ",
            "catchKey": -1,
            "catchResponse": -1,
            "catchTime": 1680582828307,
            "trialTime": 0
        },
        {
            "exptPart": "trial",
            "trialNumber": 63,
            "roleCurrent": "sender",
            "marblesSampled": 100,
            "probRed": 0.5,
            "lambda": 5,
            "drawnRed": 40,
            "reportedRed": 40,
            "inferredRed": 31,
            "playerTrialScore": 0,
            "oppTrialScore": -9,
            "playerTotalScore": -139,
            "oppTotalScore": -53,
            "waitTime": 2421.6150267628973,
            "responseTime": 1680582869435,
            "catchQuestion": "How many <b class=\"r\">red<\/b> marbles did your opponent report drawing? ",
            "catchKey": -1,
            "catchResponse": -1,
            "catchTime": 1680582828307,
            "trialTime": 0
        },
        {
            "exptPart": "trial",
            "trialNumber": 64,
            "roleCurrent": "receiver",
            "marblesSampled": 100,
            "probRed": 0.5,
            "lambda": 5,
            "drawnRed": 74,
            "reportedRed": 80,
            "inferredRed": 76,
            "playerTrialScore": -2,
            "oppTrialScore": 2,
            "playerTotalScore": -141,
            "oppTotalScore": -51,
            "waitTime": 7366.256461621411,
            "responseTime": 1680582881347,
            "catchQuestion": "How many <b class=\"r\">red<\/b> marbles did your opponent report drawing? ",
            "catchKey": -1,
            "catchResponse": -1,
            "catchTime": 1680582828307,
            "trialTime": 0
        },
        {
            "exptPart": "trial",
            "trialNumber": 65,
            "roleCurrent": "sender",
            "marblesSampled": 100,
            "probRed": 0.5,
            "lambda": 5,
            "drawnRed": 79,
            "reportedRed": 79,
            "inferredRed": 74,
            "playerTrialScore": 0,
            "oppTrialScore": -5,
            "playerTotalScore": -141,
            "oppTotalScore": -56,
            "waitTime": 2507.002269297211,
            "responseTime": 1680582887681,
            "catchQuestion": "How many <b class=\"r\">red<\/b> marbles did your opponent report drawing? ",
            "catchKey": -1,
            "catchResponse": -1,
            "catchTime": 1680582887681,
            "trialTime": 0
        },
        {
            "exptPart": "trial",
            "trialNumber": 66,
            "roleCurrent": "receiver",
            "marblesSampled": 100,
            "probRed": 0.5,
            "lambda": 5,
            "drawnRed": 35,
            "reportedRed": 41,
            "inferredRed": 40,
            "playerTrialScore": -5,
            "oppTrialScore": 5,
            "playerTotalScore": -146,
            "oppTotalScore": -51,
            "waitTime": 7289.9299922637165,
            "responseTime": 1680582902175,
            "catchQuestion": "How many <b class=\"r\">red<\/b> marbles did your opponent report drawing? ",
            "catchKey": -1,
            "catchResponse": -1,
            "catchTime": 1680582887681,
            "trialTime": 0
        },
        {
            "exptPart": "trial",
            "trialNumber": 67,
            "roleCurrent": "sender",
            "marblesSampled": 100,
            "probRed": 0.5,
            "lambda": 5,
            "drawnRed": 68,
            "reportedRed": 68,
            "inferredRed": 63,
            "playerTrialScore": 0,
            "oppTrialScore": -5,
            "playerTotalScore": -146,
            "oppTotalScore": -56,
            "waitTime": 2433.912570247019,
            "responseTime": 1680582909984,
            "catchQuestion": "How many <b class=\"r\">red<\/b> marbles did your opponent report drawing? ",
            "catchKey": -1,
            "catchResponse": -1,
            "catchTime": 1680582887681,
            "trialTime": 0
        },
        {
            "exptPart": "trial",
            "trialNumber": 68,
            "roleCurrent": "receiver",
            "marblesSampled": 100,
            "probRed": 0.5,
            "lambda": 5,
            "drawnRed": 39,
            "reportedRed": 47,
            "inferredRed": 47,
            "playerTrialScore": -8,
            "oppTrialScore": 8,
            "playerTotalScore": -154,
            "oppTotalScore": -48,
            "waitTime": 5152.123608187949,
            "responseTime": 1680582919474,
            "catchQuestion": "How many <b class=\"r\">red<\/b> marbles did your opponent report drawing? ",
            "catchKey": -1,
            "catchResponse": -1,
            "catchTime": 1680582887681,
            "trialTime": 0
        },
        {
            "exptPart": "trial",
            "trialNumber": 69,
            "roleCurrent": "sender",
            "marblesSampled": 100,
            "probRed": 0.5,
            "lambda": 5,
            "drawnRed": 55,
            "reportedRed": 55,
            "inferredRed": 48,
            "playerTrialScore": 0,
            "oppTrialScore": -7,
            "playerTotalScore": -154,
            "oppTotalScore": -55,
            "waitTime": 3245.214885738145,
            "responseTime": 1680582928347,
            "catchQuestion": "How many <b class=\"r\">red<\/b> marbles did your opponent report drawing? ",
            "catchKey": -1,
            "catchResponse": -1,
            "catchTime": 1680582887681,
            "trialTime": 0
        },
        {
            "exptPart": "trial",
            "trialNumber": 70,
            "roleCurrent": "receiver",
            "marblesSampled": 100,
            "probRed": 0.5,
            "lambda": 5,
            "drawnRed": 75,
            "reportedRed": 79,
            "inferredRed": 80,
            "playerTrialScore": -5,
            "oppTrialScore": 5,
            "playerTotalScore": -159,
            "oppTotalScore": -50,
            "waitTime": 5811.875230380212,
            "responseTime": 1680582939117,
            "catchQuestion": "How many <b class=\"r\">red<\/b> marbles did your opponent report drawing? ",
            "catchKey": -1,
            "catchResponse": -1,
            "catchTime": 1680582939117,
            "trialTime": 0
        },
        {
            "exptPart": "trial",
            "trialNumber": 71,
            "roleCurrent": "sender",
            "marblesSampled": 100,
            "probRed": 0.5,
            "lambda": 5,
            "drawnRed": 21,
            "reportedRed": 21,
            "inferredRed": 18,
            "playerTrialScore": 0,
            "oppTrialScore": -3,
            "playerTotalScore": -159,
            "oppTotalScore": -53,
            "waitTime": 2287.4056815417816,
            "responseTime": 1680582948334,
            "catchQuestion": "How many <b class=\"r\">red<\/b> marbles did you actually draw (before any changes)? ",
            "catchKey": 21,
            "catchResponse": 21,
            "catchTime": 1680582948334,
            "trialTime": 0
        },
        {
            "exptPart": "trial",
            "trialNumber": 72,
            "roleCurrent": "receiver",
            "marblesSampled": 100,
            "probRed": 0.5,
            "lambda": 5,
            "drawnRed": 55,
            "reportedRed": 61,
            "inferredRed": 45,
            "playerTrialScore": -10,
            "oppTrialScore": 0,
            "playerTotalScore": -169,
            "oppTotalScore": -53,
            "waitTime": 6299.111028914516,
            "responseTime": 1680582969426,
            "catchQuestion": "How many <b class=\"r\">red<\/b> marbles did you actually draw (before any changes)? ",
            "catchKey": -1,
            "catchResponse": -1,
            "catchTime": 1680582948334,
            "trialTime": 0
        },
        {
            "exptPart": "trial",
            "trialNumber": 73,
            "roleCurrent": "sender",
            "marblesSampled": 100,
            "probRed": 0.5,
            "lambda": 5,
            "drawnRed": 59,
            "reportedRed": 59,
            "inferredRed": 57,
            "playerTrialScore": 0,
            "oppTrialScore": -2,
            "playerTotalScore": -169,
            "oppTotalScore": -55,
            "waitTime": 2720.7772615639183,
            "responseTime": 1680582977701,
            "catchQuestion": "How many <b class=\"r\">red<\/b> marbles did you actually draw (before any changes)? ",
            "catchKey": -1,
            "catchResponse": -1,
            "catchTime": 1680582948334,
            "trialTime": 0
        },
        {
            "exptPart": "trial",
            "trialNumber": 74,
            "roleCurrent": "receiver",
            "marblesSampled": 100,
            "probRed": 0.5,
            "lambda": 5,
            "drawnRed": 67,
            "reportedRed": 69,
            "inferredRed": 58,
            "playerTrialScore": -9,
            "oppTrialScore": 0,
            "playerTotalScore": -178,
            "oppTotalScore": -55,
            "waitTime": 6175.030530767088,
            "responseTime": 1680582993484,
            "catchQuestion": "How many <b class=\"r\">red<\/b> marbles did you actually draw (before any changes)? ",
            "catchKey": -1,
            "catchResponse": -1,
            "catchTime": 1680582948334,
            "trialTime": 0
        },
        {
            "exptPart": "trial",
            "trialNumber": 75,
            "roleCurrent": "sender",
            "marblesSampled": 100,
            "probRed": 0.5,
            "lambda": 5,
            "drawnRed": 24,
            "reportedRed": 24,
            "inferredRed": 19,
            "playerTrialScore": 0,
            "oppTrialScore": -5,
            "playerTotalScore": -178,
            "oppTotalScore": -60,
            "waitTime": 3026.479031661057,
            "responseTime": 1680583000724,
            "catchQuestion": "How many <b class=\"r\">red<\/b> marbles did you actually draw (before any changes)? ",
            "catchKey": -1,
            "catchResponse": -1,
            "catchTime": 1680583000724,
            "trialTime": 0
        },
        {
            "exptPart": "trial",
            "trialNumber": 76,
            "roleCurrent": "receiver",
            "marblesSampled": 100,
            "probRed": 0.5,
            "lambda": 5,
            "drawnRed": 16,
            "reportedRed": 19,
            "inferredRed": 16,
            "playerTrialScore": 0,
            "oppTrialScore": 0,
            "playerTotalScore": -178,
            "oppTotalScore": -60,
            "waitTime": 7360.538400140638,
            "responseTime": 1680583016085,
            "catchQuestion": "How many <b class=\"r\">red<\/b> marbles did you actually draw (before any changes)? ",
            "catchKey": -1,
            "catchResponse": -1,
            "catchTime": 1680583000724,
            "trialTime": 0
        },
        {
            "exptPart": "trial",
            "trialNumber": 77,
            "roleCurrent": "sender",
            "marblesSampled": 100,
            "probRed": 0.5,
            "lambda": 5,
            "drawnRed": 19,
            "reportedRed": 19,
            "inferredRed": 13,
            "playerTrialScore": 0,
            "oppTrialScore": -6,
            "playerTotalScore": -178,
            "oppTotalScore": -66,
            "waitTime": 2494.175331264076,
            "responseTime": 1680583025598,
            "catchQuestion": "How many <b class=\"r\">red<\/b> marbles did you actually draw (before any changes)? ",
            "catchKey": -1,
            "catchResponse": -1,
            "catchTime": 1680583000724,
            "trialTime": 0
        },
        {
            "exptPart": "trial",
            "trialNumber": 78,
            "roleCurrent": "receiver",
            "marblesSampled": 100,
            "probRed": 0.5,
            "lambda": 5,
            "drawnRed": 40,
            "reportedRed": 46,
            "inferredRed": 44,
            "playerTrialScore": -4,
            "oppTrialScore": 4,
            "playerTotalScore": -182,
            "oppTotalScore": -62,
            "waitTime": 5770.805740053415,
            "responseTime": 1680583035536,
            "catchQuestion": "How many <b class=\"r\">red<\/b> marbles did you actually draw (before any changes)? ",
            "catchKey": -1,
            "catchResponse": -1,
            "catchTime": 1680583000724,
            "trialTime": 0
        },
        {
            "exptPart": "trial",
            "trialNumber": 79,
            "roleCurrent": "sender",
            "marblesSampled": 100,
            "probRed": 0.5,
            "lambda": 5,
            "drawnRed": 54,
            "reportedRed": 54,
            "inferredRed": 51,
            "playerTrialScore": 0,
            "oppTrialScore": -3,
            "playerTotalScore": -182,
            "oppTotalScore": -65,
            "waitTime": 2937.0644755738094,
            "responseTime": 1680583044358,
            "catchQuestion": "How many <b class=\"r\">red<\/b> marbles did you actually draw (before any changes)? ",
            "catchKey": -1,
            "catchResponse": -1,
            "catchTime": 1680583000724,
            "trialTime": 0
        },
        {
            "exptPart": "trial",
            "trialNumber": 80,
            "roleCurrent": "receiver",
            "marblesSampled": 100,
            "probRed": 0.5,
            "lambda": 5,
            "drawnRed": 28,
            "reportedRed": 35,
            "inferredRed": 28,
            "playerTrialScore": 0,
            "oppTrialScore": 0,
            "playerTotalScore": -182,
            "oppTotalScore": -65,
            "waitTime": 5854.814041026236,
            "responseTime": 1680583056834,
            "catchQuestion": "How many <b class=\"r\">red<\/b> marbles did you actually draw (before any changes)? ",
            "catchKey": -1,
            "catchResponse": -1,
            "catchTime": 1680583056834,
            "trialTime": 0
        },
        {
            "exptPart": "trial",
            "trialNumber": 81,
            "roleCurrent": "sender",
            "marblesSampled": 100,
            "probRed": 0.5,
            "lambda": 5,
            "drawnRed": 36,
            "reportedRed": 36,
            "inferredRed": 29,
            "playerTrialScore": 0,
            "oppTrialScore": -7,
            "playerTotalScore": -182,
            "oppTotalScore": -72,
            "waitTime": 2625.9949380901026,
            "responseTime": 1680583066863,
            "catchQuestion": "How many <b class=\"r\">red<\/b> marbles did you actually draw (before any changes)? ",
            "catchKey": -1,
            "catchResponse": -1,
            "catchTime": 1680583056834,
            "trialTime": 0
        },
        {
            "exptPart": "trial",
            "trialNumber": 82,
            "roleCurrent": "receiver",
            "marblesSampled": 100,
            "probRed": 0.5,
            "lambda": 5,
            "drawnRed": 10,
            "reportedRed": 18,
            "inferredRed": 18,
            "playerTrialScore": -8,
            "oppTrialScore": 8,
            "playerTotalScore": -190,
            "oppTotalScore": -64,
            "waitTime": 6689.351842605123,
            "responseTime": 1680583079484,
            "catchQuestion": "How many <b class=\"r\">red<\/b> marbles did you actually draw (before any changes)? ",
            "catchKey": -1,
            "catchResponse": -1,
            "catchTime": 1680583056834,
            "trialTime": 0
        },
        {
            "exptPart": "trial",
            "trialNumber": 83,
            "roleCurrent": "sender",
            "marblesSampled": 100,
            "probRed": 0.5,
            "lambda": 5,
            "drawnRed": 64,
            "reportedRed": 64,
            "inferredRed": 59,
            "playerTrialScore": 0,
            "oppTrialScore": -5,
            "playerTotalScore": -190,
            "oppTotalScore": -69,
            "waitTime": 2328.5697935721246,
            "responseTime": 1680583089078,
            "catchQuestion": "How many <b class=\"r\">red<\/b> marbles did you actually draw (before any changes)? ",
            "catchKey": -1,
            "catchResponse": -1,
            "catchTime": 1680583056834,
            "trialTime": 0
        },
        {
            "exptPart": "trial",
            "trialNumber": 84,
            "roleCurrent": "receiver",
            "marblesSampled": 100,
            "probRed": 0.5,
            "lambda": 5,
            "drawnRed": 55,
            "reportedRed": 56,
            "inferredRed": 56,
            "playerTrialScore": -1,
            "oppTrialScore": 1,
            "playerTotalScore": -191,
            "oppTotalScore": -68,
            "waitTime": 5321.187416803956,
            "responseTime": 1680583099455,
            "catchQuestion": "How many <b class=\"r\">red<\/b> marbles did you actually draw (before any changes)? ",
            "catchKey": -1,
            "catchResponse": -1,
            "catchTime": 1680583056834,
            "trialTime": 0
        },
        {
            "exptPart": "trial",
            "trialNumber": 85,
            "roleCurrent": "sender",
            "marblesSampled": 100,
            "probRed": 0.5,
            "lambda": 5,
            "drawnRed": 31,
            "reportedRed": 31,
            "inferredRed": 28,
            "playerTrialScore": 0,
            "oppTrialScore": -3,
            "playerTotalScore": -191,
            "oppTotalScore": -71,
            "waitTime": 2971.817351813409,
            "responseTime": 1680583112010,
            "catchQuestion": "How many <b class=\"r\">red<\/b> marbles did you actually draw (before any changes)? ",
            "catchKey": -1,
            "catchResponse": -1,
            "catchTime": 1680583112010,
            "trialTime": 0
        },
        {
            "exptPart": "trial",
            "trialNumber": 86,
            "roleCurrent": "receiver",
            "marblesSampled": 100,
            "probRed": 0.5,
            "lambda": 5,
            "drawnRed": 57,
            "reportedRed": 63,
            "inferredRed": 60,
            "playerTrialScore": -3,
            "oppTrialScore": 3,
            "playerTotalScore": -194,
            "oppTotalScore": -68,
            "waitTime": 5443.412103290819,
            "responseTime": 1680583124159,
            "catchQuestion": "How many <b class=\"r\">red<\/b> marbles did you actually draw (before any changes)? ",
            "catchKey": -1,
            "catchResponse": -1,
            "catchTime": 1680583112010,
            "trialTime": 0
        },
        {
            "exptPart": "trial",
            "trialNumber": 87,
            "roleCurrent": "sender",
            "marblesSampled": 100,
            "probRed": 0.5,
            "lambda": 5,
            "drawnRed": 57,
            "reportedRed": 57,
            "inferredRed": 52,
            "playerTrialScore": 0,
            "oppTrialScore": -5,
            "playerTotalScore": -194,
            "oppTotalScore": -73,
            "waitTime": 2274.2889845416275,
            "responseTime": 1680583131445,
            "catchQuestion": "How many <b class=\"r\">red<\/b> marbles did you actually draw (before any changes)? ",
            "catchKey": 57,
            "catchResponse": 57,
            "catchTime": 1680583131445,
            "trialTime": 0
        },
        {
            "exptPart": "trial",
            "trialNumber": 88,
            "roleCurrent": "receiver",
            "marblesSampled": 100,
            "probRed": 0.5,
            "lambda": 5,
            "drawnRed": 22,
            "reportedRed": 35,
            "inferredRed": 36,
            "playerTrialScore": -14,
            "oppTrialScore": 14,
            "playerTotalScore": -208,
            "oppTotalScore": -59,
            "waitTime": 7278.469433681485,
            "responseTime": 1680583149434,
            "catchQuestion": "How many <b class=\"r\">red<\/b> marbles did you actually draw (before any changes)? ",
            "catchKey": -1,
            "catchResponse": -1,
            "catchTime": 1680583131445,
            "trialTime": 0
        },
        {
            "exptPart": "trial",
            "trialNumber": 89,
            "roleCurrent": "sender",
            "marblesSampled": 100,
            "probRed": 0.5,
            "lambda": 5,
            "drawnRed": 77,
            "reportedRed": 77,
            "inferredRed": 70,
            "playerTrialScore": 0,
            "oppTrialScore": -7,
            "playerTotalScore": -208,
            "oppTotalScore": -66,
            "waitTime": 2098.808290947047,
            "responseTime": 1680583157492,
            "catchQuestion": "How many <b class=\"r\">red<\/b> marbles did you actually draw (before any changes)? ",
            "catchKey": -1,
            "catchResponse": -1,
            "catchTime": 1680583131445,
            "trialTime": 0
        },
        {
            "exptPart": "trial",
            "trialNumber": 90,
            "roleCurrent": "receiver",
            "marblesSampled": 100,
            "probRed": 0.5,
            "lambda": 5,
            "drawnRed": 41,
            "reportedRed": 47,
            "inferredRed": 45,
            "playerTrialScore": -4,
            "oppTrialScore": 4,
            "playerTotalScore": -212,
            "oppTotalScore": -62,
            "waitTime": 6782.811372096481,
            "responseTime": 1680583168623,
            "catchQuestion": "How many <b class=\"r\">red<\/b> marbles did you actually draw (before any changes)? ",
            "catchKey": -1,
            "catchResponse": -1,
            "catchTime": 1680583168623,
            "trialTime": 0
        },
        {
            "exptPart": "trial",
            "trialNumber": 91,
            "roleCurrent": "sender",
            "marblesSampled": 100,
            "probRed": 0.5,
            "lambda": 5,
            "drawnRed": 19,
            "reportedRed": 19,
            "inferredRed": 13,
            "playerTrialScore": 0,
            "oppTrialScore": -6,
            "playerTotalScore": -212,
            "oppTotalScore": -68,
            "waitTime": 2222.2651995680426,
            "responseTime": 1680583183563,
            "catchQuestion": "How many <b class=\"r\">red<\/b> marbles did you actually draw (before any changes)? ",
            "catchKey": -1,
            "catchResponse": -1,
            "catchTime": 1680583168623,
            "trialTime": 0
        },
        {
            "exptPart": "trial",
            "trialNumber": 92,
            "roleCurrent": "receiver",
            "marblesSampled": 100,
            "probRed": 0.5,
            "lambda": 5,
            "drawnRed": 21,
            "reportedRed": 25,
            "inferredRed": 20,
            "playerTrialScore": -1,
            "oppTrialScore": 0,
            "playerTotalScore": -213,
            "oppTotalScore": -68,
            "waitTime": 6115.930321464065,
            "responseTime": 1680583194622,
            "catchQuestion": "How many <b class=\"r\">red<\/b> marbles did you actually draw (before any changes)? ",
            "catchKey": -1,
            "catchResponse": -1,
            "catchTime": 1680583168623,
            "trialTime": 0
        },
        {
            "exptPart": "trial",
            "trialNumber": 93,
            "roleCurrent": "sender",
            "marblesSampled": 100,
            "probRed": 0.5,
            "lambda": 5,
            "drawnRed": 57,
            "reportedRed": 58,
            "inferredRed": 55,
            "playerTrialScore": 0,
            "oppTrialScore": -2,
            "playerTotalScore": -213,
            "oppTotalScore": -70,
            "waitTime": 2819.0207327949856,
            "responseTime": 1680583207999,
            "catchQuestion": "How many <b class=\"r\">red<\/b> marbles did you actually draw (before any changes)? ",
            "catchKey": -1,
            "catchResponse": -1,
            "catchTime": 1680583168623,
            "trialTime": 0
        },
        {
            "exptPart": "trial",
            "trialNumber": 94,
            "roleCurrent": "receiver",
            "marblesSampled": 100,
            "probRed": 0.5,
            "lambda": 5,
            "drawnRed": 36,
            "reportedRed": 41,
            "inferredRed": 40,
            "playerTrialScore": -4,
            "oppTrialScore": 4,
            "playerTotalScore": -217,
            "oppTotalScore": -66,
            "waitTime": 7173.694097563089,
            "responseTime": 1680583219552,
            "catchQuestion": "How many <b class=\"r\">red<\/b> marbles did you actually draw (before any changes)? ",
            "catchKey": -1,
            "catchResponse": -1,
            "catchTime": 1680583168623,
            "trialTime": 0
        },
        {
            "exptPart": "trial",
            "trialNumber": 95,
            "roleCurrent": "sender",
            "marblesSampled": 100,
            "probRed": 0.5,
            "lambda": 5,
            "drawnRed": 20,
            "reportedRed": 21,
            "inferredRed": 17,
            "playerTrialScore": 0,
            "oppTrialScore": -3,
            "playerTotalScore": -217,
            "oppTotalScore": -69,
            "waitTime": 2316.79203569941,
            "responseTime": 1680583229087,
            "catchQuestion": "How many <b class=\"r\">red<\/b> marbles did you actually draw (before any changes)? ",
            "catchKey": -1,
            "catchResponse": -1,
            "catchTime": 1680583229087,
            "trialTime": 0
        },
        {
            "exptPart": "trial",
            "trialNumber": 96,
            "roleCurrent": "receiver",
            "marblesSampled": 100,
            "probRed": 0.5,
            "lambda": 5,
            "drawnRed": 85,
            "reportedRed": 91,
            "inferredRed": 90,
            "playerTrialScore": -5,
            "oppTrialScore": 5,
            "playerTotalScore": -222,
            "oppTotalScore": -64,
            "waitTime": 6235.7165277213335,
            "responseTime": 1680583240337,
            "catchQuestion": "How many <b class=\"r\">red<\/b> marbles did your opponent report drawing? ",
            "catchKey": 91,
            "catchResponse": 91,
            "catchTime": 1680583240337,
            "trialTime": 0
        },
        {
            "exptPart": "trial",
            "trialNumber": 97,
            "roleCurrent": "sender",
            "marblesSampled": 100,
            "probRed": 0.5,
            "lambda": 5,
            "drawnRed": 63,
            "reportedRed": 64,
            "inferredRed": 57,
            "playerTrialScore": 0,
            "oppTrialScore": -6,
            "playerTotalScore": -222,
            "oppTotalScore": -70,
            "waitTime": 2715.9467821872995,
            "responseTime": 1680583268290,
            "catchQuestion": "How many <b class=\"r\">red<\/b> marbles did your opponent report drawing? ",
            "catchKey": -1,
            "catchResponse": -1,
            "catchTime": 1680583240337,
            "trialTime": 0
        },
        {
            "exptPart": "trial",
            "trialNumber": 98,
            "roleCurrent": "receiver",
            "marblesSampled": 100,
            "probRed": 0.5,
            "lambda": 5,
            "drawnRed": 65,
            "reportedRed": 71,
            "inferredRed": 79,
            "playerTrialScore": -14,
            "oppTrialScore": 14,
            "playerTotalScore": -236,
            "oppTotalScore": -56,
            "waitTime": 7488.242558677905,
            "responseTime": 1680583281252,
            "catchQuestion": "How many <b class=\"r\">red<\/b> marbles did your opponent report drawing? ",
            "catchKey": -1,
            "catchResponse": -1,
            "catchTime": 1680583240337,
            "trialTime": 0
        },
        {
            "exptPart": "trial",
            "trialNumber": 99,
            "roleCurrent": "sender",
            "marblesSampled": 100,
            "probRed": 0.5,
            "lambda": 5,
            "drawnRed": 61,
            "reportedRed": 61,
            "inferredRed": 53,
            "playerTrialScore": 0,
            "oppTrialScore": -8,
            "playerTotalScore": -236,
            "oppTotalScore": -64,
            "waitTime": 2213.4553001292775,
            "responseTime": 1680583290549,
            "catchQuestion": "How many <b class=\"r\">red<\/b> marbles did your opponent report drawing? ",
            "catchKey": -1,
            "catchResponse": -1,
            "catchTime": 1680583240337,
            "trialTime": 0
        },
        {
            "exptPart": "trial",
            "trialNumber": 100,
            "roleCurrent": "receiver",
            "marblesSampled": 100,
            "probRed": 0.5,
            "lambda": 5,
            "drawnRed": 33,
            "reportedRed": 37,
            "inferredRed": 35,
            "playerTrialScore": -2,
            "oppTrialScore": 2,
            "playerTotalScore": -238,
            "oppTotalScore": -62,
            "waitTime": 6912.030780292691,
            "responseTime": 1680583303424,
            "catchQuestion": "How many <b class=\"r\">red<\/b> marbles did your opponent report drawing? ",
            "catchKey": -1,
            "catchResponse": -1,
            "catchTime": 1680583303424,
            "trialTime": 0
        }
    ]
}