{
    "client": {
        "type": "sona",
        "experiment_id": 2228,
        "credit_token": "b315147ae43241ea9c65086cb510cfb7",
        "survey_code": "42007",
        "sid": "sona-42007",
        "window": {
            "width": 1280,
            "height": 637
        },
        "screen": {
            "width": 1280,
            "height": 800
        },
        "userAgent": "Mozilla\/5.0 (Macintosh; Intel Mac OS X 10_15_7) AppleWebKit\/537.36 (KHTML, like Gecko) Chrome\/108.0.0.0 Safari\/537.36",
        "score": 0,
        "bonus": 0
    },
    "expt": {
        "saveURL": "submit.simple.php",
        "trials": 100,
        "practiceTrials": 2,
        "marblesSampled": 100,
        "probRed": 0.5,
        "lambdaAI": 5,
        "roleFirst": "receiver",
        "roles": [
            "sender",
            "receiver"
        ],
        "cost": "unif",
        "goal": "over",
        "goalInstructTxt": "below",
        "catchTrials": [
            37,
            50,
            16,
            26,
            13,
            14,
            31,
            60,
            93,
            67
        ],
        "scoreTotal": {
            "player": -253,
            "opp": -527
        },
        "sona": {
            "experiment_id": 2228,
            "credit_token": "b315147ae43241ea9c65086cb510cfb7"
        },
        "pilot": false,
        "debug": false
    },
    "trials": [
        {
            "exptPart": "practice",
            "trialNumber": 1,
            "roleCurrent": "sender",
            "marblesSampled": 100,
            "probRed": 0.5,
            "lambda": 5,
            "drawnRed": 94,
            "reportedRed": 85,
            "inferredRed": 81,
            "playerTrialScore": 0,
            "oppTrialScore": -13,
            "playerTotalScore": 0,
            "oppTotalScore": -13,
            "waitTime": 2532.20438820466,
            "responseTime": 1680709085043,
            "catchQuestion": "How many <b class=\"r\">red<\/b> marbles did you actually draw (before any changes)? ",
            "catchKey": 94,
            "catchResponse": 95,
            "catchTime": 1680709085043,
            "trialTime": 0
        },
        {
            "exptPart": "practice",
            "trialNumber": 2,
            "roleCurrent": "receiver",
            "marblesSampled": 100,
            "probRed": 0.5,
            "lambda": 5,
            "drawnRed": 35,
            "reportedRed": 41,
            "inferredRed": 45,
            "playerTrialScore": -10,
            "oppTrialScore": 10,
            "playerTotalScore": -10,
            "oppTotalScore": -3,
            "waitTime": 5920.6717422658385,
            "responseTime": 1680709134738,
            "catchQuestion": "How many <b class=\"r\">red<\/b> marbles did your opponent report drawing? ",
            "catchKey": 41,
            "catchResponse": 41,
            "catchTime": 1680709134738,
            "trialTime": 0
        },
        {
            "exptPart": "trial",
            "trialNumber": 1,
            "roleCurrent": "receiver",
            "marblesSampled": 100,
            "probRed": 0.5,
            "lambda": 5,
            "drawnRed": 53,
            "reportedRed": 55,
            "inferredRed": 40,
            "playerTrialScore": -13,
            "oppTrialScore": 0,
            "playerTotalScore": -13,
            "oppTotalScore": 0,
            "waitTime": 5805.040073104688,
            "responseTime": 1680709168369,
            "catchQuestion": "How many <b class=\"r\">red<\/b> marbles did your opponent report drawing? ",
            "catchKey": -1,
            "catchResponse": -1,
            "catchTime": 1680709134738,
            "trialTime": 0
        },
        {
            "exptPart": "trial",
            "trialNumber": 2,
            "roleCurrent": "sender",
            "marblesSampled": 100,
            "probRed": 0.5,
            "lambda": 5,
            "drawnRed": 55,
            "reportedRed": 55,
            "inferredRed": 47,
            "playerTrialScore": 0,
            "oppTrialScore": -8,
            "playerTotalScore": -13,
            "oppTotalScore": -8,
            "waitTime": 2211.5963978959494,
            "responseTime": 1680709189409,
            "catchQuestion": "How many <b class=\"r\">red<\/b> marbles did your opponent report drawing? ",
            "catchKey": -1,
            "catchResponse": -1,
            "catchTime": 1680709134738,
            "trialTime": 0
        },
        {
            "exptPart": "trial",
            "trialNumber": 3,
            "roleCurrent": "receiver",
            "marblesSampled": 100,
            "probRed": 0.5,
            "lambda": 5,
            "drawnRed": 44,
            "reportedRed": 50,
            "inferredRed": 50,
            "playerTrialScore": -6,
            "oppTrialScore": 6,
            "playerTotalScore": -19,
            "oppTotalScore": -2,
            "waitTime": 7433.09287344828,
            "responseTime": 1680709206024,
            "catchQuestion": "How many <b class=\"r\">red<\/b> marbles did your opponent report drawing? ",
            "catchKey": -1,
            "catchResponse": -1,
            "catchTime": 1680709134738,
            "trialTime": 0
        },
        {
            "exptPart": "trial",
            "trialNumber": 4,
            "roleCurrent": "sender",
            "marblesSampled": 100,
            "probRed": 0.5,
            "lambda": 5,
            "drawnRed": 37,
            "reportedRed": 47,
            "inferredRed": 43,
            "playerTrialScore": 6,
            "oppTrialScore": -6,
            "playerTotalScore": -13,
            "oppTotalScore": -8,
            "waitTime": 3079.9618308123736,
            "responseTime": 1680709234623,
            "catchQuestion": "How many <b class=\"r\">red<\/b> marbles did your opponent report drawing? ",
            "catchKey": -1,
            "catchResponse": -1,
            "catchTime": 1680709134738,
            "trialTime": 0
        },
        {
            "exptPart": "trial",
            "trialNumber": 5,
            "roleCurrent": "receiver",
            "marblesSampled": 100,
            "probRed": 0.5,
            "lambda": 5,
            "drawnRed": 35,
            "reportedRed": 43,
            "inferredRed": 35,
            "playerTrialScore": 0,
            "oppTrialScore": 0,
            "playerTotalScore": -13,
            "oppTotalScore": -8,
            "waitTime": 6212.543297283544,
            "responseTime": 1680709249053,
            "catchQuestion": "How many <b class=\"r\">red<\/b> marbles did your opponent report drawing? ",
            "catchKey": -1,
            "catchResponse": -1,
            "catchTime": 1680709249053,
            "trialTime": 0
        },
        {
            "exptPart": "trial",
            "trialNumber": 6,
            "roleCurrent": "sender",
            "marblesSampled": 100,
            "probRed": 0.5,
            "lambda": 5,
            "drawnRed": 38,
            "reportedRed": 53,
            "inferredRed": 46,
            "playerTrialScore": 8,
            "oppTrialScore": -8,
            "playerTotalScore": -5,
            "oppTotalScore": -16,
            "waitTime": 2434.462984622294,
            "responseTime": 1680709285206,
            "catchQuestion": "How many <b class=\"r\">red<\/b> marbles did your opponent report drawing? ",
            "catchKey": -1,
            "catchResponse": -1,
            "catchTime": 1680709249053,
            "trialTime": 0
        },
        {
            "exptPart": "trial",
            "trialNumber": 7,
            "roleCurrent": "receiver",
            "marblesSampled": 100,
            "probRed": 0.5,
            "lambda": 5,
            "drawnRed": 63,
            "reportedRed": 66,
            "inferredRed": 52,
            "playerTrialScore": -11,
            "oppTrialScore": 0,
            "playerTotalScore": -16,
            "oppTotalScore": -16,
            "waitTime": 6061.9285728873865,
            "responseTime": 1680709297063,
            "catchQuestion": "How many <b class=\"r\">red<\/b> marbles did your opponent report drawing? ",
            "catchKey": -1,
            "catchResponse": -1,
            "catchTime": 1680709249053,
            "trialTime": 0
        },
        {
            "exptPart": "trial",
            "trialNumber": 8,
            "roleCurrent": "sender",
            "marblesSampled": 100,
            "probRed": 0.5,
            "lambda": 5,
            "drawnRed": 57,
            "reportedRed": 57,
            "inferredRed": 52,
            "playerTrialScore": 0,
            "oppTrialScore": -5,
            "playerTotalScore": -16,
            "oppTotalScore": -21,
            "waitTime": 2861.303978506373,
            "responseTime": 1680709312026,
            "catchQuestion": "How many <b class=\"r\">red<\/b> marbles did your opponent report drawing? ",
            "catchKey": -1,
            "catchResponse": -1,
            "catchTime": 1680709249053,
            "trialTime": 0
        },
        {
            "exptPart": "trial",
            "trialNumber": 9,
            "roleCurrent": "receiver",
            "marblesSampled": 100,
            "probRed": 0.5,
            "lambda": 5,
            "drawnRed": 36,
            "reportedRed": 41,
            "inferredRed": 40,
            "playerTrialScore": -4,
            "oppTrialScore": 4,
            "playerTotalScore": -20,
            "oppTotalScore": -17,
            "waitTime": 5460.205575003902,
            "responseTime": 1680709327327,
            "catchQuestion": "How many <b class=\"r\">red<\/b> marbles did your opponent report drawing? ",
            "catchKey": -1,
            "catchResponse": -1,
            "catchTime": 1680709249053,
            "trialTime": 0
        },
        {
            "exptPart": "trial",
            "trialNumber": 10,
            "roleCurrent": "sender",
            "marblesSampled": 100,
            "probRed": 0.5,
            "lambda": 5,
            "drawnRed": 39,
            "reportedRed": 47,
            "inferredRed": 43,
            "playerTrialScore": 4,
            "oppTrialScore": -4,
            "playerTotalScore": -16,
            "oppTotalScore": -21,
            "waitTime": 3104.3394527595333,
            "responseTime": 1680709356712,
            "catchQuestion": "How many <b class=\"r\">red<\/b> marbles did your opponent report drawing? ",
            "catchKey": -1,
            "catchResponse": -1,
            "catchTime": 1680709356712,
            "trialTime": 0
        },
        {
            "exptPart": "trial",
            "trialNumber": 11,
            "roleCurrent": "receiver",
            "marblesSampled": 100,
            "probRed": 0.5,
            "lambda": 5,
            "drawnRed": 64,
            "reportedRed": 68,
            "inferredRed": 58,
            "playerTrialScore": -6,
            "oppTrialScore": 0,
            "playerTotalScore": -22,
            "oppTotalScore": -21,
            "waitTime": 5379.484798642361,
            "responseTime": 1680709374410,
            "catchQuestion": "How many <b class=\"r\">red<\/b> marbles did your opponent report drawing? ",
            "catchKey": -1,
            "catchResponse": -1,
            "catchTime": 1680709356712,
            "trialTime": 0
        },
        {
            "exptPart": "trial",
            "trialNumber": 12,
            "roleCurrent": "sender",
            "marblesSampled": 100,
            "probRed": 0.5,
            "lambda": 5,
            "drawnRed": 41,
            "reportedRed": 42,
            "inferredRed": 36,
            "playerTrialScore": 0,
            "oppTrialScore": -5,
            "playerTotalScore": -22,
            "oppTotalScore": -26,
            "waitTime": 2398.3032060779915,
            "responseTime": 1680709389969,
            "catchQuestion": "How many <b class=\"r\">red<\/b> marbles did your opponent report drawing? ",
            "catchKey": -1,
            "catchResponse": -1,
            "catchTime": 1680709356712,
            "trialTime": 0
        },
        {
            "exptPart": "trial",
            "trialNumber": 13,
            "roleCurrent": "receiver",
            "marblesSampled": 100,
            "probRed": 0.5,
            "lambda": 5,
            "drawnRed": 35,
            "reportedRed": 46,
            "inferredRed": 32,
            "playerTrialScore": -3,
            "oppTrialScore": 0,
            "playerTotalScore": -25,
            "oppTotalScore": -26,
            "waitTime": 6972.614682081129,
            "responseTime": 1680709413063,
            "catchQuestion": "How many <b class=\"r\">red<\/b> marbles did your opponent report drawing? ",
            "catchKey": -1,
            "catchResponse": -1,
            "catchTime": 1680709356712,
            "trialTime": 0
        },
        {
            "exptPart": "trial",
            "trialNumber": 14,
            "roleCurrent": "sender",
            "marblesSampled": 100,
            "probRed": 0.5,
            "lambda": 5,
            "drawnRed": 32,
            "reportedRed": 32,
            "inferredRed": 26,
            "playerTrialScore": 0,
            "oppTrialScore": -6,
            "playerTotalScore": -25,
            "oppTotalScore": -32,
            "waitTime": 2190.160743109891,
            "responseTime": 1680709448752,
            "catchQuestion": "How many <b class=\"r\">red<\/b> marbles did you actually draw (before any changes)? ",
            "catchKey": 32,
            "catchResponse": 32,
            "catchTime": 1680709448753,
            "trialTime": 0
        },
        {
            "exptPart": "trial",
            "trialNumber": 15,
            "roleCurrent": "receiver",
            "marblesSampled": 100,
            "probRed": 0.5,
            "lambda": 5,
            "drawnRed": 20,
            "reportedRed": 24,
            "inferredRed": 21,
            "playerTrialScore": -1,
            "oppTrialScore": 1,
            "playerTotalScore": -26,
            "oppTotalScore": -31,
            "waitTime": 6738.572034347046,
            "responseTime": 1680709474832,
            "catchQuestion": "How many <b class=\"r\">red<\/b> marbles did your opponent report drawing? ",
            "catchKey": 24,
            "catchResponse": 24,
            "catchTime": 1680709474832,
            "trialTime": 0
        },
        {
            "exptPart": "trial",
            "trialNumber": 16,
            "roleCurrent": "sender",
            "marblesSampled": 100,
            "probRed": 0.5,
            "lambda": 5,
            "drawnRed": 57,
            "reportedRed": 57,
            "inferredRed": 49,
            "playerTrialScore": 0,
            "oppTrialScore": -8,
            "playerTotalScore": -26,
            "oppTotalScore": -39,
            "waitTime": 2740.0222714901174,
            "responseTime": 1680709493102,
            "catchQuestion": "How many <b class=\"r\">red<\/b> marbles did your opponent report drawing? ",
            "catchKey": -1,
            "catchResponse": -1,
            "catchTime": 1680709474832,
            "trialTime": 0
        },
        {
            "exptPart": "trial",
            "trialNumber": 17,
            "roleCurrent": "receiver",
            "marblesSampled": 100,
            "probRed": 0.5,
            "lambda": 5,
            "drawnRed": 39,
            "reportedRed": 46,
            "inferredRed": 37,
            "playerTrialScore": -2,
            "oppTrialScore": 0,
            "playerTotalScore": -28,
            "oppTotalScore": -39,
            "waitTime": 6618.354769018515,
            "responseTime": 1680709514579,
            "catchQuestion": "How many <b class=\"r\">red<\/b> marbles did your opponent report drawing? ",
            "catchKey": 46,
            "catchResponse": 48,
            "catchTime": 1680709514580,
            "trialTime": 0
        },
        {
            "exptPart": "trial",
            "trialNumber": 18,
            "roleCurrent": "sender",
            "marblesSampled": 100,
            "probRed": 0.5,
            "lambda": 5,
            "drawnRed": 19,
            "reportedRed": 14,
            "inferredRed": 9,
            "playerTrialScore": 0,
            "oppTrialScore": -10,
            "playerTotalScore": -28,
            "oppTotalScore": -49,
            "waitTime": 2255.9283203915684,
            "responseTime": 1680709544438,
            "catchQuestion": "How many <b class=\"r\">red<\/b> marbles did your opponent report drawing? ",
            "catchKey": -1,
            "catchResponse": -1,
            "catchTime": 1680709514580,
            "trialTime": 0
        },
        {
            "exptPart": "trial",
            "trialNumber": 19,
            "roleCurrent": "receiver",
            "marblesSampled": 100,
            "probRed": 0.5,
            "lambda": 5,
            "drawnRed": 67,
            "reportedRed": 71,
            "inferredRed": 60,
            "playerTrialScore": -7,
            "oppTrialScore": 0,
            "playerTotalScore": -35,
            "oppTotalScore": -49,
            "waitTime": 5749.6863197742405,
            "responseTime": 1680709561538,
            "catchQuestion": "How many <b class=\"r\">red<\/b> marbles did your opponent report drawing? ",
            "catchKey": -1,
            "catchResponse": -1,
            "catchTime": 1680709514580,
            "trialTime": 0
        },
        {
            "exptPart": "trial",
            "trialNumber": 20,
            "roleCurrent": "sender",
            "marblesSampled": 100,
            "probRed": 0.5,
            "lambda": 5,
            "drawnRed": 71,
            "reportedRed": 66,
            "inferredRed": 59,
            "playerTrialScore": 0,
            "oppTrialScore": -12,
            "playerTotalScore": -35,
            "oppTotalScore": -61,
            "waitTime": 2511.8735015514285,
            "responseTime": 1680709584061,
            "catchQuestion": "How many <b class=\"r\">red<\/b> marbles did your opponent report drawing? ",
            "catchKey": -1,
            "catchResponse": -1,
            "catchTime": 1680709584061,
            "trialTime": 0
        },
        {
            "exptPart": "trial",
            "trialNumber": 21,
            "roleCurrent": "receiver",
            "marblesSampled": 100,
            "probRed": 0.5,
            "lambda": 5,
            "drawnRed": 76,
            "reportedRed": 80,
            "inferredRed": 62,
            "playerTrialScore": -14,
            "oppTrialScore": 0,
            "playerTotalScore": -49,
            "oppTotalScore": -61,
            "waitTime": 6965.969420051786,
            "responseTime": 1680709602936,
            "catchQuestion": "How many <b class=\"r\">red<\/b> marbles did your opponent report drawing? ",
            "catchKey": -1,
            "catchResponse": -1,
            "catchTime": 1680709584061,
            "trialTime": 0
        },
        {
            "exptPart": "trial",
            "trialNumber": 22,
            "roleCurrent": "sender",
            "marblesSampled": 100,
            "probRed": 0.5,
            "lambda": 5,
            "drawnRed": 37,
            "reportedRed": 49,
            "inferredRed": 45,
            "playerTrialScore": 8,
            "oppTrialScore": -8,
            "playerTotalScore": -41,
            "oppTotalScore": -69,
            "waitTime": 2750.0631799841412,
            "responseTime": 1680709632553,
            "catchQuestion": "How many <b class=\"r\">red<\/b> marbles did your opponent report drawing? ",
            "catchKey": -1,
            "catchResponse": -1,
            "catchTime": 1680709584061,
            "trialTime": 0
        },
        {
            "exptPart": "trial",
            "trialNumber": 23,
            "roleCurrent": "receiver",
            "marblesSampled": 100,
            "probRed": 0.5,
            "lambda": 5,
            "drawnRed": 74,
            "reportedRed": 82,
            "inferredRed": 70,
            "playerTrialScore": -4,
            "oppTrialScore": 0,
            "playerTotalScore": -45,
            "oppTotalScore": -69,
            "waitTime": 7099.491086260011,
            "responseTime": 1680709650666,
            "catchQuestion": "How many <b class=\"r\">red<\/b> marbles did your opponent report drawing? ",
            "catchKey": -1,
            "catchResponse": -1,
            "catchTime": 1680709584061,
            "trialTime": 0
        },
        {
            "exptPart": "trial",
            "trialNumber": 24,
            "roleCurrent": "sender",
            "marblesSampled": 100,
            "probRed": 0.5,
            "lambda": 5,
            "drawnRed": 48,
            "reportedRed": 54,
            "inferredRed": 49,
            "playerTrialScore": 1,
            "oppTrialScore": -1,
            "playerTotalScore": -44,
            "oppTotalScore": -70,
            "waitTime": 2487.066169038828,
            "responseTime": 1680709669544,
            "catchQuestion": "How many <b class=\"r\">red<\/b> marbles did your opponent report drawing? ",
            "catchKey": -1,
            "catchResponse": -1,
            "catchTime": 1680709584061,
            "trialTime": 0
        },
        {
            "exptPart": "trial",
            "trialNumber": 25,
            "roleCurrent": "receiver",
            "marblesSampled": 100,
            "probRed": 0.5,
            "lambda": 5,
            "drawnRed": 71,
            "reportedRed": 80,
            "inferredRed": 72,
            "playerTrialScore": -1,
            "oppTrialScore": 1,
            "playerTotalScore": -45,
            "oppTotalScore": -69,
            "waitTime": 6274.829803112796,
            "responseTime": 1680709683630,
            "catchQuestion": "How many <b class=\"r\">red<\/b> marbles did your opponent report drawing? ",
            "catchKey": -1,
            "catchResponse": -1,
            "catchTime": 1680709683630,
            "trialTime": 0
        },
        {
            "exptPart": "trial",
            "trialNumber": 26,
            "roleCurrent": "sender",
            "marblesSampled": 100,
            "probRed": 0.5,
            "lambda": 5,
            "drawnRed": 48,
            "reportedRed": 48,
            "inferredRed": 43,
            "playerTrialScore": 0,
            "oppTrialScore": -5,
            "playerTotalScore": -45,
            "oppTotalScore": -74,
            "waitTime": 2318.6828409647815,
            "responseTime": 1680709698974,
            "catchQuestion": "How many <b class=\"r\">red<\/b> marbles did your opponent report drawing? ",
            "catchKey": -1,
            "catchResponse": -1,
            "catchTime": 1680709683630,
            "trialTime": 0
        },
        {
            "exptPart": "trial",
            "trialNumber": 27,
            "roleCurrent": "receiver",
            "marblesSampled": 100,
            "probRed": 0.5,
            "lambda": 5,
            "drawnRed": 38,
            "reportedRed": 44,
            "inferredRed": 42,
            "playerTrialScore": -4,
            "oppTrialScore": 4,
            "playerTotalScore": -49,
            "oppTotalScore": -70,
            "waitTime": 6101.723102833137,
            "responseTime": 1680709713644,
            "catchQuestion": "How many <b class=\"r\">red<\/b> marbles did your opponent report drawing? ",
            "catchKey": 44,
            "catchResponse": 44,
            "catchTime": 1680709713645,
            "trialTime": 0
        },
        {
            "exptPart": "trial",
            "trialNumber": 28,
            "roleCurrent": "sender",
            "marblesSampled": 100,
            "probRed": 0.5,
            "lambda": 5,
            "drawnRed": 35,
            "reportedRed": 42,
            "inferredRed": 37,
            "playerTrialScore": 2,
            "oppTrialScore": -2,
            "playerTotalScore": -47,
            "oppTotalScore": -72,
            "waitTime": 2336.829234457452,
            "responseTime": 1680709735753,
            "catchQuestion": "How many <b class=\"r\">red<\/b> marbles did your opponent report drawing? ",
            "catchKey": -1,
            "catchResponse": -1,
            "catchTime": 1680709713645,
            "trialTime": 0
        },
        {
            "exptPart": "trial",
            "trialNumber": 29,
            "roleCurrent": "receiver",
            "marblesSampled": 100,
            "probRed": 0.5,
            "lambda": 5,
            "drawnRed": 65,
            "reportedRed": 68,
            "inferredRed": 60,
            "playerTrialScore": -5,
            "oppTrialScore": 0,
            "playerTotalScore": -52,
            "oppTotalScore": -72,
            "waitTime": 5933.52043227014,
            "responseTime": 1680709748172,
            "catchQuestion": "How many <b class=\"r\">red<\/b> marbles did your opponent report drawing? ",
            "catchKey": -1,
            "catchResponse": -1,
            "catchTime": 1680709713645,
            "trialTime": 0
        },
        {
            "exptPart": "trial",
            "trialNumber": 30,
            "roleCurrent": "sender",
            "marblesSampled": 100,
            "probRed": 0.5,
            "lambda": 5,
            "drawnRed": 24,
            "reportedRed": 63,
            "inferredRed": 59,
            "playerTrialScore": 35,
            "oppTrialScore": -35,
            "playerTotalScore": -17,
            "oppTotalScore": -107,
            "waitTime": 2958.432031996226,
            "responseTime": 1680709784512,
            "catchQuestion": "How many <b class=\"r\">red<\/b> marbles did your opponent report drawing? ",
            "catchKey": -1,
            "catchResponse": -1,
            "catchTime": 1680709784512,
            "trialTime": 0
        },
        {
            "exptPart": "trial",
            "trialNumber": 31,
            "roleCurrent": "receiver",
            "marblesSampled": 100,
            "probRed": 0.5,
            "lambda": 5,
            "drawnRed": 35,
            "reportedRed": 42,
            "inferredRed": 42,
            "playerTrialScore": -7,
            "oppTrialScore": 7,
            "playerTotalScore": -24,
            "oppTotalScore": -100,
            "waitTime": 5150.595308847413,
            "responseTime": 1680709802092,
            "catchQuestion": "How many <b class=\"r\">red<\/b> marbles did your opponent report drawing? ",
            "catchKey": -1,
            "catchResponse": -1,
            "catchTime": 1680709784512,
            "trialTime": 0
        },
        {
            "exptPart": "trial",
            "trialNumber": 32,
            "roleCurrent": "sender",
            "marblesSampled": 100,
            "probRed": 0.5,
            "lambda": 5,
            "drawnRed": 57,
            "reportedRed": 76,
            "inferredRed": 72,
            "playerTrialScore": 15,
            "oppTrialScore": -15,
            "playerTotalScore": -9,
            "oppTotalScore": -115,
            "waitTime": 2990.394059386992,
            "responseTime": 1680709830291,
            "catchQuestion": "How many <b class=\"r\">red<\/b> marbles did you actually draw (before any changes)? ",
            "catchKey": 57,
            "catchResponse": 57,
            "catchTime": 1680709830291,
            "trialTime": 0
        },
        {
            "exptPart": "trial",
            "trialNumber": 33,
            "roleCurrent": "receiver",
            "marblesSampled": 100,
            "probRed": 0.5,
            "lambda": 5,
            "drawnRed": 65,
            "reportedRed": 69,
            "inferredRed": 59,
            "playerTrialScore": -6,
            "oppTrialScore": 0,
            "playerTotalScore": -15,
            "oppTotalScore": -115,
            "waitTime": 5825.474015860271,
            "responseTime": 1680709848786,
            "catchQuestion": "How many <b class=\"r\">red<\/b> marbles did you actually draw (before any changes)? ",
            "catchKey": -1,
            "catchResponse": -1,
            "catchTime": 1680709830291,
            "trialTime": 0
        },
        {
            "exptPart": "trial",
            "trialNumber": 34,
            "roleCurrent": "sender",
            "marblesSampled": 100,
            "probRed": 0.5,
            "lambda": 5,
            "drawnRed": 84,
            "reportedRed": 79,
            "inferredRed": 74,
            "playerTrialScore": 0,
            "oppTrialScore": -10,
            "playerTotalScore": -15,
            "oppTotalScore": -125,
            "waitTime": 2619.570745753746,
            "responseTime": 1680709868148,
            "catchQuestion": "How many <b class=\"r\">red<\/b> marbles did you actually draw (before any changes)? ",
            "catchKey": -1,
            "catchResponse": -1,
            "catchTime": 1680709830291,
            "trialTime": 0
        },
        {
            "exptPart": "trial",
            "trialNumber": 35,
            "roleCurrent": "receiver",
            "marblesSampled": 100,
            "probRed": 0.5,
            "lambda": 5,
            "drawnRed": 18,
            "reportedRed": 23,
            "inferredRed": 15,
            "playerTrialScore": -3,
            "oppTrialScore": 0,
            "playerTotalScore": -18,
            "oppTotalScore": -125,
            "waitTime": 6446.154575935474,
            "responseTime": 1680709882026,
            "catchQuestion": "How many <b class=\"r\">red<\/b> marbles did you actually draw (before any changes)? ",
            "catchKey": -1,
            "catchResponse": -1,
            "catchTime": 1680709882026,
            "trialTime": 0
        },
        {
            "exptPart": "trial",
            "trialNumber": 36,
            "roleCurrent": "sender",
            "marblesSampled": 100,
            "probRed": 0.5,
            "lambda": 5,
            "drawnRed": 13,
            "reportedRed": 46,
            "inferredRed": 41,
            "playerTrialScore": 28,
            "oppTrialScore": -28,
            "playerTotalScore": 10,
            "oppTotalScore": -153,
            "waitTime": 2700.756633042265,
            "responseTime": 1680709918674,
            "catchQuestion": "How many <b class=\"r\">red<\/b> marbles did you actually draw (before any changes)? ",
            "catchKey": -1,
            "catchResponse": -1,
            "catchTime": 1680709882026,
            "trialTime": 0
        },
        {
            "exptPart": "trial",
            "trialNumber": 37,
            "roleCurrent": "receiver",
            "marblesSampled": 100,
            "probRed": 0.5,
            "lambda": 5,
            "drawnRed": 28,
            "reportedRed": 33,
            "inferredRed": 22,
            "playerTrialScore": -6,
            "oppTrialScore": 0,
            "playerTotalScore": 4,
            "oppTotalScore": -153,
            "waitTime": 6767.426511308189,
            "responseTime": 1680709932555,
            "catchQuestion": "How many <b class=\"r\">red<\/b> marbles did you actually draw (before any changes)? ",
            "catchKey": -1,
            "catchResponse": -1,
            "catchTime": 1680709882026,
            "trialTime": 0
        },
        {
            "exptPart": "trial",
            "trialNumber": 38,
            "roleCurrent": "sender",
            "marblesSampled": 100,
            "probRed": 0.5,
            "lambda": 5,
            "drawnRed": 60,
            "reportedRed": 60,
            "inferredRed": 58,
            "playerTrialScore": 0,
            "oppTrialScore": -2,
            "playerTotalScore": 4,
            "oppTotalScore": -155,
            "waitTime": 2815.980711330427,
            "responseTime": 1680709942747,
            "catchQuestion": "How many <b class=\"r\">red<\/b> marbles did you actually draw (before any changes)? ",
            "catchKey": 60,
            "catchResponse": 60,
            "catchTime": 1680709942747,
            "trialTime": 0
        },
        {
            "exptPart": "trial",
            "trialNumber": 39,
            "roleCurrent": "receiver",
            "marblesSampled": 100,
            "probRed": 0.5,
            "lambda": 5,
            "drawnRed": 58,
            "reportedRed": 65,
            "inferredRed": 55,
            "playerTrialScore": -3,
            "oppTrialScore": 0,
            "playerTotalScore": 1,
            "oppTotalScore": -155,
            "waitTime": 5698.280813910193,
            "responseTime": 1680709959726,
            "catchQuestion": "How many <b class=\"r\">red<\/b> marbles did you actually draw (before any changes)? ",
            "catchKey": -1,
            "catchResponse": -1,
            "catchTime": 1680709942747,
            "trialTime": 0
        },
        {
            "exptPart": "trial",
            "trialNumber": 40,
            "roleCurrent": "sender",
            "marblesSampled": 100,
            "probRed": 0.5,
            "lambda": 5,
            "drawnRed": 55,
            "reportedRed": 55,
            "inferredRed": 50,
            "playerTrialScore": 0,
            "oppTrialScore": -5,
            "playerTotalScore": 1,
            "oppTotalScore": -160,
            "waitTime": 2211.4262825377364,
            "responseTime": 1680709975477,
            "catchQuestion": "How many <b class=\"r\">red<\/b> marbles did you actually draw (before any changes)? ",
            "catchKey": -1,
            "catchResponse": -1,
            "catchTime": 1680709975477,
            "trialTime": 0
        },
        {
            "exptPart": "trial",
            "trialNumber": 41,
            "roleCurrent": "receiver",
            "marblesSampled": 100,
            "probRed": 0.5,
            "lambda": 5,
            "drawnRed": 60,
            "reportedRed": 70,
            "inferredRed": 43,
            "playerTrialScore": -17,
            "oppTrialScore": 0,
            "playerTotalScore": -16,
            "oppTotalScore": -160,
            "waitTime": 7383.05136828915,
            "responseTime": 1680709995580,
            "catchQuestion": "How many <b class=\"r\">red<\/b> marbles did you actually draw (before any changes)? ",
            "catchKey": -1,
            "catchResponse": -1,
            "catchTime": 1680709975477,
            "trialTime": 0
        },
        {
            "exptPart": "trial",
            "trialNumber": 42,
            "roleCurrent": "sender",
            "marblesSampled": 100,
            "probRed": 0.5,
            "lambda": 5,
            "drawnRed": 82,
            "reportedRed": 82,
            "inferredRed": 73,
            "playerTrialScore": 0,
            "oppTrialScore": -9,
            "playerTotalScore": -16,
            "oppTotalScore": -169,
            "waitTime": 2709.4162022581113,
            "responseTime": 1680710012825,
            "catchQuestion": "How many <b class=\"r\">red<\/b> marbles did you actually draw (before any changes)? ",
            "catchKey": -1,
            "catchResponse": -1,
            "catchTime": 1680709975477,
            "trialTime": 0
        },
        {
            "exptPart": "trial",
            "trialNumber": 43,
            "roleCurrent": "receiver",
            "marblesSampled": 100,
            "probRed": 0.5,
            "lambda": 5,
            "drawnRed": 64,
            "reportedRed": 71,
            "inferredRed": 60,
            "playerTrialScore": -4,
            "oppTrialScore": 0,
            "playerTotalScore": -20,
            "oppTotalScore": -169,
            "waitTime": 7253.005292702626,
            "responseTime": 1680710027252,
            "catchQuestion": "How many <b class=\"r\">red<\/b> marbles did you actually draw (before any changes)? ",
            "catchKey": -1,
            "catchResponse": -1,
            "catchTime": 1680709975477,
            "trialTime": 0
        },
        {
            "exptPart": "trial",
            "trialNumber": 44,
            "roleCurrent": "sender",
            "marblesSampled": 100,
            "probRed": 0.5,
            "lambda": 5,
            "drawnRed": 59,
            "reportedRed": 59,
            "inferredRed": 53,
            "playerTrialScore": 0,
            "oppTrialScore": -6,
            "playerTotalScore": -20,
            "oppTotalScore": -175,
            "waitTime": 2831.3063677086857,
            "responseTime": 1680710044185,
            "catchQuestion": "How many <b class=\"r\">red<\/b> marbles did you actually draw (before any changes)? ",
            "catchKey": -1,
            "catchResponse": -1,
            "catchTime": 1680709975477,
            "trialTime": 0
        },
        {
            "exptPart": "trial",
            "trialNumber": 45,
            "roleCurrent": "receiver",
            "marblesSampled": 100,
            "probRed": 0.5,
            "lambda": 5,
            "drawnRed": 36,
            "reportedRed": 38,
            "inferredRed": 25,
            "playerTrialScore": -11,
            "oppTrialScore": 0,
            "playerTotalScore": -31,
            "oppTotalScore": -175,
            "waitTime": 5887.579016147292,
            "responseTime": 1680710054980,
            "catchQuestion": "How many <b class=\"r\">red<\/b> marbles did you actually draw (before any changes)? ",
            "catchKey": -1,
            "catchResponse": -1,
            "catchTime": 1680710054980,
            "trialTime": 0
        },
        {
            "exptPart": "trial",
            "trialNumber": 46,
            "roleCurrent": "sender",
            "marblesSampled": 100,
            "probRed": 0.5,
            "lambda": 5,
            "drawnRed": 31,
            "reportedRed": 25,
            "inferredRed": 22,
            "playerTrialScore": 0,
            "oppTrialScore": -9,
            "playerTotalScore": -31,
            "oppTotalScore": -184,
            "waitTime": 2647.1509410275376,
            "responseTime": 1680710081243,
            "catchQuestion": "How many <b class=\"r\">red<\/b> marbles did you actually draw (before any changes)? ",
            "catchKey": -1,
            "catchResponse": -1,
            "catchTime": 1680710054980,
            "trialTime": 0
        },
        {
            "exptPart": "trial",
            "trialNumber": 47,
            "roleCurrent": "receiver",
            "marblesSampled": 100,
            "probRed": 0.5,
            "lambda": 5,
            "drawnRed": 71,
            "reportedRed": 77,
            "inferredRed": 55,
            "playerTrialScore": -16,
            "oppTrialScore": 0,
            "playerTotalScore": -47,
            "oppTotalScore": -184,
            "waitTime": 7459.081237273613,
            "responseTime": 1680710095632,
            "catchQuestion": "How many <b class=\"r\">red<\/b> marbles did you actually draw (before any changes)? ",
            "catchKey": -1,
            "catchResponse": -1,
            "catchTime": 1680710054980,
            "trialTime": 0
        },
        {
            "exptPart": "trial",
            "trialNumber": 48,
            "roleCurrent": "sender",
            "marblesSampled": 100,
            "probRed": 0.5,
            "lambda": 5,
            "drawnRed": 47,
            "reportedRed": 65,
            "inferredRed": 64,
            "playerTrialScore": 17,
            "oppTrialScore": -17,
            "playerTotalScore": -30,
            "oppTotalScore": -201,
            "waitTime": 3039.745410571919,
            "responseTime": 1680710124692,
            "catchQuestion": "How many <b class=\"r\">red<\/b> marbles did you actually draw (before any changes)? ",
            "catchKey": -1,
            "catchResponse": -1,
            "catchTime": 1680710054980,
            "trialTime": 0
        },
        {
            "exptPart": "trial",
            "trialNumber": 49,
            "roleCurrent": "receiver",
            "marblesSampled": 100,
            "probRed": 0.5,
            "lambda": 5,
            "drawnRed": 37,
            "reportedRed": 44,
            "inferredRed": 40,
            "playerTrialScore": -3,
            "oppTrialScore": 3,
            "playerTotalScore": -33,
            "oppTotalScore": -198,
            "waitTime": 5797.341438193088,
            "responseTime": 1680710136728,
            "catchQuestion": "How many <b class=\"r\">red<\/b> marbles did you actually draw (before any changes)? ",
            "catchKey": -1,
            "catchResponse": -1,
            "catchTime": 1680710054980,
            "trialTime": 0
        },
        {
            "exptPart": "trial",
            "trialNumber": 50,
            "roleCurrent": "sender",
            "marblesSampled": 100,
            "probRed": 0.5,
            "lambda": 5,
            "drawnRed": 76,
            "reportedRed": 76,
            "inferredRed": 70,
            "playerTrialScore": 0,
            "oppTrialScore": -6,
            "playerTotalScore": -33,
            "oppTotalScore": -204,
            "waitTime": 2717.960453273109,
            "responseTime": 1680710148430,
            "catchQuestion": "How many <b class=\"r\">red<\/b> marbles did you actually draw (before any changes)? ",
            "catchKey": -1,
            "catchResponse": -1,
            "catchTime": 1680710148430,
            "trialTime": 0
        },
        {
            "exptPart": "trial",
            "trialNumber": 51,
            "roleCurrent": "receiver",
            "marblesSampled": 100,
            "probRed": 0.5,
            "lambda": 5,
            "drawnRed": 49,
            "reportedRed": 52,
            "inferredRed": 46,
            "playerTrialScore": -3,
            "oppTrialScore": 0,
            "playerTotalScore": -36,
            "oppTotalScore": -204,
            "waitTime": 5901.248555594362,
            "responseTime": 1680710168861,
            "catchQuestion": "How many <b class=\"r\">red<\/b> marbles did your opponent report drawing? ",
            "catchKey": 52,
            "catchResponse": 52,
            "catchTime": 1680710168861,
            "trialTime": 0
        },
        {
            "exptPart": "trial",
            "trialNumber": 52,
            "roleCurrent": "sender",
            "marblesSampled": 100,
            "probRed": 0.5,
            "lambda": 5,
            "drawnRed": 38,
            "reportedRed": 59,
            "inferredRed": 56,
            "playerTrialScore": 18,
            "oppTrialScore": -18,
            "playerTotalScore": -18,
            "oppTotalScore": -222,
            "waitTime": 2432.7000252406115,
            "responseTime": 1680710196048,
            "catchQuestion": "How many <b class=\"r\">red<\/b> marbles did your opponent report drawing? ",
            "catchKey": -1,
            "catchResponse": -1,
            "catchTime": 1680710168861,
            "trialTime": 0
        },
        {
            "exptPart": "trial",
            "trialNumber": 53,
            "roleCurrent": "receiver",
            "marblesSampled": 100,
            "probRed": 0.5,
            "lambda": 5,
            "drawnRed": 93,
            "reportedRed": 99,
            "inferredRed": 50,
            "playerTrialScore": -43,
            "oppTrialScore": 0,
            "playerTotalScore": -61,
            "oppTotalScore": -222,
            "waitTime": 6517.847436469963,
            "responseTime": 1680710212086,
            "catchQuestion": "How many <b class=\"r\">red<\/b> marbles did your opponent report drawing? ",
            "catchKey": -1,
            "catchResponse": -1,
            "catchTime": 1680710168861,
            "trialTime": 0
        },
        {
            "exptPart": "trial",
            "trialNumber": 54,
            "roleCurrent": "sender",
            "marblesSampled": 100,
            "probRed": 0.5,
            "lambda": 5,
            "drawnRed": 40,
            "reportedRed": 60,
            "inferredRed": 58,
            "playerTrialScore": 18,
            "oppTrialScore": -18,
            "playerTotalScore": -43,
            "oppTotalScore": -240,
            "waitTime": 2273.8398441954996,
            "responseTime": 1680710236409,
            "catchQuestion": "How many <b class=\"r\">red<\/b> marbles did your opponent report drawing? ",
            "catchKey": -1,
            "catchResponse": -1,
            "catchTime": 1680710168861,
            "trialTime": 0
        },
        {
            "exptPart": "trial",
            "trialNumber": 55,
            "roleCurrent": "receiver",
            "marblesSampled": 100,
            "probRed": 0.5,
            "lambda": 5,
            "drawnRed": 60,
            "reportedRed": 67,
            "inferredRed": 47,
            "playerTrialScore": -13,
            "oppTrialScore": 0,
            "playerTotalScore": -56,
            "oppTotalScore": -240,
            "waitTime": 5363.960475788454,
            "responseTime": 1680710249987,
            "catchQuestion": "How many <b class=\"r\">red<\/b> marbles did your opponent report drawing? ",
            "catchKey": -1,
            "catchResponse": -1,
            "catchTime": 1680710249987,
            "trialTime": 0
        },
        {
            "exptPart": "trial",
            "trialNumber": 56,
            "roleCurrent": "sender",
            "marblesSampled": 100,
            "probRed": 0.5,
            "lambda": 5,
            "drawnRed": 16,
            "reportedRed": 16,
            "inferredRed": 11,
            "playerTrialScore": 0,
            "oppTrialScore": -5,
            "playerTotalScore": -56,
            "oppTotalScore": -245,
            "waitTime": 2482.806952201856,
            "responseTime": 1680710266796,
            "catchQuestion": "How many <b class=\"r\">red<\/b> marbles did your opponent report drawing? ",
            "catchKey": -1,
            "catchResponse": -1,
            "catchTime": 1680710249987,
            "trialTime": 0
        },
        {
            "exptPart": "trial",
            "trialNumber": 57,
            "roleCurrent": "receiver",
            "marblesSampled": 100,
            "probRed": 0.5,
            "lambda": 5,
            "drawnRed": 38,
            "reportedRed": 44,
            "inferredRed": 33,
            "playerTrialScore": -5,
            "oppTrialScore": 0,
            "playerTotalScore": -61,
            "oppTotalScore": -245,
            "waitTime": 6530.073451157503,
            "responseTime": 1680710279575,
            "catchQuestion": "How many <b class=\"r\">red<\/b> marbles did your opponent report drawing? ",
            "catchKey": -1,
            "catchResponse": -1,
            "catchTime": 1680710249987,
            "trialTime": 0
        },
        {
            "exptPart": "trial",
            "trialNumber": 58,
            "roleCurrent": "sender",
            "marblesSampled": 100,
            "probRed": 0.5,
            "lambda": 5,
            "drawnRed": 69,
            "reportedRed": 69,
            "inferredRed": 63,
            "playerTrialScore": 0,
            "oppTrialScore": -6,
            "playerTotalScore": -61,
            "oppTotalScore": -251,
            "waitTime": 2133.7469332957176,
            "responseTime": 1680710289691,
            "catchQuestion": "How many <b class=\"r\">red<\/b> marbles did your opponent report drawing? ",
            "catchKey": -1,
            "catchResponse": -1,
            "catchTime": 1680710249987,
            "trialTime": 0
        },
        {
            "exptPart": "trial",
            "trialNumber": 59,
            "roleCurrent": "receiver",
            "marblesSampled": 100,
            "probRed": 0.5,
            "lambda": 5,
            "drawnRed": 62,
            "reportedRed": 69,
            "inferredRed": 62,
            "playerTrialScore": 0,
            "oppTrialScore": 0,
            "playerTotalScore": -61,
            "oppTotalScore": -251,
            "waitTime": 7492.984204241694,
            "responseTime": 1680710312305,
            "catchQuestion": "How many <b class=\"r\">red<\/b> marbles did your opponent report drawing? ",
            "catchKey": -1,
            "catchResponse": -1,
            "catchTime": 1680710249987,
            "trialTime": 0
        },
        {
            "exptPart": "trial",
            "trialNumber": 60,
            "roleCurrent": "sender",
            "marblesSampled": 100,
            "probRed": 0.5,
            "lambda": 5,
            "drawnRed": 70,
            "reportedRed": 70,
            "inferredRed": 67,
            "playerTrialScore": 0,
            "oppTrialScore": -3,
            "playerTotalScore": -61,
            "oppTotalScore": -254,
            "waitTime": 2572.578696882196,
            "responseTime": 1680710322205,
            "catchQuestion": "How many <b class=\"r\">red<\/b> marbles did your opponent report drawing? ",
            "catchKey": -1,
            "catchResponse": -1,
            "catchTime": 1680710322205,
            "trialTime": 0
        },
        {
            "exptPart": "trial",
            "trialNumber": 61,
            "roleCurrent": "receiver",
            "marblesSampled": 100,
            "probRed": 0.5,
            "lambda": 5,
            "drawnRed": 40,
            "reportedRed": 44,
            "inferredRed": 20,
            "playerTrialScore": -20,
            "oppTrialScore": 0,
            "playerTotalScore": -81,
            "oppTotalScore": -254,
            "waitTime": 5540.743294729709,
            "responseTime": 1680710335817,
            "catchQuestion": "How many <b class=\"r\">red<\/b> marbles did your opponent report drawing? ",
            "catchKey": 44,
            "catchResponse": 44,
            "catchTime": 1680710335817,
            "trialTime": 0
        },
        {
            "exptPart": "trial",
            "trialNumber": 62,
            "roleCurrent": "sender",
            "marblesSampled": 100,
            "probRed": 0.5,
            "lambda": 5,
            "drawnRed": 55,
            "reportedRed": 72,
            "inferredRed": 70,
            "playerTrialScore": 15,
            "oppTrialScore": -15,
            "playerTotalScore": -66,
            "oppTotalScore": -269,
            "waitTime": 2396.6672253643537,
            "responseTime": 1680710361031,
            "catchQuestion": "How many <b class=\"r\">red<\/b> marbles did your opponent report drawing? ",
            "catchKey": -1,
            "catchResponse": -1,
            "catchTime": 1680710335817,
            "trialTime": 0
        },
        {
            "exptPart": "trial",
            "trialNumber": 63,
            "roleCurrent": "receiver",
            "marblesSampled": 100,
            "probRed": 0.5,
            "lambda": 5,
            "drawnRed": 67,
            "reportedRed": 72,
            "inferredRed": 52,
            "playerTrialScore": -15,
            "oppTrialScore": 0,
            "playerTotalScore": -81,
            "oppTotalScore": -269,
            "waitTime": 5575.05016842643,
            "responseTime": 1680710371032,
            "catchQuestion": "How many <b class=\"r\">red<\/b> marbles did your opponent report drawing? ",
            "catchKey": -1,
            "catchResponse": -1,
            "catchTime": 1680710335817,
            "trialTime": 0
        },
        {
            "exptPart": "trial",
            "trialNumber": 64,
            "roleCurrent": "sender",
            "marblesSampled": 100,
            "probRed": 0.5,
            "lambda": 5,
            "drawnRed": 31,
            "reportedRed": 64,
            "inferredRed": 54,
            "playerTrialScore": 23,
            "oppTrialScore": -23,
            "playerTotalScore": -58,
            "oppTotalScore": -292,
            "waitTime": 2766.7434101256426,
            "responseTime": 1680710403748,
            "catchQuestion": "How many <b class=\"r\">red<\/b> marbles did your opponent report drawing? ",
            "catchKey": -1,
            "catchResponse": -1,
            "catchTime": 1680710335817,
            "trialTime": 0
        },
        {
            "exptPart": "trial",
            "trialNumber": 65,
            "roleCurrent": "receiver",
            "marblesSampled": 100,
            "probRed": 0.5,
            "lambda": 5,
            "drawnRed": 49,
            "reportedRed": 52,
            "inferredRed": 32,
            "playerTrialScore": -17,
            "oppTrialScore": 0,
            "playerTotalScore": -75,
            "oppTotalScore": -292,
            "waitTime": 6448.776473286496,
            "responseTime": 1680710416439,
            "catchQuestion": "How many <b class=\"r\">red<\/b> marbles did your opponent report drawing? ",
            "catchKey": -1,
            "catchResponse": -1,
            "catchTime": 1680710416439,
            "trialTime": 0
        },
        {
            "exptPart": "trial",
            "trialNumber": 66,
            "roleCurrent": "sender",
            "marblesSampled": 100,
            "probRed": 0.5,
            "lambda": 5,
            "drawnRed": 59,
            "reportedRed": 59,
            "inferredRed": 55,
            "playerTrialScore": 0,
            "oppTrialScore": -4,
            "playerTotalScore": -75,
            "oppTotalScore": -296,
            "waitTime": 3023.5814647903685,
            "responseTime": 1680710431874,
            "catchQuestion": "How many <b class=\"r\">red<\/b> marbles did your opponent report drawing? ",
            "catchKey": -1,
            "catchResponse": -1,
            "catchTime": 1680710416439,
            "trialTime": 0
        },
        {
            "exptPart": "trial",
            "trialNumber": 67,
            "roleCurrent": "receiver",
            "marblesSampled": 100,
            "probRed": 0.5,
            "lambda": 5,
            "drawnRed": 26,
            "reportedRed": 30,
            "inferredRed": 10,
            "playerTrialScore": -16,
            "oppTrialScore": 0,
            "playerTotalScore": -91,
            "oppTotalScore": -296,
            "waitTime": 5380.094573641505,
            "responseTime": 1680710444068,
            "catchQuestion": "How many <b class=\"r\">red<\/b> marbles did your opponent report drawing? ",
            "catchKey": -1,
            "catchResponse": -1,
            "catchTime": 1680710416439,
            "trialTime": 0
        },
        {
            "exptPart": "trial",
            "trialNumber": 68,
            "roleCurrent": "sender",
            "marblesSampled": 100,
            "probRed": 0.5,
            "lambda": 5,
            "drawnRed": 44,
            "reportedRed": 44,
            "inferredRed": 38,
            "playerTrialScore": 0,
            "oppTrialScore": -6,
            "playerTotalScore": -91,
            "oppTotalScore": -302,
            "waitTime": 2132.8340418681664,
            "responseTime": 1680710455208,
            "catchQuestion": "How many <b class=\"r\">red<\/b> marbles did you actually draw (before any changes)? ",
            "catchKey": 44,
            "catchResponse": 44,
            "catchTime": 1680710455208,
            "trialTime": 0
        },
        {
            "exptPart": "trial",
            "trialNumber": 69,
            "roleCurrent": "receiver",
            "marblesSampled": 100,
            "probRed": 0.5,
            "lambda": 5,
            "drawnRed": 85,
            "reportedRed": 88,
            "inferredRed": 44,
            "playerTrialScore": -41,
            "oppTrialScore": 0,
            "playerTotalScore": -132,
            "oppTotalScore": -302,
            "waitTime": 6856.5844809584505,
            "responseTime": 1680710473860,
            "catchQuestion": "How many <b class=\"r\">red<\/b> marbles did you actually draw (before any changes)? ",
            "catchKey": -1,
            "catchResponse": -1,
            "catchTime": 1680710455208,
            "trialTime": 0
        },
        {
            "exptPart": "trial",
            "trialNumber": 70,
            "roleCurrent": "sender",
            "marblesSampled": 100,
            "probRed": 0.5,
            "lambda": 5,
            "drawnRed": 66,
            "reportedRed": 77,
            "inferredRed": 70,
            "playerTrialScore": 4,
            "oppTrialScore": -4,
            "playerTotalScore": -128,
            "oppTotalScore": -306,
            "waitTime": 3094.6498962574774,
            "responseTime": 1680710501031,
            "catchQuestion": "How many <b class=\"r\">red<\/b> marbles did you actually draw (before any changes)? ",
            "catchKey": -1,
            "catchResponse": -1,
            "catchTime": 1680710501031,
            "trialTime": 0
        },
        {
            "exptPart": "trial",
            "trialNumber": 71,
            "roleCurrent": "receiver",
            "marblesSampled": 100,
            "probRed": 0.5,
            "lambda": 5,
            "drawnRed": 54,
            "reportedRed": 57,
            "inferredRed": 20,
            "playerTrialScore": -34,
            "oppTrialScore": 0,
            "playerTotalScore": -162,
            "oppTotalScore": -306,
            "waitTime": 5987.954068688179,
            "responseTime": 1680710514809,
            "catchQuestion": "How many <b class=\"r\">red<\/b> marbles did you actually draw (before any changes)? ",
            "catchKey": -1,
            "catchResponse": -1,
            "catchTime": 1680710501031,
            "trialTime": 0
        },
        {
            "exptPart": "trial",
            "trialNumber": 72,
            "roleCurrent": "sender",
            "marblesSampled": 100,
            "probRed": 0.5,
            "lambda": 5,
            "drawnRed": 17,
            "reportedRed": 82,
            "inferredRed": 76,
            "playerTrialScore": 59,
            "oppTrialScore": -59,
            "playerTotalScore": -103,
            "oppTotalScore": -365,
            "waitTime": 3223.777355018075,
            "responseTime": 1680710560827,
            "catchQuestion": "How many <b class=\"r\">red<\/b> marbles did you actually draw (before any changes)? ",
            "catchKey": -1,
            "catchResponse": -1,
            "catchTime": 1680710501031,
            "trialTime": 0
        },
        {
            "exptPart": "trial",
            "trialNumber": 73,
            "roleCurrent": "receiver",
            "marblesSampled": 100,
            "probRed": 0.5,
            "lambda": 5,
            "drawnRed": 27,
            "reportedRed": 35,
            "inferredRed": 15,
            "playerTrialScore": -12,
            "oppTrialScore": 0,
            "playerTotalScore": -115,
            "oppTotalScore": -365,
            "waitTime": 7479.069387459048,
            "responseTime": 1680710574248,
            "catchQuestion": "How many <b class=\"r\">red<\/b> marbles did you actually draw (before any changes)? ",
            "catchKey": -1,
            "catchResponse": -1,
            "catchTime": 1680710501031,
            "trialTime": 0
        },
        {
            "exptPart": "trial",
            "trialNumber": 74,
            "roleCurrent": "sender",
            "marblesSampled": 100,
            "probRed": 0.5,
            "lambda": 5,
            "drawnRed": 33,
            "reportedRed": 52,
            "inferredRed": 47,
            "playerTrialScore": 14,
            "oppTrialScore": -14,
            "playerTotalScore": -101,
            "oppTotalScore": -379,
            "waitTime": 2391.04614953235,
            "responseTime": 1680710605548,
            "catchQuestion": "How many <b class=\"r\">red<\/b> marbles did you actually draw (before any changes)? ",
            "catchKey": -1,
            "catchResponse": -1,
            "catchTime": 1680710501031,
            "trialTime": 0
        },
        {
            "exptPart": "trial",
            "trialNumber": 75,
            "roleCurrent": "receiver",
            "marblesSampled": 100,
            "probRed": 0.5,
            "lambda": 5,
            "drawnRed": 52,
            "reportedRed": 56,
            "inferredRed": 26,
            "playerTrialScore": -26,
            "oppTrialScore": 0,
            "playerTotalScore": -127,
            "oppTotalScore": -379,
            "waitTime": 6280.231339398252,
            "responseTime": 1680710620342,
            "catchQuestion": "How many <b class=\"r\">red<\/b> marbles did you actually draw (before any changes)? ",
            "catchKey": -1,
            "catchResponse": -1,
            "catchTime": 1680710620342,
            "trialTime": 0
        },
        {
            "exptPart": "trial",
            "trialNumber": 76,
            "roleCurrent": "sender",
            "marblesSampled": 100,
            "probRed": 0.5,
            "lambda": 5,
            "drawnRed": 42,
            "reportedRed": 52,
            "inferredRed": 50,
            "playerTrialScore": 8,
            "oppTrialScore": -8,
            "playerTotalScore": -119,
            "oppTotalScore": -387,
            "waitTime": 2205.090130227136,
            "responseTime": 1680710644260,
            "catchQuestion": "How many <b class=\"r\">red<\/b> marbles did you actually draw (before any changes)? ",
            "catchKey": -1,
            "catchResponse": -1,
            "catchTime": 1680710620342,
            "trialTime": 0
        },
        {
            "exptPart": "trial",
            "trialNumber": 77,
            "roleCurrent": "receiver",
            "marblesSampled": 100,
            "probRed": 0.5,
            "lambda": 5,
            "drawnRed": 64,
            "reportedRed": 67,
            "inferredRed": 37,
            "playerTrialScore": -27,
            "oppTrialScore": 0,
            "playerTotalScore": -146,
            "oppTotalScore": -387,
            "waitTime": 5260.343467605023,
            "responseTime": 1680710658087,
            "catchQuestion": "How many <b class=\"r\">red<\/b> marbles did you actually draw (before any changes)? ",
            "catchKey": -1,
            "catchResponse": -1,
            "catchTime": 1680710620342,
            "trialTime": 0
        },
        {
            "exptPart": "trial",
            "trialNumber": 78,
            "roleCurrent": "sender",
            "marblesSampled": 100,
            "probRed": 0.5,
            "lambda": 5,
            "drawnRed": 58,
            "reportedRed": 87,
            "inferredRed": 84,
            "playerTrialScore": 26,
            "oppTrialScore": -26,
            "playerTotalScore": -120,
            "oppTotalScore": -413,
            "waitTime": 2508.282959578806,
            "responseTime": 1680710687766,
            "catchQuestion": "How many <b class=\"r\">red<\/b> marbles did you actually draw (before any changes)? ",
            "catchKey": -1,
            "catchResponse": -1,
            "catchTime": 1680710620342,
            "trialTime": 0
        },
        {
            "exptPart": "trial",
            "trialNumber": 79,
            "roleCurrent": "receiver",
            "marblesSampled": 100,
            "probRed": 0.5,
            "lambda": 5,
            "drawnRed": 51,
            "reportedRed": 57,
            "inferredRed": 27,
            "playerTrialScore": -24,
            "oppTrialScore": 0,
            "playerTotalScore": -144,
            "oppTotalScore": -413,
            "waitTime": 7343.876743026172,
            "responseTime": 1680710705462,
            "catchQuestion": "How many <b class=\"r\">red<\/b> marbles did you actually draw (before any changes)? ",
            "catchKey": -1,
            "catchResponse": -1,
            "catchTime": 1680710620342,
            "trialTime": 0
        },
        {
            "exptPart": "trial",
            "trialNumber": 80,
            "roleCurrent": "sender",
            "marblesSampled": 100,
            "probRed": 0.5,
            "lambda": 5,
            "drawnRed": 68,
            "reportedRed": 68,
            "inferredRed": 62,
            "playerTrialScore": 0,
            "oppTrialScore": -6,
            "playerTotalScore": -144,
            "oppTotalScore": -419,
            "waitTime": 2147.0703632856766,
            "responseTime": 1680710715836,
            "catchQuestion": "How many <b class=\"r\">red<\/b> marbles did you actually draw (before any changes)? ",
            "catchKey": -1,
            "catchResponse": -1,
            "catchTime": 1680710715836,
            "trialTime": 0
        },
        {
            "exptPart": "trial",
            "trialNumber": 81,
            "roleCurrent": "receiver",
            "marblesSampled": 100,
            "probRed": 0.5,
            "lambda": 5,
            "drawnRed": 68,
            "reportedRed": 76,
            "inferredRed": 36,
            "playerTrialScore": -32,
            "oppTrialScore": 0,
            "playerTotalScore": -176,
            "oppTotalScore": -419,
            "waitTime": 5383.041959185501,
            "responseTime": 1680710732786,
            "catchQuestion": "How many <b class=\"r\">red<\/b> marbles did you actually draw (before any changes)? ",
            "catchKey": -1,
            "catchResponse": -1,
            "catchTime": 1680710715836,
            "trialTime": 0
        },
        {
            "exptPart": "trial",
            "trialNumber": 82,
            "roleCurrent": "sender",
            "marblesSampled": 100,
            "probRed": 0.5,
            "lambda": 5,
            "drawnRed": 64,
            "reportedRed": 64,
            "inferredRed": 62,
            "playerTrialScore": 0,
            "oppTrialScore": -2,
            "playerTotalScore": -176,
            "oppTotalScore": -421,
            "waitTime": 3002.9017240408107,
            "responseTime": 1680710744682,
            "catchQuestion": "How many <b class=\"r\">red<\/b> marbles did you actually draw (before any changes)? ",
            "catchKey": -1,
            "catchResponse": -1,
            "catchTime": 1680710715836,
            "trialTime": 0
        },
        {
            "exptPart": "trial",
            "trialNumber": 83,
            "roleCurrent": "receiver",
            "marblesSampled": 100,
            "probRed": 0.5,
            "lambda": 5,
            "drawnRed": 28,
            "reportedRed": 37,
            "inferredRed": 20,
            "playerTrialScore": -8,
            "oppTrialScore": 0,
            "playerTotalScore": -184,
            "oppTotalScore": -421,
            "waitTime": 5508.952130956122,
            "responseTime": 1680710758889,
            "catchQuestion": "How many <b class=\"r\">red<\/b> marbles did you actually draw (before any changes)? ",
            "catchKey": -1,
            "catchResponse": -1,
            "catchTime": 1680710715836,
            "trialTime": 0
        },
        {
            "exptPart": "trial",
            "trialNumber": 84,
            "roleCurrent": "sender",
            "marblesSampled": 100,
            "probRed": 0.5,
            "lambda": 5,
            "drawnRed": 54,
            "reportedRed": 88,
            "inferredRed": 85,
            "playerTrialScore": 31,
            "oppTrialScore": -31,
            "playerTotalScore": -153,
            "oppTotalScore": -452,
            "waitTime": 3089.687345879584,
            "responseTime": 1680710789097,
            "catchQuestion": "How many <b class=\"r\">red<\/b> marbles did you actually draw (before any changes)? ",
            "catchKey": -1,
            "catchResponse": -1,
            "catchTime": 1680710715836,
            "trialTime": 0
        },
        {
            "exptPart": "trial",
            "trialNumber": 85,
            "roleCurrent": "receiver",
            "marblesSampled": 100,
            "probRed": 0.5,
            "lambda": 5,
            "drawnRed": 72,
            "reportedRed": 76,
            "inferredRed": 46,
            "playerTrialScore": -26,
            "oppTrialScore": 0,
            "playerTotalScore": -179,
            "oppTotalScore": -452,
            "waitTime": 6404.356736286514,
            "responseTime": 1680710801530,
            "catchQuestion": "How many <b class=\"r\">red<\/b> marbles did you actually draw (before any changes)? ",
            "catchKey": -1,
            "catchResponse": -1,
            "catchTime": 1680710801530,
            "trialTime": 0
        },
        {
            "exptPart": "trial",
            "trialNumber": 86,
            "roleCurrent": "sender",
            "marblesSampled": 100,
            "probRed": 0.5,
            "lambda": 5,
            "drawnRed": 81,
            "reportedRed": 81,
            "inferredRed": 78,
            "playerTrialScore": 0,
            "oppTrialScore": -3,
            "playerTotalScore": -179,
            "oppTotalScore": -455,
            "waitTime": 2275.0771844627598,
            "responseTime": 1680710814525,
            "catchQuestion": "How many <b class=\"r\">red<\/b> marbles did you actually draw (before any changes)? ",
            "catchKey": -1,
            "catchResponse": -1,
            "catchTime": 1680710801530,
            "trialTime": 0
        },
        {
            "exptPart": "trial",
            "trialNumber": 87,
            "roleCurrent": "receiver",
            "marblesSampled": 100,
            "probRed": 0.5,
            "lambda": 5,
            "drawnRed": 57,
            "reportedRed": 63,
            "inferredRed": 43,
            "playerTrialScore": -14,
            "oppTrialScore": 0,
            "playerTotalScore": -193,
            "oppTotalScore": -455,
            "waitTime": 5624.541089184692,
            "responseTime": 1680710825175,
            "catchQuestion": "How many <b class=\"r\">red<\/b> marbles did you actually draw (before any changes)? ",
            "catchKey": -1,
            "catchResponse": -1,
            "catchTime": 1680710801530,
            "trialTime": 0
        },
        {
            "exptPart": "trial",
            "trialNumber": 88,
            "roleCurrent": "sender",
            "marblesSampled": 100,
            "probRed": 0.5,
            "lambda": 5,
            "drawnRed": 48,
            "reportedRed": 68,
            "inferredRed": 65,
            "playerTrialScore": 17,
            "oppTrialScore": -17,
            "playerTotalScore": -176,
            "oppTotalScore": -472,
            "waitTime": 2866.0814134589527,
            "responseTime": 1680710846303,
            "catchQuestion": "How many <b class=\"r\">red<\/b> marbles did you actually draw (before any changes)? ",
            "catchKey": -1,
            "catchResponse": -1,
            "catchTime": 1680710801530,
            "trialTime": 0
        },
        {
            "exptPart": "trial",
            "trialNumber": 89,
            "roleCurrent": "receiver",
            "marblesSampled": 100,
            "probRed": 0.5,
            "lambda": 5,
            "drawnRed": 13,
            "reportedRed": 21,
            "inferredRed": 10,
            "playerTrialScore": -3,
            "oppTrialScore": 0,
            "playerTotalScore": -179,
            "oppTotalScore": -472,
            "waitTime": 7225.002519896726,
            "responseTime": 1680710861852,
            "catchQuestion": "How many <b class=\"r\">red<\/b> marbles did you actually draw (before any changes)? ",
            "catchKey": -1,
            "catchResponse": -1,
            "catchTime": 1680710801530,
            "trialTime": 0
        },
        {
            "exptPart": "trial",
            "trialNumber": 90,
            "roleCurrent": "sender",
            "marblesSampled": 100,
            "probRed": 0.5,
            "lambda": 5,
            "drawnRed": 56,
            "reportedRed": 69,
            "inferredRed": 65,
            "playerTrialScore": 9,
            "oppTrialScore": -9,
            "playerTotalScore": -170,
            "oppTotalScore": -481,
            "waitTime": 3232.108073482839,
            "responseTime": 1680710887495,
            "catchQuestion": "How many <b class=\"r\">red<\/b> marbles did you actually draw (before any changes)? ",
            "catchKey": -1,
            "catchResponse": -1,
            "catchTime": 1680710887495,
            "trialTime": 0
        },
        {
            "exptPart": "trial",
            "trialNumber": 91,
            "roleCurrent": "receiver",
            "marblesSampled": 100,
            "probRed": 0.5,
            "lambda": 5,
            "drawnRed": 62,
            "reportedRed": 64,
            "inferredRed": 24,
            "playerTrialScore": -38,
            "oppTrialScore": 0,
            "playerTotalScore": -208,
            "oppTotalScore": -481,
            "waitTime": 6673.123840348775,
            "responseTime": 1680710902906,
            "catchQuestion": "How many <b class=\"r\">red<\/b> marbles did you actually draw (before any changes)? ",
            "catchKey": -1,
            "catchResponse": -1,
            "catchTime": 1680710887495,
            "trialTime": 0
        },
        {
            "exptPart": "trial",
            "trialNumber": 92,
            "roleCurrent": "sender",
            "marblesSampled": 100,
            "probRed": 0.5,
            "lambda": 5,
            "drawnRed": 34,
            "reportedRed": 74,
            "inferredRed": 73,
            "playerTrialScore": 39,
            "oppTrialScore": -39,
            "playerTotalScore": -169,
            "oppTotalScore": -520,
            "waitTime": 2695.8862665016304,
            "responseTime": 1680710940687,
            "catchQuestion": "How many <b class=\"r\">red<\/b> marbles did you actually draw (before any changes)? ",
            "catchKey": -1,
            "catchResponse": -1,
            "catchTime": 1680710887495,
            "trialTime": 0
        },
        {
            "exptPart": "trial",
            "trialNumber": 93,
            "roleCurrent": "receiver",
            "marblesSampled": 100,
            "probRed": 0.5,
            "lambda": 5,
            "drawnRed": 49,
            "reportedRed": 59,
            "inferredRed": 34,
            "playerTrialScore": -15,
            "oppTrialScore": 0,
            "playerTotalScore": -184,
            "oppTotalScore": -520,
            "waitTime": 5667.253852887,
            "responseTime": 1680710954445,
            "catchQuestion": "How many <b class=\"r\">red<\/b> marbles did you actually draw (before any changes)? ",
            "catchKey": -1,
            "catchResponse": -1,
            "catchTime": 1680710887495,
            "trialTime": 0
        },
        {
            "exptPart": "trial",
            "trialNumber": 94,
            "roleCurrent": "sender",
            "marblesSampled": 100,
            "probRed": 0.5,
            "lambda": 5,
            "drawnRed": 39,
            "reportedRed": 44,
            "inferredRed": 38,
            "playerTrialScore": 0,
            "oppTrialScore": -1,
            "playerTotalScore": -184,
            "oppTotalScore": -521,
            "waitTime": 2547.738035673951,
            "responseTime": 1680710968610,
            "catchQuestion": "How many <b class=\"r\">red<\/b> marbles did you actually draw (before any changes)? ",
            "catchKey": 39,
            "catchResponse": 39,
            "catchTime": 1680710968610,
            "trialTime": 0
        },
        {
            "exptPart": "trial",
            "trialNumber": 95,
            "roleCurrent": "receiver",
            "marblesSampled": 100,
            "probRed": 0.5,
            "lambda": 5,
            "drawnRed": 72,
            "reportedRed": 78,
            "inferredRed": 18,
            "playerTrialScore": -54,
            "oppTrialScore": 0,
            "playerTotalScore": -238,
            "oppTotalScore": -521,
            "waitTime": 6626.024605730611,
            "responseTime": 1680710988645,
            "catchQuestion": "How many <b class=\"r\">red<\/b> marbles did you actually draw (before any changes)? ",
            "catchKey": -1,
            "catchResponse": -1,
            "catchTime": 1680710988645,
            "trialTime": 0
        },
        {
            "exptPart": "trial",
            "trialNumber": 96,
            "roleCurrent": "sender",
            "marblesSampled": 100,
            "probRed": 0.5,
            "lambda": 5,
            "drawnRed": 72,
            "reportedRed": 72,
            "inferredRed": 69,
            "playerTrialScore": 0,
            "oppTrialScore": -3,
            "playerTotalScore": -238,
            "oppTotalScore": -524,
            "waitTime": 2093.5283827535695,
            "responseTime": 1680711005107,
            "catchQuestion": "How many <b class=\"r\">red<\/b> marbles did you actually draw (before any changes)? ",
            "catchKey": -1,
            "catchResponse": -1,
            "catchTime": 1680710988645,
            "trialTime": 0
        },
        {
            "exptPart": "trial",
            "trialNumber": 97,
            "roleCurrent": "receiver",
            "marblesSampled": 100,
            "probRed": 0.5,
            "lambda": 5,
            "drawnRed": 39,
            "reportedRed": 39,
            "inferredRed": 29,
            "playerTrialScore": -10,
            "oppTrialScore": 0,
            "playerTotalScore": -248,
            "oppTotalScore": -524,
            "waitTime": 6963.288754306181,
            "responseTime": 1680711018046,
            "catchQuestion": "How many <b class=\"r\">red<\/b> marbles did you actually draw (before any changes)? ",
            "catchKey": -1,
            "catchResponse": -1,
            "catchTime": 1680710988645,
            "trialTime": 0
        },
        {
            "exptPart": "trial",
            "trialNumber": 98,
            "roleCurrent": "sender",
            "marblesSampled": 100,
            "probRed": 0.5,
            "lambda": 5,
            "drawnRed": 35,
            "reportedRed": 35,
            "inferredRed": 31,
            "playerTrialScore": 0,
            "oppTrialScore": -4,
            "playerTotalScore": -248,
            "oppTotalScore": -528,
            "waitTime": 2922.065420264156,
            "responseTime": 1680711026392,
            "catchQuestion": "How many <b class=\"r\">red<\/b> marbles did you actually draw (before any changes)? ",
            "catchKey": -1,
            "catchResponse": -1,
            "catchTime": 1680710988645,
            "trialTime": 0
        },
        {
            "exptPart": "trial",
            "trialNumber": 99,
            "roleCurrent": "receiver",
            "marblesSampled": 100,
            "probRed": 0.5,
            "lambda": 5,
            "drawnRed": 10,
            "reportedRed": 15,
            "inferredRed": 15,
            "playerTrialScore": -5,
            "oppTrialScore": 5,
            "playerTotalScore": -253,
            "oppTotalScore": -523,
            "waitTime": 7092.199664051864,
            "responseTime": 1680711039286,
            "catchQuestion": "How many <b class=\"r\">red<\/b> marbles did you actually draw (before any changes)? ",
            "catchKey": -1,
            "catchResponse": -1,
            "catchTime": 1680710988645,
            "trialTime": 0
        },
        {
            "exptPart": "trial",
            "trialNumber": 100,
            "roleCurrent": "sender",
            "marblesSampled": 100,
            "probRed": 0.5,
            "lambda": 5,
            "drawnRed": 27,
            "reportedRed": 27,
            "inferredRed": 23,
            "playerTrialScore": 0,
            "oppTrialScore": -4,
            "playerTotalScore": -253,
            "oppTotalScore": -527,
            "waitTime": 2159.7169777930203,
            "responseTime": 1680711046475,
            "catchQuestion": "How many <b class=\"r\">red<\/b> marbles did you actually draw (before any changes)? ",
            "catchKey": -1,
            "catchResponse": -1,
            "catchTime": 1680711046475,
            "trialTime": 0
        }
    ]
}