{
    "client": {
        "type": "sona",
        "experiment_id": 2228,
        "credit_token": "b315147ae43241ea9c65086cb510cfb7",
        "survey_code": "47815",
        "sid": "sona-47815",
        "window": {
            "width": 1134,
            "height": 696
        },
        "screen": {
            "width": 1280,
            "height": 800
        },
        "userAgent": "Mozilla\/5.0 (Macintosh; Intel Mac OS X 10_15_7) AppleWebKit\/537.36 (KHTML, like Gecko) Chrome\/110.0.0.0 Safari\/537.36",
        "score": 0,
        "bonus": 0
    },
    "expt": {
        "saveURL": "submit.simple.php",
        "trials": 100,
        "practiceTrials": 2,
        "marblesSampled": 100,
        "probRed": 0.5,
        "lambdaAI": 5,
        "roleFirst": "receiver",
        "roles": [
            "sender",
            "receiver"
        ],
        "cost": "linear",
        "goal": "over",
        "goalInstructTxt": "below",
        "catchTrials": [
            49,
            14,
            46,
            5,
            70,
            19,
            40,
            95,
            99,
            82
        ],
        "scoreTotal": {
            "player": -165,
            "opp": -117
        },
        "sona": {
            "experiment_id": 2228,
            "credit_token": "b315147ae43241ea9c65086cb510cfb7"
        },
        "pilot": false,
        "debug": false
    },
    "trials": [
        {
            "exptPart": "practice",
            "trialNumber": 1,
            "roleCurrent": "sender",
            "marblesSampled": 100,
            "probRed": 0.5,
            "lambda": 5,
            "drawnRed": 84,
            "reportedRed": 84,
            "inferredRed": 79,
            "playerTrialScore": 0,
            "oppTrialScore": -5,
            "playerTotalScore": 0,
            "oppTotalScore": -5,
            "waitTime": 2911.3460983035147,
            "responseTime": 1678833812353,
            "catchQuestion": "How many <b class=\"r\">red<\/b> marbles did you actually draw (before any changes)? ",
            "catchKey": 84,
            "catchResponse": 16,
            "catchTime": 1678833812353,
            "trialTime": 0
        },
        {
            "exptPart": "practice",
            "trialNumber": 2,
            "roleCurrent": "receiver",
            "marblesSampled": 100,
            "probRed": 0.5,
            "lambda": 5,
            "drawnRed": 70,
            "reportedRed": 78,
            "inferredRed": 78,
            "playerTrialScore": -8,
            "oppTrialScore": 8,
            "playerTotalScore": -8,
            "oppTotalScore": 3,
            "waitTime": 6492.777725000078,
            "responseTime": 1678833971354,
            "catchQuestion": "How many <b class=\"r\">red<\/b> marbles did your opponent report drawing? ",
            "catchKey": 78,
            "catchResponse": 78,
            "catchTime": 1678833971354,
            "trialTime": 0
        },
        {
            "exptPart": "trial",
            "trialNumber": 1,
            "roleCurrent": "receiver",
            "marblesSampled": 100,
            "probRed": 0.5,
            "lambda": 5,
            "drawnRed": 38,
            "reportedRed": 40,
            "inferredRed": 42,
            "playerTrialScore": -4,
            "oppTrialScore": 4,
            "playerTotalScore": -4,
            "oppTotalScore": 4,
            "waitTime": 7260.535429427887,
            "responseTime": 1678834024728,
            "catchQuestion": "How many <b class=\"r\">red<\/b> marbles did your opponent report drawing? ",
            "catchKey": -1,
            "catchResponse": -1,
            "catchTime": 1678833971354,
            "trialTime": 0
        },
        {
            "exptPart": "trial",
            "trialNumber": 2,
            "roleCurrent": "sender",
            "marblesSampled": 100,
            "probRed": 0.5,
            "lambda": 5,
            "drawnRed": 59,
            "reportedRed": 55,
            "inferredRed": 51,
            "playerTrialScore": 0,
            "oppTrialScore": -8,
            "playerTotalScore": -4,
            "oppTotalScore": -4,
            "waitTime": 2893.9214471714604,
            "responseTime": 1678834063180,
            "catchQuestion": "How many <b class=\"r\">red<\/b> marbles did your opponent report drawing? ",
            "catchKey": -1,
            "catchResponse": -1,
            "catchTime": 1678833971354,
            "trialTime": 0
        },
        {
            "exptPart": "trial",
            "trialNumber": 3,
            "roleCurrent": "receiver",
            "marblesSampled": 100,
            "probRed": 0.5,
            "lambda": 5,
            "drawnRed": 50,
            "reportedRed": 55,
            "inferredRed": 51,
            "playerTrialScore": -1,
            "oppTrialScore": 1,
            "playerTotalScore": -5,
            "oppTotalScore": -3,
            "waitTime": 5544.625893345145,
            "responseTime": 1678834076076,
            "catchQuestion": "How many <b class=\"r\">red<\/b> marbles did your opponent report drawing? ",
            "catchKey": -1,
            "catchResponse": -1,
            "catchTime": 1678833971354,
            "trialTime": 0
        },
        {
            "exptPart": "trial",
            "trialNumber": 4,
            "roleCurrent": "sender",
            "marblesSampled": 100,
            "probRed": 0.5,
            "lambda": 5,
            "drawnRed": 59,
            "reportedRed": 57,
            "inferredRed": 53,
            "playerTrialScore": 0,
            "oppTrialScore": -6,
            "playerTotalScore": -5,
            "oppTotalScore": -9,
            "waitTime": 2173.9186509989995,
            "responseTime": 1678834253915,
            "catchQuestion": "How many <b class=\"r\">red<\/b> marbles did your opponent report drawing? ",
            "catchKey": -1,
            "catchResponse": -1,
            "catchTime": 1678833971354,
            "trialTime": 0
        },
        {
            "exptPart": "trial",
            "trialNumber": 5,
            "roleCurrent": "receiver",
            "marblesSampled": 100,
            "probRed": 0.5,
            "lambda": 5,
            "drawnRed": 57,
            "reportedRed": 63,
            "inferredRed": 66,
            "playerTrialScore": -9,
            "oppTrialScore": 9,
            "playerTotalScore": -14,
            "oppTotalScore": 0,
            "waitTime": 5287.405337306417,
            "responseTime": 1678834270036,
            "catchQuestion": "How many <b class=\"r\">red<\/b> marbles did your opponent report drawing? ",
            "catchKey": -1,
            "catchResponse": -1,
            "catchTime": 1678834270036,
            "trialTime": 0
        },
        {
            "exptPart": "trial",
            "trialNumber": 6,
            "roleCurrent": "sender",
            "marblesSampled": 100,
            "probRed": 0.5,
            "lambda": 5,
            "drawnRed": 13,
            "reportedRed": 13,
            "inferredRed": 6,
            "playerTrialScore": 0,
            "oppTrialScore": -7,
            "playerTotalScore": -14,
            "oppTotalScore": -7,
            "waitTime": 2630.5138571026373,
            "responseTime": 1678834287690,
            "catchQuestion": "How many <b class=\"r\">red<\/b> marbles did you actually draw (before any changes)? ",
            "catchKey": 13,
            "catchResponse": 88,
            "catchTime": 1678834287690,
            "trialTime": 0
        },
        {
            "exptPart": "trial",
            "trialNumber": 7,
            "roleCurrent": "receiver",
            "marblesSampled": 100,
            "probRed": 0.5,
            "lambda": 5,
            "drawnRed": 55,
            "reportedRed": 62,
            "inferredRed": 59,
            "playerTrialScore": -4,
            "oppTrialScore": 4,
            "playerTotalScore": -18,
            "oppTotalScore": -3,
            "waitTime": 6576.745189319753,
            "responseTime": 1678834324737,
            "catchQuestion": "How many <b class=\"r\">red<\/b> marbles did you actually draw (before any changes)? ",
            "catchKey": -1,
            "catchResponse": -1,
            "catchTime": 1678834287690,
            "trialTime": 0
        },
        {
            "exptPart": "trial",
            "trialNumber": 8,
            "roleCurrent": "sender",
            "marblesSampled": 100,
            "probRed": 0.5,
            "lambda": 5,
            "drawnRed": 36,
            "reportedRed": 43,
            "inferredRed": 39,
            "playerTrialScore": 3,
            "oppTrialScore": -3,
            "playerTotalScore": -15,
            "oppTotalScore": -6,
            "waitTime": 3053.8357412145183,
            "responseTime": 1678834356684,
            "catchQuestion": "How many <b class=\"r\">red<\/b> marbles did you actually draw (before any changes)? ",
            "catchKey": -1,
            "catchResponse": -1,
            "catchTime": 1678834287690,
            "trialTime": 0
        },
        {
            "exptPart": "trial",
            "trialNumber": 9,
            "roleCurrent": "receiver",
            "marblesSampled": 100,
            "probRed": 0.5,
            "lambda": 5,
            "drawnRed": 39,
            "reportedRed": 43,
            "inferredRed": 39,
            "playerTrialScore": 0,
            "oppTrialScore": 0,
            "playerTotalScore": -15,
            "oppTotalScore": -6,
            "waitTime": 6486.438885300213,
            "responseTime": 1678834369993,
            "catchQuestion": "How many <b class=\"r\">red<\/b> marbles did you actually draw (before any changes)? ",
            "catchKey": -1,
            "catchResponse": -1,
            "catchTime": 1678834287690,
            "trialTime": 0
        },
        {
            "exptPart": "trial",
            "trialNumber": 10,
            "roleCurrent": "sender",
            "marblesSampled": 100,
            "probRed": 0.5,
            "lambda": 5,
            "drawnRed": 62,
            "reportedRed": 56,
            "inferredRed": 53,
            "playerTrialScore": 0,
            "oppTrialScore": -9,
            "playerTotalScore": -15,
            "oppTotalScore": -15,
            "waitTime": 2463.551851362916,
            "responseTime": 1678834402235,
            "catchQuestion": "How many <b class=\"r\">red<\/b> marbles did you actually draw (before any changes)? ",
            "catchKey": -1,
            "catchResponse": -1,
            "catchTime": 1678834402235,
            "trialTime": 0
        },
        {
            "exptPart": "trial",
            "trialNumber": 11,
            "roleCurrent": "receiver",
            "marblesSampled": 100,
            "probRed": 0.5,
            "lambda": 5,
            "drawnRed": 45,
            "reportedRed": 48,
            "inferredRed": 46,
            "playerTrialScore": -1,
            "oppTrialScore": 1,
            "playerTotalScore": -16,
            "oppTotalScore": -14,
            "waitTime": 6836.84455708689,
            "responseTime": 1678834446421,
            "catchQuestion": "How many <b class=\"r\">red<\/b> marbles did you actually draw (before any changes)? ",
            "catchKey": -1,
            "catchResponse": -1,
            "catchTime": 1678834402235,
            "trialTime": 0
        },
        {
            "exptPart": "trial",
            "trialNumber": 12,
            "roleCurrent": "sender",
            "marblesSampled": 100,
            "probRed": 0.5,
            "lambda": 5,
            "drawnRed": 72,
            "reportedRed": 76,
            "inferredRed": 69,
            "playerTrialScore": 0,
            "oppTrialScore": -3,
            "playerTotalScore": -16,
            "oppTotalScore": -17,
            "waitTime": 2065.002103566224,
            "responseTime": 1678834482614,
            "catchQuestion": "How many <b class=\"r\">red<\/b> marbles did you actually draw (before any changes)? ",
            "catchKey": -1,
            "catchResponse": -1,
            "catchTime": 1678834402235,
            "trialTime": 0
        },
        {
            "exptPart": "trial",
            "trialNumber": 13,
            "roleCurrent": "receiver",
            "marblesSampled": 100,
            "probRed": 0.5,
            "lambda": 5,
            "drawnRed": 60,
            "reportedRed": 68,
            "inferredRed": 67,
            "playerTrialScore": -7,
            "oppTrialScore": 7,
            "playerTotalScore": -23,
            "oppTotalScore": -10,
            "waitTime": 6428.634184722685,
            "responseTime": 1678834494866,
            "catchQuestion": "How many <b class=\"r\">red<\/b> marbles did you actually draw (before any changes)? ",
            "catchKey": -1,
            "catchResponse": -1,
            "catchTime": 1678834402235,
            "trialTime": 0
        },
        {
            "exptPart": "trial",
            "trialNumber": 14,
            "roleCurrent": "sender",
            "marblesSampled": 100,
            "probRed": 0.5,
            "lambda": 5,
            "drawnRed": 78,
            "reportedRed": 74,
            "inferredRed": 70,
            "playerTrialScore": 0,
            "oppTrialScore": -8,
            "playerTotalScore": -23,
            "oppTotalScore": -18,
            "waitTime": 2538.4148452974614,
            "responseTime": 1678834535575,
            "catchQuestion": "How many <b class=\"r\">red<\/b> marbles did you actually draw (before any changes)? ",
            "catchKey": -1,
            "catchResponse": -1,
            "catchTime": 1678834402235,
            "trialTime": 0
        },
        {
            "exptPart": "trial",
            "trialNumber": 15,
            "roleCurrent": "receiver",
            "marblesSampled": 100,
            "probRed": 0.5,
            "lambda": 5,
            "drawnRed": 76,
            "reportedRed": 84,
            "inferredRed": 84,
            "playerTrialScore": -8,
            "oppTrialScore": 8,
            "playerTotalScore": -31,
            "oppTotalScore": -10,
            "waitTime": 5673.32803297539,
            "responseTime": 1678834551801,
            "catchQuestion": "How many <b class=\"r\">red<\/b> marbles did your opponent report drawing? ",
            "catchKey": 84,
            "catchResponse": 84,
            "catchTime": 1678834551801,
            "trialTime": 0
        },
        {
            "exptPart": "trial",
            "trialNumber": 16,
            "roleCurrent": "sender",
            "marblesSampled": 100,
            "probRed": 0.5,
            "lambda": 5,
            "drawnRed": 41,
            "reportedRed": 38,
            "inferredRed": 31,
            "playerTrialScore": 0,
            "oppTrialScore": -10,
            "playerTotalScore": -31,
            "oppTotalScore": -20,
            "waitTime": 3115.6136665535455,
            "responseTime": 1678834596913,
            "catchQuestion": "How many <b class=\"r\">red<\/b> marbles did your opponent report drawing? ",
            "catchKey": -1,
            "catchResponse": -1,
            "catchTime": 1678834551801,
            "trialTime": 0
        },
        {
            "exptPart": "trial",
            "trialNumber": 17,
            "roleCurrent": "receiver",
            "marblesSampled": 100,
            "probRed": 0.5,
            "lambda": 5,
            "drawnRed": 43,
            "reportedRed": 47,
            "inferredRed": 43,
            "playerTrialScore": 0,
            "oppTrialScore": 0,
            "playerTotalScore": -31,
            "oppTotalScore": -20,
            "waitTime": 5748.676763730704,
            "responseTime": 1678834620663,
            "catchQuestion": "How many <b class=\"r\">red<\/b> marbles did your opponent report drawing? ",
            "catchKey": -1,
            "catchResponse": -1,
            "catchTime": 1678834551801,
            "trialTime": 0
        },
        {
            "exptPart": "trial",
            "trialNumber": 18,
            "roleCurrent": "sender",
            "marblesSampled": 100,
            "probRed": 0.5,
            "lambda": 5,
            "drawnRed": 74,
            "reportedRed": 72,
            "inferredRed": 63,
            "playerTrialScore": 0,
            "oppTrialScore": -11,
            "playerTotalScore": -31,
            "oppTotalScore": -31,
            "waitTime": 3240.2108740926133,
            "responseTime": 1678834655548,
            "catchQuestion": "How many <b class=\"r\">red<\/b> marbles did your opponent report drawing? ",
            "catchKey": -1,
            "catchResponse": -1,
            "catchTime": 1678834551801,
            "trialTime": 0
        },
        {
            "exptPart": "trial",
            "trialNumber": 19,
            "roleCurrent": "receiver",
            "marblesSampled": 100,
            "probRed": 0.5,
            "lambda": 5,
            "drawnRed": 26,
            "reportedRed": 28,
            "inferredRed": 24,
            "playerTrialScore": -2,
            "oppTrialScore": 0,
            "playerTotalScore": -33,
            "oppTotalScore": -31,
            "waitTime": 6060.179587472933,
            "responseTime": 1678834763912,
            "catchQuestion": "How many <b class=\"r\">red<\/b> marbles did your opponent report drawing? ",
            "catchKey": -1,
            "catchResponse": -1,
            "catchTime": 1678834551801,
            "trialTime": 0
        },
        {
            "exptPart": "trial",
            "trialNumber": 20,
            "roleCurrent": "sender",
            "marblesSampled": 100,
            "probRed": 0.5,
            "lambda": 5,
            "drawnRed": 80,
            "reportedRed": 80,
            "inferredRed": 79,
            "playerTrialScore": 0,
            "oppTrialScore": -1,
            "playerTotalScore": -33,
            "oppTotalScore": -32,
            "waitTime": 2970.22291334733,
            "responseTime": 1678834967875,
            "catchQuestion": "How many <b class=\"r\">red<\/b> marbles did you actually draw (before any changes)? ",
            "catchKey": 80,
            "catchResponse": 80,
            "catchTime": 1678834967876,
            "trialTime": 0
        },
        {
            "exptPart": "trial",
            "trialNumber": 21,
            "roleCurrent": "receiver",
            "marblesSampled": 100,
            "probRed": 0.5,
            "lambda": 5,
            "drawnRed": 54,
            "reportedRed": 61,
            "inferredRed": 58,
            "playerTrialScore": -4,
            "oppTrialScore": 4,
            "playerTotalScore": -37,
            "oppTotalScore": -28,
            "waitTime": 5512.632081933903,
            "responseTime": 1678834989826,
            "catchQuestion": "How many <b class=\"r\">red<\/b> marbles did you actually draw (before any changes)? ",
            "catchKey": -1,
            "catchResponse": -1,
            "catchTime": 1678834967876,
            "trialTime": 0
        },
        {
            "exptPart": "trial",
            "trialNumber": 22,
            "roleCurrent": "sender",
            "marblesSampled": 100,
            "probRed": 0.5,
            "lambda": 5,
            "drawnRed": 19,
            "reportedRed": 21,
            "inferredRed": 18,
            "playerTrialScore": 0,
            "oppTrialScore": -1,
            "playerTotalScore": -37,
            "oppTotalScore": -29,
            "waitTime": 3097.3496681919064,
            "responseTime": 1678835010149,
            "catchQuestion": "How many <b class=\"r\">red<\/b> marbles did you actually draw (before any changes)? ",
            "catchKey": -1,
            "catchResponse": -1,
            "catchTime": 1678834967876,
            "trialTime": 0
        },
        {
            "exptPart": "trial",
            "trialNumber": 23,
            "roleCurrent": "receiver",
            "marblesSampled": 100,
            "probRed": 0.5,
            "lambda": 5,
            "drawnRed": 74,
            "reportedRed": 80,
            "inferredRed": 78,
            "playerTrialScore": -4,
            "oppTrialScore": 4,
            "playerTotalScore": -41,
            "oppTotalScore": -25,
            "waitTime": 5566.670781360823,
            "responseTime": 1678835022125,
            "catchQuestion": "How many <b class=\"r\">red<\/b> marbles did you actually draw (before any changes)? ",
            "catchKey": -1,
            "catchResponse": -1,
            "catchTime": 1678834967876,
            "trialTime": 0
        },
        {
            "exptPart": "trial",
            "trialNumber": 24,
            "roleCurrent": "sender",
            "marblesSampled": 100,
            "probRed": 0.5,
            "lambda": 5,
            "drawnRed": 29,
            "reportedRed": 27,
            "inferredRed": 29,
            "playerTrialScore": 0,
            "oppTrialScore": 0,
            "playerTotalScore": -41,
            "oppTotalScore": -25,
            "waitTime": 3037.3133341243597,
            "responseTime": 1678835181821,
            "catchQuestion": "How many <b class=\"r\">red<\/b> marbles did you actually draw (before any changes)? ",
            "catchKey": -1,
            "catchResponse": -1,
            "catchTime": 1678834967876,
            "trialTime": 0
        },
        {
            "exptPart": "trial",
            "trialNumber": 25,
            "roleCurrent": "receiver",
            "marblesSampled": 100,
            "probRed": 0.5,
            "lambda": 5,
            "drawnRed": 12,
            "reportedRed": 20,
            "inferredRed": 16,
            "playerTrialScore": -4,
            "oppTrialScore": 4,
            "playerTotalScore": -45,
            "oppTotalScore": -21,
            "waitTime": 7455.974119695765,
            "responseTime": 1678835213725,
            "catchQuestion": "How many <b class=\"r\">red<\/b> marbles did you actually draw (before any changes)? ",
            "catchKey": -1,
            "catchResponse": -1,
            "catchTime": 1678835213725,
            "trialTime": 0
        },
        {
            "exptPart": "trial",
            "trialNumber": 26,
            "roleCurrent": "sender",
            "marblesSampled": 100,
            "probRed": 0.5,
            "lambda": 5,
            "drawnRed": 35,
            "reportedRed": 35,
            "inferredRed": 28,
            "playerTrialScore": 0,
            "oppTrialScore": -7,
            "playerTotalScore": -45,
            "oppTotalScore": -28,
            "waitTime": 2853.048154331249,
            "responseTime": 1678835223159,
            "catchQuestion": "How many <b class=\"r\">red<\/b> marbles did you actually draw (before any changes)? ",
            "catchKey": -1,
            "catchResponse": -1,
            "catchTime": 1678835213725,
            "trialTime": 0
        },
        {
            "exptPart": "trial",
            "trialNumber": 27,
            "roleCurrent": "receiver",
            "marblesSampled": 100,
            "probRed": 0.5,
            "lambda": 5,
            "drawnRed": 72,
            "reportedRed": 82,
            "inferredRed": 88,
            "playerTrialScore": -16,
            "oppTrialScore": 16,
            "playerTotalScore": -61,
            "oppTotalScore": -12,
            "waitTime": 5263.451670480499,
            "responseTime": 1678835250211,
            "catchQuestion": "How many <b class=\"r\">red<\/b> marbles did you actually draw (before any changes)? ",
            "catchKey": -1,
            "catchResponse": -1,
            "catchTime": 1678835213725,
            "trialTime": 0
        },
        {
            "exptPart": "trial",
            "trialNumber": 28,
            "roleCurrent": "sender",
            "marblesSampled": 100,
            "probRed": 0.5,
            "lambda": 5,
            "drawnRed": 82,
            "reportedRed": 82,
            "inferredRed": 78,
            "playerTrialScore": 0,
            "oppTrialScore": -4,
            "playerTotalScore": -61,
            "oppTotalScore": -16,
            "waitTime": 2532.3220097540316,
            "responseTime": 1678835258065,
            "catchQuestion": "How many <b class=\"r\">red<\/b> marbles did you actually draw (before any changes)? ",
            "catchKey": -1,
            "catchResponse": -1,
            "catchTime": 1678835213725,
            "trialTime": 0
        },
        {
            "exptPart": "trial",
            "trialNumber": 29,
            "roleCurrent": "receiver",
            "marblesSampled": 100,
            "probRed": 0.5,
            "lambda": 5,
            "drawnRed": 55,
            "reportedRed": 64,
            "inferredRed": 60,
            "playerTrialScore": -5,
            "oppTrialScore": 5,
            "playerTotalScore": -66,
            "oppTotalScore": -11,
            "waitTime": 5976.693075134153,
            "responseTime": 1678835281617,
            "catchQuestion": "How many <b class=\"r\">red<\/b> marbles did you actually draw (before any changes)? ",
            "catchKey": -1,
            "catchResponse": -1,
            "catchTime": 1678835213725,
            "trialTime": 0
        },
        {
            "exptPart": "trial",
            "trialNumber": 30,
            "roleCurrent": "sender",
            "marblesSampled": 100,
            "probRed": 0.5,
            "lambda": 5,
            "drawnRed": 51,
            "reportedRed": 48,
            "inferredRed": 42,
            "playerTrialScore": 0,
            "oppTrialScore": -9,
            "playerTotalScore": -66,
            "oppTotalScore": -20,
            "waitTime": 2457.7960406986294,
            "responseTime": 1678835377175,
            "catchQuestion": "How many <b class=\"r\">red<\/b> marbles did you actually draw (before any changes)? ",
            "catchKey": -1,
            "catchResponse": -1,
            "catchTime": 1678835377175,
            "trialTime": 0
        },
        {
            "exptPart": "trial",
            "trialNumber": 31,
            "roleCurrent": "receiver",
            "marblesSampled": 100,
            "probRed": 0.5,
            "lambda": 5,
            "drawnRed": 14,
            "reportedRed": 17,
            "inferredRed": 19,
            "playerTrialScore": -5,
            "oppTrialScore": 5,
            "playerTotalScore": -71,
            "oppTotalScore": -15,
            "waitTime": 5872.421940597948,
            "responseTime": 1678835393230,
            "catchQuestion": "How many <b class=\"r\">red<\/b> marbles did you actually draw (before any changes)? ",
            "catchKey": -1,
            "catchResponse": -1,
            "catchTime": 1678835377175,
            "trialTime": 0
        },
        {
            "exptPart": "trial",
            "trialNumber": 32,
            "roleCurrent": "sender",
            "marblesSampled": 100,
            "probRed": 0.5,
            "lambda": 5,
            "drawnRed": 30,
            "reportedRed": 26,
            "inferredRed": 20,
            "playerTrialScore": 0,
            "oppTrialScore": -10,
            "playerTotalScore": -71,
            "oppTotalScore": -25,
            "waitTime": 2556.5424429614714,
            "responseTime": 1678835417380,
            "catchQuestion": "How many <b class=\"r\">red<\/b> marbles did you actually draw (before any changes)? ",
            "catchKey": -1,
            "catchResponse": -1,
            "catchTime": 1678835377175,
            "trialTime": 0
        },
        {
            "exptPart": "trial",
            "trialNumber": 33,
            "roleCurrent": "receiver",
            "marblesSampled": 100,
            "probRed": 0.5,
            "lambda": 5,
            "drawnRed": 75,
            "reportedRed": 78,
            "inferredRed": 77,
            "playerTrialScore": -2,
            "oppTrialScore": 2,
            "playerTotalScore": -73,
            "oppTotalScore": -23,
            "waitTime": 5723.293367408524,
            "responseTime": 1678835426379,
            "catchQuestion": "How many <b class=\"r\">red<\/b> marbles did you actually draw (before any changes)? ",
            "catchKey": -1,
            "catchResponse": -1,
            "catchTime": 1678835377175,
            "trialTime": 0
        },
        {
            "exptPart": "trial",
            "trialNumber": 34,
            "roleCurrent": "sender",
            "marblesSampled": 100,
            "probRed": 0.5,
            "lambda": 5,
            "drawnRed": 79,
            "reportedRed": 75,
            "inferredRed": 73,
            "playerTrialScore": 0,
            "oppTrialScore": -6,
            "playerTotalScore": -73,
            "oppTotalScore": -29,
            "waitTime": 2133.0722692145173,
            "responseTime": 1678835439896,
            "catchQuestion": "How many <b class=\"r\">red<\/b> marbles did you actually draw (before any changes)? ",
            "catchKey": -1,
            "catchResponse": -1,
            "catchTime": 1678835377175,
            "trialTime": 0
        },
        {
            "exptPart": "trial",
            "trialNumber": 35,
            "roleCurrent": "receiver",
            "marblesSampled": 100,
            "probRed": 0.5,
            "lambda": 5,
            "drawnRed": 69,
            "reportedRed": 71,
            "inferredRed": 68,
            "playerTrialScore": -1,
            "oppTrialScore": 0,
            "playerTotalScore": -74,
            "oppTotalScore": -29,
            "waitTime": 5386.270400544858,
            "responseTime": 1678835461431,
            "catchQuestion": "How many <b class=\"r\">red<\/b> marbles did you actually draw (before any changes)? ",
            "catchKey": -1,
            "catchResponse": -1,
            "catchTime": 1678835461431,
            "trialTime": 0
        },
        {
            "exptPart": "trial",
            "trialNumber": 36,
            "roleCurrent": "sender",
            "marblesSampled": 100,
            "probRed": 0.5,
            "lambda": 5,
            "drawnRed": 42,
            "reportedRed": 42,
            "inferredRed": 36,
            "playerTrialScore": 0,
            "oppTrialScore": -6,
            "playerTotalScore": -74,
            "oppTotalScore": -35,
            "waitTime": 2107.5594911072662,
            "responseTime": 1678835482634,
            "catchQuestion": "How many <b class=\"r\">red<\/b> marbles did you actually draw (before any changes)? ",
            "catchKey": -1,
            "catchResponse": -1,
            "catchTime": 1678835461431,
            "trialTime": 0
        },
        {
            "exptPart": "trial",
            "trialNumber": 37,
            "roleCurrent": "receiver",
            "marblesSampled": 100,
            "probRed": 0.5,
            "lambda": 5,
            "drawnRed": 58,
            "reportedRed": 63,
            "inferredRed": 68,
            "playerTrialScore": -10,
            "oppTrialScore": 10,
            "playerTotalScore": -84,
            "oppTotalScore": -25,
            "waitTime": 6735.636089073454,
            "responseTime": 1678835493434,
            "catchQuestion": "How many <b class=\"r\">red<\/b> marbles did you actually draw (before any changes)? ",
            "catchKey": -1,
            "catchResponse": -1,
            "catchTime": 1678835461431,
            "trialTime": 0
        },
        {
            "exptPart": "trial",
            "trialNumber": 38,
            "roleCurrent": "sender",
            "marblesSampled": 100,
            "probRed": 0.5,
            "lambda": 5,
            "drawnRed": 32,
            "reportedRed": 28,
            "inferredRed": 24,
            "playerTrialScore": 0,
            "oppTrialScore": -8,
            "playerTotalScore": -84,
            "oppTotalScore": -33,
            "waitTime": 2166.0852499075772,
            "responseTime": 1678835514842,
            "catchQuestion": "How many <b class=\"r\">red<\/b> marbles did you actually draw (before any changes)? ",
            "catchKey": -1,
            "catchResponse": -1,
            "catchTime": 1678835461431,
            "trialTime": 0
        },
        {
            "exptPart": "trial",
            "trialNumber": 39,
            "roleCurrent": "receiver",
            "marblesSampled": 100,
            "probRed": 0.5,
            "lambda": 5,
            "drawnRed": 57,
            "reportedRed": 63,
            "inferredRed": 58,
            "playerTrialScore": -1,
            "oppTrialScore": 1,
            "playerTotalScore": -85,
            "oppTotalScore": -32,
            "waitTime": 5342.344855250101,
            "responseTime": 1678835543901,
            "catchQuestion": "How many <b class=\"r\">red<\/b> marbles did you actually draw (before any changes)? ",
            "catchKey": -1,
            "catchResponse": -1,
            "catchTime": 1678835461431,
            "trialTime": 0
        },
        {
            "exptPart": "trial",
            "trialNumber": 40,
            "roleCurrent": "sender",
            "marblesSampled": 100,
            "probRed": 0.5,
            "lambda": 5,
            "drawnRed": 32,
            "reportedRed": 30,
            "inferredRed": 27,
            "playerTrialScore": 0,
            "oppTrialScore": -5,
            "playerTotalScore": -85,
            "oppTotalScore": -37,
            "waitTime": 2676.8709775746765,
            "responseTime": 1678835576683,
            "catchQuestion": "How many <b class=\"r\">red<\/b> marbles did you actually draw (before any changes)? ",
            "catchKey": -1,
            "catchResponse": -1,
            "catchTime": 1678835576683,
            "trialTime": 0
        },
        {
            "exptPart": "trial",
            "trialNumber": 41,
            "roleCurrent": "receiver",
            "marblesSampled": 100,
            "probRed": 0.5,
            "lambda": 5,
            "drawnRed": 49,
            "reportedRed": 51,
            "inferredRed": 48,
            "playerTrialScore": -1,
            "oppTrialScore": 0,
            "playerTotalScore": -86,
            "oppTotalScore": -37,
            "waitTime": 6606.430901742473,
            "responseTime": 1678835596485,
            "catchQuestion": "How many <b class=\"r\">red<\/b> marbles did your opponent report drawing? ",
            "catchKey": 51,
            "catchResponse": 50,
            "catchTime": 1678835596485,
            "trialTime": 0
        },
        {
            "exptPart": "trial",
            "trialNumber": 42,
            "roleCurrent": "sender",
            "marblesSampled": 100,
            "probRed": 0.5,
            "lambda": 5,
            "drawnRed": 49,
            "reportedRed": 45,
            "inferredRed": 40,
            "playerTrialScore": 0,
            "oppTrialScore": -9,
            "playerTotalScore": -86,
            "oppTotalScore": -46,
            "waitTime": 2872.71282051442,
            "responseTime": 1678835617757,
            "catchQuestion": "How many <b class=\"r\">red<\/b> marbles did your opponent report drawing? ",
            "catchKey": -1,
            "catchResponse": -1,
            "catchTime": 1678835596485,
            "trialTime": 0
        },
        {
            "exptPart": "trial",
            "trialNumber": 43,
            "roleCurrent": "receiver",
            "marblesSampled": 100,
            "probRed": 0.5,
            "lambda": 5,
            "drawnRed": 41,
            "reportedRed": 44,
            "inferredRed": 35,
            "playerTrialScore": -6,
            "oppTrialScore": 0,
            "playerTotalScore": -92,
            "oppTotalScore": -46,
            "waitTime": 6868.588530854417,
            "responseTime": 1678835627220,
            "catchQuestion": "How many <b class=\"r\">red<\/b> marbles did your opponent report drawing? ",
            "catchKey": -1,
            "catchResponse": -1,
            "catchTime": 1678835596485,
            "trialTime": 0
        },
        {
            "exptPart": "trial",
            "trialNumber": 44,
            "roleCurrent": "sender",
            "marblesSampled": 100,
            "probRed": 0.5,
            "lambda": 5,
            "drawnRed": 26,
            "reportedRed": 26,
            "inferredRed": 23,
            "playerTrialScore": 0,
            "oppTrialScore": -3,
            "playerTotalScore": -92,
            "oppTotalScore": -49,
            "waitTime": 2514.027459064754,
            "responseTime": 1678835635057,
            "catchQuestion": "How many <b class=\"r\">red<\/b> marbles did your opponent report drawing? ",
            "catchKey": -1,
            "catchResponse": -1,
            "catchTime": 1678835596485,
            "trialTime": 0
        },
        {
            "exptPart": "trial",
            "trialNumber": 45,
            "roleCurrent": "receiver",
            "marblesSampled": 100,
            "probRed": 0.5,
            "lambda": 5,
            "drawnRed": 35,
            "reportedRed": 39,
            "inferredRed": 40,
            "playerTrialScore": -5,
            "oppTrialScore": 5,
            "playerTotalScore": -97,
            "oppTotalScore": -44,
            "waitTime": 7137.046499445658,
            "responseTime": 1678835651669,
            "catchQuestion": "How many <b class=\"r\">red<\/b> marbles did your opponent report drawing? ",
            "catchKey": -1,
            "catchResponse": -1,
            "catchTime": 1678835651669,
            "trialTime": 0
        },
        {
            "exptPart": "trial",
            "trialNumber": 46,
            "roleCurrent": "sender",
            "marblesSampled": 100,
            "probRed": 0.5,
            "lambda": 5,
            "drawnRed": 38,
            "reportedRed": 42,
            "inferredRed": 38,
            "playerTrialScore": 0,
            "oppTrialScore": 0,
            "playerTotalScore": -97,
            "oppTotalScore": -44,
            "waitTime": 2143.6567078497137,
            "responseTime": 1678835933352,
            "catchQuestion": "How many <b class=\"r\">red<\/b> marbles did your opponent report drawing? ",
            "catchKey": -1,
            "catchResponse": -1,
            "catchTime": 1678835651669,
            "trialTime": 0
        },
        {
            "exptPart": "trial",
            "trialNumber": 47,
            "roleCurrent": "receiver",
            "marblesSampled": 100,
            "probRed": 0.5,
            "lambda": 5,
            "drawnRed": 39,
            "reportedRed": 42,
            "inferredRed": 40,
            "playerTrialScore": -1,
            "oppTrialScore": 1,
            "playerTotalScore": -98,
            "oppTotalScore": -43,
            "waitTime": 6326.406197557115,
            "responseTime": 1678835954637,
            "catchQuestion": "How many <b class=\"r\">red<\/b> marbles did your opponent report drawing? ",
            "catchKey": 42,
            "catchResponse": 47,
            "catchTime": 1678835954637,
            "trialTime": 0
        },
        {
            "exptPart": "trial",
            "trialNumber": 48,
            "roleCurrent": "sender",
            "marblesSampled": 100,
            "probRed": 0.5,
            "lambda": 5,
            "drawnRed": 53,
            "reportedRed": 52,
            "inferredRed": 45,
            "playerTrialScore": 0,
            "oppTrialScore": -8,
            "playerTotalScore": -98,
            "oppTotalScore": -51,
            "waitTime": 2280.3295667532407,
            "responseTime": 1678835980169,
            "catchQuestion": "How many <b class=\"r\">red<\/b> marbles did your opponent report drawing? ",
            "catchKey": -1,
            "catchResponse": -1,
            "catchTime": 1678835954637,
            "trialTime": 0
        },
        {
            "exptPart": "trial",
            "trialNumber": 49,
            "roleCurrent": "receiver",
            "marblesSampled": 100,
            "probRed": 0.5,
            "lambda": 5,
            "drawnRed": 51,
            "reportedRed": 52,
            "inferredRed": 48,
            "playerTrialScore": -3,
            "oppTrialScore": 0,
            "playerTotalScore": -101,
            "oppTotalScore": -51,
            "waitTime": 5126.419338545005,
            "responseTime": 1678835988690,
            "catchQuestion": "How many <b class=\"r\">red<\/b> marbles did your opponent report drawing? ",
            "catchKey": -1,
            "catchResponse": -1,
            "catchTime": 1678835954637,
            "trialTime": 0
        },
        {
            "exptPart": "trial",
            "trialNumber": 50,
            "roleCurrent": "sender",
            "marblesSampled": 100,
            "probRed": 0.5,
            "lambda": 5,
            "drawnRed": 53,
            "reportedRed": 50,
            "inferredRed": 45,
            "playerTrialScore": 0,
            "oppTrialScore": -8,
            "playerTotalScore": -101,
            "oppTotalScore": -59,
            "waitTime": 2662.6123393580015,
            "responseTime": 1678836003703,
            "catchQuestion": "How many <b class=\"r\">red<\/b> marbles did you actually draw (before any changes)? ",
            "catchKey": 53,
            "catchResponse": 57,
            "catchTime": 1678836003704,
            "trialTime": 0
        },
        {
            "exptPart": "trial",
            "trialNumber": 51,
            "roleCurrent": "receiver",
            "marblesSampled": 100,
            "probRed": 0.5,
            "lambda": 5,
            "drawnRed": 48,
            "reportedRed": 57,
            "inferredRed": 50,
            "playerTrialScore": -2,
            "oppTrialScore": 2,
            "playerTotalScore": -103,
            "oppTotalScore": -57,
            "waitTime": 5628.422213144309,
            "responseTime": 1678836169731,
            "catchQuestion": "How many <b class=\"r\">red<\/b> marbles did you actually draw (before any changes)? ",
            "catchKey": -1,
            "catchResponse": -1,
            "catchTime": 1678836003704,
            "trialTime": 0
        },
        {
            "exptPart": "trial",
            "trialNumber": 52,
            "roleCurrent": "sender",
            "marblesSampled": 100,
            "probRed": 0.5,
            "lambda": 5,
            "drawnRed": 38,
            "reportedRed": 42,
            "inferredRed": 36,
            "playerTrialScore": 0,
            "oppTrialScore": -2,
            "playerTotalScore": -103,
            "oppTotalScore": -59,
            "waitTime": 2340.4642295082895,
            "responseTime": 1678836197849,
            "catchQuestion": "How many <b class=\"r\">red<\/b> marbles did you actually draw (before any changes)? ",
            "catchKey": -1,
            "catchResponse": -1,
            "catchTime": 1678836003704,
            "trialTime": 0
        },
        {
            "exptPart": "trial",
            "trialNumber": 53,
            "roleCurrent": "receiver",
            "marblesSampled": 100,
            "probRed": 0.5,
            "lambda": 5,
            "drawnRed": 46,
            "reportedRed": 54,
            "inferredRed": 58,
            "playerTrialScore": -12,
            "oppTrialScore": 12,
            "playerTotalScore": -115,
            "oppTotalScore": -47,
            "waitTime": 5287.185445050696,
            "responseTime": 1678836698797,
            "catchQuestion": "How many <b class=\"r\">red<\/b> marbles did you actually draw (before any changes)? ",
            "catchKey": -1,
            "catchResponse": -1,
            "catchTime": 1678836003704,
            "trialTime": 0
        },
        {
            "exptPart": "trial",
            "trialNumber": 54,
            "roleCurrent": "sender",
            "marblesSampled": 100,
            "probRed": 0.5,
            "lambda": 5,
            "drawnRed": 32,
            "reportedRed": 32,
            "inferredRed": 26,
            "playerTrialScore": 0,
            "oppTrialScore": -6,
            "playerTotalScore": -115,
            "oppTotalScore": -53,
            "waitTime": 2493.6905589675193,
            "responseTime": 1678836770756,
            "catchQuestion": "How many <b class=\"r\">red<\/b> marbles did you actually draw (before any changes)? ",
            "catchKey": -1,
            "catchResponse": -1,
            "catchTime": 1678836003704,
            "trialTime": 0
        },
        {
            "exptPart": "trial",
            "trialNumber": 55,
            "roleCurrent": "receiver",
            "marblesSampled": 100,
            "probRed": 0.5,
            "lambda": 5,
            "drawnRed": 34,
            "reportedRed": 38,
            "inferredRed": 34,
            "playerTrialScore": 0,
            "oppTrialScore": 0,
            "playerTotalScore": -115,
            "oppTotalScore": -53,
            "waitTime": 6214.584053093847,
            "responseTime": 1678836796527,
            "catchQuestion": "How many <b class=\"r\">red<\/b> marbles did you actually draw (before any changes)? ",
            "catchKey": -1,
            "catchResponse": -1,
            "catchTime": 1678836796527,
            "trialTime": 0
        },
        {
            "exptPart": "trial",
            "trialNumber": 56,
            "roleCurrent": "sender",
            "marblesSampled": 100,
            "probRed": 0.5,
            "lambda": 5,
            "drawnRed": 30,
            "reportedRed": 28,
            "inferredRed": 24,
            "playerTrialScore": 0,
            "oppTrialScore": -6,
            "playerTotalScore": -115,
            "oppTotalScore": -59,
            "waitTime": 2810.325791566861,
            "responseTime": 1678836809063,
            "catchQuestion": "How many <b class=\"r\">red<\/b> marbles did you actually draw (before any changes)? ",
            "catchKey": -1,
            "catchResponse": -1,
            "catchTime": 1678836796527,
            "trialTime": 0
        },
        {
            "exptPart": "trial",
            "trialNumber": 57,
            "roleCurrent": "receiver",
            "marblesSampled": 100,
            "probRed": 0.5,
            "lambda": 5,
            "drawnRed": 56,
            "reportedRed": 59,
            "inferredRed": 56,
            "playerTrialScore": 0,
            "oppTrialScore": 0,
            "playerTotalScore": -115,
            "oppTotalScore": -59,
            "waitTime": 5847.118470793552,
            "responseTime": 1678836826946,
            "catchQuestion": "How many <b class=\"r\">red<\/b> marbles did you actually draw (before any changes)? ",
            "catchKey": -1,
            "catchResponse": -1,
            "catchTime": 1678836796527,
            "trialTime": 0
        },
        {
            "exptPart": "trial",
            "trialNumber": 58,
            "roleCurrent": "sender",
            "marblesSampled": 100,
            "probRed": 0.5,
            "lambda": 5,
            "drawnRed": 37,
            "reportedRed": 34,
            "inferredRed": 24,
            "playerTrialScore": 0,
            "oppTrialScore": -13,
            "playerTotalScore": -115,
            "oppTotalScore": -72,
            "waitTime": 3111.9675420775575,
            "responseTime": 1678836845731,
            "catchQuestion": "How many <b class=\"r\">red<\/b> marbles did you actually draw (before any changes)? ",
            "catchKey": -1,
            "catchResponse": -1,
            "catchTime": 1678836796527,
            "trialTime": 0
        },
        {
            "exptPart": "trial",
            "trialNumber": 59,
            "roleCurrent": "receiver",
            "marblesSampled": 100,
            "probRed": 0.5,
            "lambda": 5,
            "drawnRed": 64,
            "reportedRed": 65,
            "inferredRed": 59,
            "playerTrialScore": -5,
            "oppTrialScore": 0,
            "playerTotalScore": -120,
            "oppTotalScore": -72,
            "waitTime": 5436.498865219795,
            "responseTime": 1678836880394,
            "catchQuestion": "How many <b class=\"r\">red<\/b> marbles did you actually draw (before any changes)? ",
            "catchKey": -1,
            "catchResponse": -1,
            "catchTime": 1678836796527,
            "trialTime": 0
        },
        {
            "exptPart": "trial",
            "trialNumber": 60,
            "roleCurrent": "sender",
            "marblesSampled": 100,
            "probRed": 0.5,
            "lambda": 5,
            "drawnRed": 41,
            "reportedRed": 39,
            "inferredRed": 36,
            "playerTrialScore": 0,
            "oppTrialScore": -5,
            "playerTotalScore": -120,
            "oppTotalScore": -77,
            "waitTime": 2279.702834815224,
            "responseTime": 1678836899486,
            "catchQuestion": "How many <b class=\"r\">red<\/b> marbles did you actually draw (before any changes)? ",
            "catchKey": -1,
            "catchResponse": -1,
            "catchTime": 1678836899487,
            "trialTime": 0
        },
        {
            "exptPart": "trial",
            "trialNumber": 61,
            "roleCurrent": "receiver",
            "marblesSampled": 100,
            "probRed": 0.5,
            "lambda": 5,
            "drawnRed": 45,
            "reportedRed": 50,
            "inferredRed": 47,
            "playerTrialScore": -2,
            "oppTrialScore": 2,
            "playerTotalScore": -122,
            "oppTotalScore": -75,
            "waitTime": 7346.478010220185,
            "responseTime": 1678836914847,
            "catchQuestion": "How many <b class=\"r\">red<\/b> marbles did you actually draw (before any changes)? ",
            "catchKey": -1,
            "catchResponse": -1,
            "catchTime": 1678836899487,
            "trialTime": 0
        },
        {
            "exptPart": "trial",
            "trialNumber": 62,
            "roleCurrent": "sender",
            "marblesSampled": 100,
            "probRed": 0.5,
            "lambda": 5,
            "drawnRed": 44,
            "reportedRed": 40,
            "inferredRed": 38,
            "playerTrialScore": 0,
            "oppTrialScore": -6,
            "playerTotalScore": -122,
            "oppTotalScore": -81,
            "waitTime": 3176.2608651216397,
            "responseTime": 1678836935581,
            "catchQuestion": "How many <b class=\"r\">red<\/b> marbles did you actually draw (before any changes)? ",
            "catchKey": -1,
            "catchResponse": -1,
            "catchTime": 1678836899487,
            "trialTime": 0
        },
        {
            "exptPart": "trial",
            "trialNumber": 63,
            "roleCurrent": "receiver",
            "marblesSampled": 100,
            "probRed": 0.5,
            "lambda": 5,
            "drawnRed": 60,
            "reportedRed": 65,
            "inferredRed": 61,
            "playerTrialScore": -1,
            "oppTrialScore": 1,
            "playerTotalScore": -123,
            "oppTotalScore": -80,
            "waitTime": 5337.437915152519,
            "responseTime": 1678836958165,
            "catchQuestion": "How many <b class=\"r\">red<\/b> marbles did you actually draw (before any changes)? ",
            "catchKey": -1,
            "catchResponse": -1,
            "catchTime": 1678836899487,
            "trialTime": 0
        },
        {
            "exptPart": "trial",
            "trialNumber": 64,
            "roleCurrent": "sender",
            "marblesSampled": 100,
            "probRed": 0.5,
            "lambda": 5,
            "drawnRed": 52,
            "reportedRed": 55,
            "inferredRed": 50,
            "playerTrialScore": 0,
            "oppTrialScore": -2,
            "playerTotalScore": -123,
            "oppTotalScore": -82,
            "waitTime": 2910.2705639873993,
            "responseTime": 1678837026827,
            "catchQuestion": "How many <b class=\"r\">red<\/b> marbles did you actually draw (before any changes)? ",
            "catchKey": -1,
            "catchResponse": -1,
            "catchTime": 1678836899487,
            "trialTime": 0
        },
        {
            "exptPart": "trial",
            "trialNumber": 65,
            "roleCurrent": "receiver",
            "marblesSampled": 100,
            "probRed": 0.5,
            "lambda": 5,
            "drawnRed": 73,
            "reportedRed": 79,
            "inferredRed": 75,
            "playerTrialScore": -2,
            "oppTrialScore": 2,
            "playerTotalScore": -125,
            "oppTotalScore": -80,
            "waitTime": 6572.616269406888,
            "responseTime": 1678837039365,
            "catchQuestion": "How many <b class=\"r\">red<\/b> marbles did you actually draw (before any changes)? ",
            "catchKey": -1,
            "catchResponse": -1,
            "catchTime": 1678837039365,
            "trialTime": 0
        },
        {
            "exptPart": "trial",
            "trialNumber": 66,
            "roleCurrent": "sender",
            "marblesSampled": 100,
            "probRed": 0.5,
            "lambda": 5,
            "drawnRed": 44,
            "reportedRed": 39,
            "inferredRed": 34,
            "playerTrialScore": 0,
            "oppTrialScore": -10,
            "playerTotalScore": -125,
            "oppTotalScore": -90,
            "waitTime": 2099.105200210016,
            "responseTime": 1678837112680,
            "catchQuestion": "How many <b class=\"r\">red<\/b> marbles did you actually draw (before any changes)? ",
            "catchKey": -1,
            "catchResponse": -1,
            "catchTime": 1678837039365,
            "trialTime": 0
        },
        {
            "exptPart": "trial",
            "trialNumber": 67,
            "roleCurrent": "receiver",
            "marblesSampled": 100,
            "probRed": 0.5,
            "lambda": 5,
            "drawnRed": 57,
            "reportedRed": 59,
            "inferredRed": 56,
            "playerTrialScore": -1,
            "oppTrialScore": 0,
            "playerTotalScore": -126,
            "oppTotalScore": -90,
            "waitTime": 7135.926346077711,
            "responseTime": 1678837124558,
            "catchQuestion": "How many <b class=\"r\">red<\/b> marbles did you actually draw (before any changes)? ",
            "catchKey": -1,
            "catchResponse": -1,
            "catchTime": 1678837039365,
            "trialTime": 0
        },
        {
            "exptPart": "trial",
            "trialNumber": 68,
            "roleCurrent": "sender",
            "marblesSampled": 100,
            "probRed": 0.5,
            "lambda": 5,
            "drawnRed": 57,
            "reportedRed": 53,
            "inferredRed": 46,
            "playerTrialScore": 0,
            "oppTrialScore": -11,
            "playerTotalScore": -126,
            "oppTotalScore": -101,
            "waitTime": 2457.0601644696776,
            "responseTime": 1678837137875,
            "catchQuestion": "How many <b class=\"r\">red<\/b> marbles did you actually draw (before any changes)? ",
            "catchKey": -1,
            "catchResponse": -1,
            "catchTime": 1678837039365,
            "trialTime": 0
        },
        {
            "exptPart": "trial",
            "trialNumber": 69,
            "roleCurrent": "receiver",
            "marblesSampled": 100,
            "probRed": 0.5,
            "lambda": 5,
            "drawnRed": 13,
            "reportedRed": 18,
            "inferredRed": 15,
            "playerTrialScore": -2,
            "oppTrialScore": 2,
            "playerTotalScore": -128,
            "oppTotalScore": -99,
            "waitTime": 6226.940628874397,
            "responseTime": 1678837155084,
            "catchQuestion": "How many <b class=\"r\">red<\/b> marbles did you actually draw (before any changes)? ",
            "catchKey": -1,
            "catchResponse": -1,
            "catchTime": 1678837039365,
            "trialTime": 0
        },
        {
            "exptPart": "trial",
            "trialNumber": 70,
            "roleCurrent": "sender",
            "marblesSampled": 100,
            "probRed": 0.5,
            "lambda": 5,
            "drawnRed": 27,
            "reportedRed": 31,
            "inferredRed": 27,
            "playerTrialScore": 0,
            "oppTrialScore": 0,
            "playerTotalScore": -128,
            "oppTotalScore": -99,
            "waitTime": 2545.388163639789,
            "responseTime": 1678837174287,
            "catchQuestion": "How many <b class=\"r\">red<\/b> marbles did you actually draw (before any changes)? ",
            "catchKey": -1,
            "catchResponse": -1,
            "catchTime": 1678837174288,
            "trialTime": 0
        },
        {
            "exptPart": "trial",
            "trialNumber": 71,
            "roleCurrent": "receiver",
            "marblesSampled": 100,
            "probRed": 0.5,
            "lambda": 5,
            "drawnRed": 40,
            "reportedRed": 43,
            "inferredRed": 40,
            "playerTrialScore": 0,
            "oppTrialScore": 0,
            "playerTotalScore": -128,
            "oppTotalScore": -99,
            "waitTime": 6200.900383842409,
            "responseTime": 1678837189595,
            "catchQuestion": "How many <b class=\"r\">red<\/b> marbles did your opponent report drawing? ",
            "catchKey": 43,
            "catchResponse": 40,
            "catchTime": 1678837189595,
            "trialTime": 0
        },
        {
            "exptPart": "trial",
            "trialNumber": 72,
            "roleCurrent": "sender",
            "marblesSampled": 100,
            "probRed": 0.5,
            "lambda": 5,
            "drawnRed": 41,
            "reportedRed": 46,
            "inferredRed": 40,
            "playerTrialScore": 0,
            "oppTrialScore": -1,
            "playerTotalScore": -128,
            "oppTotalScore": -100,
            "waitTime": 2417.7281790884927,
            "responseTime": 1678837215444,
            "catchQuestion": "How many <b class=\"r\">red<\/b> marbles did your opponent report drawing? ",
            "catchKey": -1,
            "catchResponse": -1,
            "catchTime": 1678837189595,
            "trialTime": 0
        },
        {
            "exptPart": "trial",
            "trialNumber": 73,
            "roleCurrent": "receiver",
            "marblesSampled": 100,
            "probRed": 0.5,
            "lambda": 5,
            "drawnRed": 40,
            "reportedRed": 47,
            "inferredRed": 43,
            "playerTrialScore": -3,
            "oppTrialScore": 3,
            "playerTotalScore": -131,
            "oppTotalScore": -97,
            "waitTime": 5723.310859934905,
            "responseTime": 1678837236903,
            "catchQuestion": "How many <b class=\"r\">red<\/b> marbles did your opponent report drawing? ",
            "catchKey": -1,
            "catchResponse": -1,
            "catchTime": 1678837189595,
            "trialTime": 0
        },
        {
            "exptPart": "trial",
            "trialNumber": 74,
            "roleCurrent": "sender",
            "marblesSampled": 100,
            "probRed": 0.5,
            "lambda": 5,
            "drawnRed": 27,
            "reportedRed": 29,
            "inferredRed": 23,
            "playerTrialScore": 0,
            "oppTrialScore": -4,
            "playerTotalScore": -131,
            "oppTotalScore": -101,
            "waitTime": 3196.2441139892976,
            "responseTime": 1678837251666,
            "catchQuestion": "How many <b class=\"r\">red<\/b> marbles did your opponent report drawing? ",
            "catchKey": -1,
            "catchResponse": -1,
            "catchTime": 1678837189595,
            "trialTime": 0
        },
        {
            "exptPart": "trial",
            "trialNumber": 75,
            "roleCurrent": "receiver",
            "marblesSampled": 100,
            "probRed": 0.5,
            "lambda": 5,
            "drawnRed": 41,
            "reportedRed": 43,
            "inferredRed": 39,
            "playerTrialScore": -2,
            "oppTrialScore": 0,
            "playerTotalScore": -133,
            "oppTotalScore": -101,
            "waitTime": 6792.938555662128,
            "responseTime": 1678837262563,
            "catchQuestion": "How many <b class=\"r\">red<\/b> marbles did your opponent report drawing? ",
            "catchKey": -1,
            "catchResponse": -1,
            "catchTime": 1678837262563,
            "trialTime": 0
        },
        {
            "exptPart": "trial",
            "trialNumber": 76,
            "roleCurrent": "sender",
            "marblesSampled": 100,
            "probRed": 0.5,
            "lambda": 5,
            "drawnRed": 57,
            "reportedRed": 57,
            "inferredRed": 56,
            "playerTrialScore": 0,
            "oppTrialScore": -1,
            "playerTotalScore": -133,
            "oppTotalScore": -102,
            "waitTime": 2314.1968160744254,
            "responseTime": 1678837271710,
            "catchQuestion": "How many <b class=\"r\">red<\/b> marbles did your opponent report drawing? ",
            "catchKey": -1,
            "catchResponse": -1,
            "catchTime": 1678837262563,
            "trialTime": 0
        },
        {
            "exptPart": "trial",
            "trialNumber": 77,
            "roleCurrent": "receiver",
            "marblesSampled": 100,
            "probRed": 0.5,
            "lambda": 5,
            "drawnRed": 34,
            "reportedRed": 40,
            "inferredRed": 38,
            "playerTrialScore": -4,
            "oppTrialScore": 4,
            "playerTotalScore": -137,
            "oppTotalScore": -98,
            "waitTime": 7100.470729447198,
            "responseTime": 1678837282104,
            "catchQuestion": "How many <b class=\"r\">red<\/b> marbles did your opponent report drawing? ",
            "catchKey": -1,
            "catchResponse": -1,
            "catchTime": 1678837262563,
            "trialTime": 0
        },
        {
            "exptPart": "trial",
            "trialNumber": 78,
            "roleCurrent": "sender",
            "marblesSampled": 100,
            "probRed": 0.5,
            "lambda": 5,
            "drawnRed": 41,
            "reportedRed": 46,
            "inferredRed": 43,
            "playerTrialScore": 2,
            "oppTrialScore": -2,
            "playerTotalScore": -135,
            "oppTotalScore": -100,
            "waitTime": 2714.4848763276977,
            "responseTime": 1678837296750,
            "catchQuestion": "How many <b class=\"r\">red<\/b> marbles did your opponent report drawing? ",
            "catchKey": -1,
            "catchResponse": -1,
            "catchTime": 1678837262563,
            "trialTime": 0
        },
        {
            "exptPart": "trial",
            "trialNumber": 79,
            "roleCurrent": "receiver",
            "marblesSampled": 100,
            "probRed": 0.5,
            "lambda": 5,
            "drawnRed": 34,
            "reportedRed": 41,
            "inferredRed": 38,
            "playerTrialScore": -4,
            "oppTrialScore": 4,
            "playerTotalScore": -139,
            "oppTotalScore": -96,
            "waitTime": 6433.218608093385,
            "responseTime": 1678837309408,
            "catchQuestion": "How many <b class=\"r\">red<\/b> marbles did your opponent report drawing? ",
            "catchKey": -1,
            "catchResponse": -1,
            "catchTime": 1678837262563,
            "trialTime": 0
        },
        {
            "exptPart": "trial",
            "trialNumber": 80,
            "roleCurrent": "sender",
            "marblesSampled": 100,
            "probRed": 0.5,
            "lambda": 5,
            "drawnRed": 43,
            "reportedRed": 44,
            "inferredRed": 39,
            "playerTrialScore": 0,
            "oppTrialScore": -4,
            "playerTotalScore": -139,
            "oppTotalScore": -100,
            "waitTime": 3053.068579802399,
            "responseTime": 1678837330570,
            "catchQuestion": "How many <b class=\"r\">red<\/b> marbles did your opponent report drawing? ",
            "catchKey": -1,
            "catchResponse": -1,
            "catchTime": 1678837330570,
            "trialTime": 0
        },
        {
            "exptPart": "trial",
            "trialNumber": 81,
            "roleCurrent": "receiver",
            "marblesSampled": 100,
            "probRed": 0.5,
            "lambda": 5,
            "drawnRed": 31,
            "reportedRed": 33,
            "inferredRed": 30,
            "playerTrialScore": -1,
            "oppTrialScore": 0,
            "playerTotalScore": -140,
            "oppTotalScore": -100,
            "waitTime": 5624.945929708178,
            "responseTime": 1678837345350,
            "catchQuestion": "How many <b class=\"r\">red<\/b> marbles did your opponent report drawing? ",
            "catchKey": -1,
            "catchResponse": -1,
            "catchTime": 1678837330570,
            "trialTime": 0
        },
        {
            "exptPart": "trial",
            "trialNumber": 82,
            "roleCurrent": "sender",
            "marblesSampled": 100,
            "probRed": 0.5,
            "lambda": 5,
            "drawnRed": 55,
            "reportedRed": 59,
            "inferredRed": 51,
            "playerTrialScore": 0,
            "oppTrialScore": -4,
            "playerTotalScore": -140,
            "oppTotalScore": -104,
            "waitTime": 3200.4843455371974,
            "responseTime": 1678837365105,
            "catchQuestion": "How many <b class=\"r\">red<\/b> marbles did your opponent report drawing? ",
            "catchKey": -1,
            "catchResponse": -1,
            "catchTime": 1678837330570,
            "trialTime": 0
        },
        {
            "exptPart": "trial",
            "trialNumber": 83,
            "roleCurrent": "receiver",
            "marblesSampled": 100,
            "probRed": 0.5,
            "lambda": 5,
            "drawnRed": 52,
            "reportedRed": 56,
            "inferredRed": 55,
            "playerTrialScore": -3,
            "oppTrialScore": 3,
            "playerTotalScore": -143,
            "oppTotalScore": -101,
            "waitTime": 5589.196917015803,
            "responseTime": 1678837376433,
            "catchQuestion": "How many <b class=\"r\">red<\/b> marbles did your opponent report drawing? ",
            "catchKey": 56,
            "catchResponse": 58,
            "catchTime": 1678837376434,
            "trialTime": 0
        },
        {
            "exptPart": "trial",
            "trialNumber": 84,
            "roleCurrent": "sender",
            "marblesSampled": 100,
            "probRed": 0.5,
            "lambda": 5,
            "drawnRed": 34,
            "reportedRed": 38,
            "inferredRed": 29,
            "playerTrialScore": 0,
            "oppTrialScore": -5,
            "playerTotalScore": -143,
            "oppTotalScore": -106,
            "waitTime": 2629.3420540569023,
            "responseTime": 1678837400295,
            "catchQuestion": "How many <b class=\"r\">red<\/b> marbles did your opponent report drawing? ",
            "catchKey": -1,
            "catchResponse": -1,
            "catchTime": 1678837376434,
            "trialTime": 0
        },
        {
            "exptPart": "trial",
            "trialNumber": 85,
            "roleCurrent": "receiver",
            "marblesSampled": 100,
            "probRed": 0.5,
            "lambda": 5,
            "drawnRed": 27,
            "reportedRed": 30,
            "inferredRed": 26,
            "playerTrialScore": -1,
            "oppTrialScore": 0,
            "playerTotalScore": -144,
            "oppTotalScore": -106,
            "waitTime": 6174.6772174016005,
            "responseTime": 1678837417586,
            "catchQuestion": "How many <b class=\"r\">red<\/b> marbles did your opponent report drawing? ",
            "catchKey": -1,
            "catchResponse": -1,
            "catchTime": 1678837417586,
            "trialTime": 0
        },
        {
            "exptPart": "trial",
            "trialNumber": 86,
            "roleCurrent": "sender",
            "marblesSampled": 100,
            "probRed": 0.5,
            "lambda": 5,
            "drawnRed": 33,
            "reportedRed": 37,
            "inferredRed": 31,
            "playerTrialScore": 0,
            "oppTrialScore": -2,
            "playerTotalScore": -144,
            "oppTotalScore": -108,
            "waitTime": 2191.5306672508705,
            "responseTime": 1678837484603,
            "catchQuestion": "How many <b class=\"r\">red<\/b> marbles did your opponent report drawing? ",
            "catchKey": -1,
            "catchResponse": -1,
            "catchTime": 1678837417586,
            "trialTime": 0
        },
        {
            "exptPart": "trial",
            "trialNumber": 87,
            "roleCurrent": "receiver",
            "marblesSampled": 100,
            "probRed": 0.5,
            "lambda": 5,
            "drawnRed": 55,
            "reportedRed": 59,
            "inferredRed": 56,
            "playerTrialScore": -1,
            "oppTrialScore": 1,
            "playerTotalScore": -145,
            "oppTotalScore": -107,
            "waitTime": 6478.839857348696,
            "responseTime": 1678837516380,
            "catchQuestion": "How many <b class=\"r\">red<\/b> marbles did your opponent report drawing? ",
            "catchKey": -1,
            "catchResponse": -1,
            "catchTime": 1678837417586,
            "trialTime": 0
        },
        {
            "exptPart": "trial",
            "trialNumber": 88,
            "roleCurrent": "sender",
            "marblesSampled": 100,
            "probRed": 0.5,
            "lambda": 5,
            "drawnRed": 73,
            "reportedRed": 77,
            "inferredRed": 75,
            "playerTrialScore": 2,
            "oppTrialScore": -2,
            "playerTotalScore": -143,
            "oppTotalScore": -109,
            "waitTime": 2502.0775747457074,
            "responseTime": 1678837529212,
            "catchQuestion": "How many <b class=\"r\">red<\/b> marbles did your opponent report drawing? ",
            "catchKey": -1,
            "catchResponse": -1,
            "catchTime": 1678837417586,
            "trialTime": 0
        },
        {
            "exptPart": "trial",
            "trialNumber": 89,
            "roleCurrent": "receiver",
            "marblesSampled": 100,
            "probRed": 0.5,
            "lambda": 5,
            "drawnRed": 76,
            "reportedRed": 78,
            "inferredRed": 74,
            "playerTrialScore": -2,
            "oppTrialScore": 0,
            "playerTotalScore": -145,
            "oppTotalScore": -109,
            "waitTime": 5194.124768548354,
            "responseTime": 1678837560019,
            "catchQuestion": "How many <b class=\"r\">red<\/b> marbles did your opponent report drawing? ",
            "catchKey": -1,
            "catchResponse": -1,
            "catchTime": 1678837417586,
            "trialTime": 0
        },
        {
            "exptPart": "trial",
            "trialNumber": 90,
            "roleCurrent": "sender",
            "marblesSampled": 100,
            "probRed": 0.5,
            "lambda": 5,
            "drawnRed": 63,
            "reportedRed": 65,
            "inferredRed": 54,
            "playerTrialScore": 0,
            "oppTrialScore": -9,
            "playerTotalScore": -145,
            "oppTotalScore": -118,
            "waitTime": 2400.3537800043814,
            "responseTime": 1678843688835,
            "catchQuestion": "How many <b class=\"r\">red<\/b> marbles did your opponent report drawing? ",
            "catchKey": -1,
            "catchResponse": -1,
            "catchTime": 1678843688835,
            "trialTime": 0
        },
        {
            "exptPart": "trial",
            "trialNumber": 91,
            "roleCurrent": "receiver",
            "marblesSampled": 100,
            "probRed": 0.5,
            "lambda": 5,
            "drawnRed": 63,
            "reportedRed": 65,
            "inferredRed": 61,
            "playerTrialScore": -2,
            "oppTrialScore": 0,
            "playerTotalScore": -147,
            "oppTotalScore": -118,
            "waitTime": 5390.346299385845,
            "responseTime": 1678843731197,
            "catchQuestion": "How many <b class=\"r\">red<\/b> marbles did your opponent report drawing? ",
            "catchKey": -1,
            "catchResponse": -1,
            "catchTime": 1678843688835,
            "trialTime": 0
        },
        {
            "exptPart": "trial",
            "trialNumber": 92,
            "roleCurrent": "sender",
            "marblesSampled": 100,
            "probRed": 0.5,
            "lambda": 5,
            "drawnRed": 48,
            "reportedRed": 46,
            "inferredRed": 43,
            "playerTrialScore": 0,
            "oppTrialScore": -5,
            "playerTotalScore": -147,
            "oppTotalScore": -123,
            "waitTime": 2732.213518966057,
            "responseTime": 1678843783723,
            "catchQuestion": "How many <b class=\"r\">red<\/b> marbles did your opponent report drawing? ",
            "catchKey": -1,
            "catchResponse": -1,
            "catchTime": 1678843688835,
            "trialTime": 0
        },
        {
            "exptPart": "trial",
            "trialNumber": 93,
            "roleCurrent": "receiver",
            "marblesSampled": 100,
            "probRed": 0.5,
            "lambda": 5,
            "drawnRed": 91,
            "reportedRed": 100,
            "inferredRed": 100,
            "playerTrialScore": -9,
            "oppTrialScore": 9,
            "playerTotalScore": -156,
            "oppTotalScore": -114,
            "waitTime": 5657.166583452546,
            "responseTime": 1678843810037,
            "catchQuestion": "How many <b class=\"r\">red<\/b> marbles did your opponent report drawing? ",
            "catchKey": -1,
            "catchResponse": -1,
            "catchTime": 1678843688835,
            "trialTime": 0
        },
        {
            "exptPart": "trial",
            "trialNumber": 94,
            "roleCurrent": "sender",
            "marblesSampled": 100,
            "probRed": 0.5,
            "lambda": 5,
            "drawnRed": 35,
            "reportedRed": 31,
            "inferredRed": 26,
            "playerTrialScore": 0,
            "oppTrialScore": -9,
            "playerTotalScore": -156,
            "oppTotalScore": -123,
            "waitTime": 3065.359139964729,
            "responseTime": 1678843827833,
            "catchQuestion": "How many <b class=\"r\">red<\/b> marbles did your opponent report drawing? ",
            "catchKey": -1,
            "catchResponse": -1,
            "catchTime": 1678843688835,
            "trialTime": 0
        },
        {
            "exptPart": "trial",
            "trialNumber": 95,
            "roleCurrent": "receiver",
            "marblesSampled": 100,
            "probRed": 0.5,
            "lambda": 5,
            "drawnRed": 64,
            "reportedRed": 72,
            "inferredRed": 68,
            "playerTrialScore": -4,
            "oppTrialScore": 4,
            "playerTotalScore": -160,
            "oppTotalScore": -119,
            "waitTime": 6942.794224107412,
            "responseTime": 1678843844073,
            "catchQuestion": "How many <b class=\"r\">red<\/b> marbles did your opponent report drawing? ",
            "catchKey": -1,
            "catchResponse": -1,
            "catchTime": 1678843844073,
            "trialTime": 0
        },
        {
            "exptPart": "trial",
            "trialNumber": 96,
            "roleCurrent": "sender",
            "marblesSampled": 100,
            "probRed": 0.5,
            "lambda": 5,
            "drawnRed": 38,
            "reportedRed": 45,
            "inferredRed": 40,
            "playerTrialScore": 2,
            "oppTrialScore": -2,
            "playerTotalScore": -158,
            "oppTotalScore": -121,
            "waitTime": 2416.9983924235885,
            "responseTime": 1678843876605,
            "catchQuestion": "How many <b class=\"r\">red<\/b> marbles did you actually draw (before any changes)? ",
            "catchKey": 38,
            "catchResponse": 48,
            "catchTime": 1678843876606,
            "trialTime": 0
        },
        {
            "exptPart": "trial",
            "trialNumber": 97,
            "roleCurrent": "receiver",
            "marblesSampled": 100,
            "probRed": 0.5,
            "lambda": 5,
            "drawnRed": 4,
            "reportedRed": 9,
            "inferredRed": 7,
            "playerTrialScore": -3,
            "oppTrialScore": 3,
            "playerTotalScore": -161,
            "oppTotalScore": -118,
            "waitTime": 6733.951542302199,
            "responseTime": 1678843907376,
            "catchQuestion": "How many <b class=\"r\">red<\/b> marbles did you actually draw (before any changes)? ",
            "catchKey": -1,
            "catchResponse": -1,
            "catchTime": 1678843876606,
            "trialTime": 0
        },
        {
            "exptPart": "trial",
            "trialNumber": 98,
            "roleCurrent": "sender",
            "marblesSampled": 100,
            "probRed": 0.5,
            "lambda": 5,
            "drawnRed": 18,
            "reportedRed": 22,
            "inferredRed": 15,
            "playerTrialScore": 0,
            "oppTrialScore": -3,
            "playerTotalScore": -161,
            "oppTotalScore": -121,
            "waitTime": 2077.630505945028,
            "responseTime": 1678843927961,
            "catchQuestion": "How many <b class=\"r\">red<\/b> marbles did you actually draw (before any changes)? ",
            "catchKey": -1,
            "catchResponse": -1,
            "catchTime": 1678843876606,
            "trialTime": 0
        },
        {
            "exptPart": "trial",
            "trialNumber": 99,
            "roleCurrent": "receiver",
            "marblesSampled": 100,
            "probRed": 0.5,
            "lambda": 5,
            "drawnRed": 64,
            "reportedRed": 72,
            "inferredRed": 68,
            "playerTrialScore": -4,
            "oppTrialScore": 4,
            "playerTotalScore": -165,
            "oppTotalScore": -117,
            "waitTime": 5501.280114527744,
            "responseTime": 1678843940451,
            "catchQuestion": "How many <b class=\"r\">red<\/b> marbles did you actually draw (before any changes)? ",
            "catchKey": -1,
            "catchResponse": -1,
            "catchTime": 1678843876606,
            "trialTime": 0
        },
        {
            "exptPart": "trial",
            "trialNumber": 100,
            "roleCurrent": "sender",
            "marblesSampled": 100,
            "probRed": 0.5,
            "lambda": 5,
            "drawnRed": 48,
            "reportedRed": 51,
            "inferredRed": 48,
            "playerTrialScore": 0,
            "oppTrialScore": 0,
            "playerTotalScore": -165,
            "oppTotalScore": -117,
            "waitTime": 2903.2557494664616,
            "responseTime": 1678843952780,
            "catchQuestion": "How many <b class=\"r\">red<\/b> marbles did you actually draw (before any changes)? ",
            "catchKey": 48,
            "catchResponse": 49,
            "catchTime": 1678843952780,
            "trialTime": 0
        }
    ]
}