{
    "client": {
        "type": "sona",
        "experiment_id": 2228,
        "credit_token": "b315147ae43241ea9c65086cb510cfb7",
        "survey_code": "39112",
        "sid": "sona-39112",
        "window": {
            "width": 1440,
            "height": 688
        },
        "screen": {
            "width": 1440,
            "height": 900
        },
        "userAgent": "Mozilla\/5.0 (Macintosh; Intel Mac OS X 10_15_7) AppleWebKit\/537.36 (KHTML, like Gecko) Chrome\/111.0.0.0 Safari\/537.36",
        "score": 0,
        "bonus": 0
    },
    "expt": {
        "saveURL": "submit.simple.php",
        "trials": 100,
        "practiceTrials": 2,
        "marblesSampled": 100,
        "probRed": 0.5,
        "lambdaAI": 5,
        "roleFirst": "sender",
        "roles": [
            "sender",
            "receiver"
        ],
        "cost": "unif",
        "goal": "under",
        "goalInstructTxt": "above",
        "catchTrials": [
            40,
            9,
            89,
            49,
            16,
            33,
            48,
            43,
            67,
            72
        ],
        "scoreTotal": {
            "player": 443,
            "opp": -1194
        },
        "sona": {
            "experiment_id": 2228,
            "credit_token": "b315147ae43241ea9c65086cb510cfb7"
        },
        "pilot": false,
        "debug": false
    },
    "trials": [
        {
            "exptPart": "practice",
            "trialNumber": 1,
            "roleCurrent": "sender",
            "marblesSampled": 100,
            "probRed": 0.5,
            "lambda": 5,
            "drawnRed": 84,
            "reportedRed": 86,
            "inferredRed": 90,
            "playerTrialScore": 0,
            "oppTrialScore": -6,
            "playerTotalScore": 0,
            "oppTotalScore": -6,
            "waitTime": 2741.5068226758613,
            "responseTime": 1678831602258,
            "catchQuestion": "How many <b class=\"r\">red<\/b> marbles did you actually draw (before any changes)? ",
            "catchKey": 84,
            "catchResponse": 87,
            "catchTime": 1678831602259,
            "trialTime": 0
        },
        {
            "exptPart": "practice",
            "trialNumber": 2,
            "roleCurrent": "receiver",
            "marblesSampled": 100,
            "probRed": 0.5,
            "lambda": 5,
            "drawnRed": 62,
            "reportedRed": 53,
            "inferredRed": 58,
            "playerTrialScore": -4,
            "oppTrialScore": 4,
            "playerTotalScore": -4,
            "oppTotalScore": -2,
            "waitTime": 5511.134360773794,
            "responseTime": 1678831674722,
            "catchQuestion": "How many <b class=\"r\">red<\/b> marbles did your opponent report drawing? ",
            "catchKey": 53,
            "catchResponse": 53,
            "catchTime": 1678831674723,
            "trialTime": 0
        },
        {
            "exptPart": "trial",
            "trialNumber": 1,
            "roleCurrent": "sender",
            "marblesSampled": 100,
            "probRed": 0.5,
            "lambda": 5,
            "drawnRed": 65,
            "reportedRed": 29,
            "inferredRed": 31,
            "playerTrialScore": 34,
            "oppTrialScore": -34,
            "playerTotalScore": 34,
            "oppTotalScore": -34,
            "waitTime": 2525.7752183893404,
            "responseTime": 1678831733162,
            "catchQuestion": "How many <b class=\"r\">red<\/b> marbles did your opponent report drawing? ",
            "catchKey": -1,
            "catchResponse": -1,
            "catchTime": 1678831674723,
            "trialTime": 0
        },
        {
            "exptPart": "trial",
            "trialNumber": 2,
            "roleCurrent": "receiver",
            "marblesSampled": 100,
            "probRed": 0.5,
            "lambda": 5,
            "drawnRed": 39,
            "reportedRed": 34,
            "inferredRed": 56,
            "playerTrialScore": -17,
            "oppTrialScore": 0,
            "playerTotalScore": 17,
            "oppTotalScore": -34,
            "waitTime": 5929.319301269883,
            "responseTime": 1678831747119,
            "catchQuestion": "How many <b class=\"r\">red<\/b> marbles did your opponent report drawing? ",
            "catchKey": -1,
            "catchResponse": -1,
            "catchTime": 1678831674723,
            "trialTime": 0
        },
        {
            "exptPart": "trial",
            "trialNumber": 3,
            "roleCurrent": "sender",
            "marblesSampled": 100,
            "probRed": 0.5,
            "lambda": 5,
            "drawnRed": 51,
            "reportedRed": 24,
            "inferredRed": 26,
            "playerTrialScore": 25,
            "oppTrialScore": -25,
            "playerTotalScore": 42,
            "oppTotalScore": -59,
            "waitTime": 2066.4073476798285,
            "responseTime": 1678831778182,
            "catchQuestion": "How many <b class=\"r\">red<\/b> marbles did your opponent report drawing? ",
            "catchKey": -1,
            "catchResponse": -1,
            "catchTime": 1678831674723,
            "trialTime": 0
        },
        {
            "exptPart": "trial",
            "trialNumber": 4,
            "roleCurrent": "receiver",
            "marblesSampled": 100,
            "probRed": 0.5,
            "lambda": 5,
            "drawnRed": 35,
            "reportedRed": 28,
            "inferredRed": 40,
            "playerTrialScore": -5,
            "oppTrialScore": 0,
            "playerTotalScore": 37,
            "oppTotalScore": -59,
            "waitTime": 5196.037704557146,
            "responseTime": 1678831790944,
            "catchQuestion": "How many <b class=\"r\">red<\/b> marbles did your opponent report drawing? ",
            "catchKey": -1,
            "catchResponse": -1,
            "catchTime": 1678831674723,
            "trialTime": 0
        },
        {
            "exptPart": "trial",
            "trialNumber": 5,
            "roleCurrent": "sender",
            "marblesSampled": 100,
            "probRed": 0.5,
            "lambda": 5,
            "drawnRed": 59,
            "reportedRed": 36,
            "inferredRed": 40,
            "playerTrialScore": 19,
            "oppTrialScore": -19,
            "playerTotalScore": 56,
            "oppTotalScore": -78,
            "waitTime": 2627.804031075554,
            "responseTime": 1678831847099,
            "catchQuestion": "How many <b class=\"r\">red<\/b> marbles did your opponent report drawing? ",
            "catchKey": -1,
            "catchResponse": -1,
            "catchTime": 1678831847099,
            "trialTime": 0
        },
        {
            "exptPart": "trial",
            "trialNumber": 6,
            "roleCurrent": "receiver",
            "marblesSampled": 100,
            "probRed": 0.5,
            "lambda": 5,
            "drawnRed": 89,
            "reportedRed": 83,
            "inferredRed": 70,
            "playerTrialScore": -19,
            "oppTrialScore": 19,
            "playerTotalScore": 37,
            "oppTotalScore": -59,
            "waitTime": 5774.077425231057,
            "responseTime": 1678831866240,
            "catchQuestion": "How many <b class=\"r\">red<\/b> marbles did your opponent report drawing? ",
            "catchKey": -1,
            "catchResponse": -1,
            "catchTime": 1678831847099,
            "trialTime": 0
        },
        {
            "exptPart": "trial",
            "trialNumber": 7,
            "roleCurrent": "sender",
            "marblesSampled": 100,
            "probRed": 0.5,
            "lambda": 5,
            "drawnRed": 77,
            "reportedRed": 40,
            "inferredRed": 47,
            "playerTrialScore": 30,
            "oppTrialScore": -30,
            "playerTotalScore": 67,
            "oppTotalScore": -89,
            "waitTime": 2404.97734709572,
            "responseTime": 1678831901946,
            "catchQuestion": "How many <b class=\"r\">red<\/b> marbles did your opponent report drawing? ",
            "catchKey": -1,
            "catchResponse": -1,
            "catchTime": 1678831847099,
            "trialTime": 0
        },
        {
            "exptPart": "trial",
            "trialNumber": 8,
            "roleCurrent": "receiver",
            "marblesSampled": 100,
            "probRed": 0.5,
            "lambda": 5,
            "drawnRed": 32,
            "reportedRed": 27,
            "inferredRed": 50,
            "playerTrialScore": -18,
            "oppTrialScore": 0,
            "playerTotalScore": 49,
            "oppTotalScore": -89,
            "waitTime": 6594.300464646982,
            "responseTime": 1678831913888,
            "catchQuestion": "How many <b class=\"r\">red<\/b> marbles did your opponent report drawing? ",
            "catchKey": -1,
            "catchResponse": -1,
            "catchTime": 1678831847099,
            "trialTime": 0
        },
        {
            "exptPart": "trial",
            "trialNumber": 9,
            "roleCurrent": "sender",
            "marblesSampled": 100,
            "probRed": 0.5,
            "lambda": 5,
            "drawnRed": 17,
            "reportedRed": 5,
            "inferredRed": 8,
            "playerTrialScore": 9,
            "oppTrialScore": -9,
            "playerTotalScore": 58,
            "oppTotalScore": -98,
            "waitTime": 2114.6912577019098,
            "responseTime": 1678831936674,
            "catchQuestion": "How many <b class=\"r\">red<\/b> marbles did your opponent report drawing? ",
            "catchKey": -1,
            "catchResponse": -1,
            "catchTime": 1678831847099,
            "trialTime": 0
        },
        {
            "exptPart": "trial",
            "trialNumber": 10,
            "roleCurrent": "receiver",
            "marblesSampled": 100,
            "probRed": 0.5,
            "lambda": 5,
            "drawnRed": 36,
            "reportedRed": 28,
            "inferredRed": 49,
            "playerTrialScore": -13,
            "oppTrialScore": 0,
            "playerTotalScore": 45,
            "oppTotalScore": -98,
            "waitTime": 6155.951151414087,
            "responseTime": 1678831958873,
            "catchQuestion": "How many <b class=\"r\">red<\/b> marbles did your opponent report drawing? ",
            "catchKey": 28,
            "catchResponse": 15,
            "catchTime": 1678831958873,
            "trialTime": 0
        },
        {
            "exptPart": "trial",
            "trialNumber": 11,
            "roleCurrent": "sender",
            "marblesSampled": 100,
            "probRed": 0.5,
            "lambda": 5,
            "drawnRed": 38,
            "reportedRed": 15,
            "inferredRed": 22,
            "playerTrialScore": 16,
            "oppTrialScore": -16,
            "playerTotalScore": 61,
            "oppTotalScore": -114,
            "waitTime": 2216.1271419674194,
            "responseTime": 1678831998836,
            "catchQuestion": "How many <b class=\"r\">red<\/b> marbles did your opponent report drawing? ",
            "catchKey": -1,
            "catchResponse": -1,
            "catchTime": 1678831958873,
            "trialTime": 0
        },
        {
            "exptPart": "trial",
            "trialNumber": 12,
            "roleCurrent": "receiver",
            "marblesSampled": 100,
            "probRed": 0.5,
            "lambda": 5,
            "drawnRed": 59,
            "reportedRed": 57,
            "inferredRed": 70,
            "playerTrialScore": -11,
            "oppTrialScore": 0,
            "playerTotalScore": 50,
            "oppTotalScore": -114,
            "waitTime": 5199.479349964912,
            "responseTime": 1678832007805,
            "catchQuestion": "How many <b class=\"r\">red<\/b> marbles did your opponent report drawing? ",
            "catchKey": -1,
            "catchResponse": -1,
            "catchTime": 1678831958873,
            "trialTime": 0
        },
        {
            "exptPart": "trial",
            "trialNumber": 13,
            "roleCurrent": "sender",
            "marblesSampled": 100,
            "probRed": 0.5,
            "lambda": 5,
            "drawnRed": 36,
            "reportedRed": 15,
            "inferredRed": 19,
            "playerTrialScore": 17,
            "oppTrialScore": -17,
            "playerTotalScore": 67,
            "oppTotalScore": -131,
            "waitTime": 3107.9488056850005,
            "responseTime": 1678832031861,
            "catchQuestion": "How many <b class=\"r\">red<\/b> marbles did your opponent report drawing? ",
            "catchKey": -1,
            "catchResponse": -1,
            "catchTime": 1678831958873,
            "trialTime": 0
        },
        {
            "exptPart": "trial",
            "trialNumber": 14,
            "roleCurrent": "receiver",
            "marblesSampled": 100,
            "probRed": 0.5,
            "lambda": 5,
            "drawnRed": 29,
            "reportedRed": 26,
            "inferredRed": 49,
            "playerTrialScore": -20,
            "oppTrialScore": 0,
            "playerTotalScore": 47,
            "oppTotalScore": -131,
            "waitTime": 6799.997032340891,
            "responseTime": 1678832048480,
            "catchQuestion": "How many <b class=\"r\">red<\/b> marbles did your opponent report drawing? ",
            "catchKey": -1,
            "catchResponse": -1,
            "catchTime": 1678831958873,
            "trialTime": 0
        },
        {
            "exptPart": "trial",
            "trialNumber": 15,
            "roleCurrent": "sender",
            "marblesSampled": 100,
            "probRed": 0.5,
            "lambda": 5,
            "drawnRed": 63,
            "reportedRed": 31,
            "inferredRed": 35,
            "playerTrialScore": 28,
            "oppTrialScore": -28,
            "playerTotalScore": 75,
            "oppTotalScore": -159,
            "waitTime": 2090.6042867181786,
            "responseTime": 1678832084192,
            "catchQuestion": "How many <b class=\"r\">red<\/b> marbles did your opponent report drawing? ",
            "catchKey": -1,
            "catchResponse": -1,
            "catchTime": 1678832084192,
            "trialTime": 0
        },
        {
            "exptPart": "trial",
            "trialNumber": 16,
            "roleCurrent": "receiver",
            "marblesSampled": 100,
            "probRed": 0.5,
            "lambda": 5,
            "drawnRed": 53,
            "reportedRed": 48,
            "inferredRed": 72,
            "playerTrialScore": -19,
            "oppTrialScore": 0,
            "playerTotalScore": 56,
            "oppTotalScore": -159,
            "waitTime": 6582.8090196344165,
            "responseTime": 1678832104838,
            "catchQuestion": "How many <b class=\"r\">red<\/b> marbles did your opponent report drawing? ",
            "catchKey": -1,
            "catchResponse": -1,
            "catchTime": 1678832084192,
            "trialTime": 0
        },
        {
            "exptPart": "trial",
            "trialNumber": 17,
            "roleCurrent": "sender",
            "marblesSampled": 100,
            "probRed": 0.5,
            "lambda": 5,
            "drawnRed": 42,
            "reportedRed": 19,
            "inferredRed": 25,
            "playerTrialScore": 17,
            "oppTrialScore": -17,
            "playerTotalScore": 73,
            "oppTotalScore": -176,
            "waitTime": 3162.4660453694273,
            "responseTime": 1678832131595,
            "catchQuestion": "How many <b class=\"r\">red<\/b> marbles did you actually draw (before any changes)? ",
            "catchKey": 42,
            "catchResponse": 54,
            "catchTime": 1678832131595,
            "trialTime": 0
        },
        {
            "exptPart": "trial",
            "trialNumber": 18,
            "roleCurrent": "receiver",
            "marblesSampled": 100,
            "probRed": 0.5,
            "lambda": 5,
            "drawnRed": 55,
            "reportedRed": 50,
            "inferredRed": 72,
            "playerTrialScore": -17,
            "oppTrialScore": 0,
            "playerTotalScore": 56,
            "oppTotalScore": -176,
            "waitTime": 5727.908579143219,
            "responseTime": 1678832187463,
            "catchQuestion": "How many <b class=\"r\">red<\/b> marbles did you actually draw (before any changes)? ",
            "catchKey": -1,
            "catchResponse": -1,
            "catchTime": 1678832131595,
            "trialTime": 0
        },
        {
            "exptPart": "trial",
            "trialNumber": 19,
            "roleCurrent": "sender",
            "marblesSampled": 100,
            "probRed": 0.5,
            "lambda": 5,
            "drawnRed": 61,
            "reportedRed": 5,
            "inferredRed": 9,
            "playerTrialScore": 52,
            "oppTrialScore": -52,
            "playerTotalScore": 108,
            "oppTotalScore": -228,
            "waitTime": 2102.632969538719,
            "responseTime": 1678832235124,
            "catchQuestion": "How many <b class=\"r\">red<\/b> marbles did you actually draw (before any changes)? ",
            "catchKey": -1,
            "catchResponse": -1,
            "catchTime": 1678832131595,
            "trialTime": 0
        },
        {
            "exptPart": "trial",
            "trialNumber": 20,
            "roleCurrent": "receiver",
            "marblesSampled": 100,
            "probRed": 0.5,
            "lambda": 5,
            "drawnRed": 59,
            "reportedRed": 55,
            "inferredRed": 75,
            "playerTrialScore": -16,
            "oppTrialScore": 0,
            "playerTotalScore": 92,
            "oppTotalScore": -228,
            "waitTime": 6605.0108757800535,
            "responseTime": 1678832246740,
            "catchQuestion": "How many <b class=\"r\">red<\/b> marbles did you actually draw (before any changes)? ",
            "catchKey": -1,
            "catchResponse": -1,
            "catchTime": 1678832246740,
            "trialTime": 0
        },
        {
            "exptPart": "trial",
            "trialNumber": 21,
            "roleCurrent": "sender",
            "marblesSampled": 100,
            "probRed": 0.5,
            "lambda": 5,
            "drawnRed": 72,
            "reportedRed": 45,
            "inferredRed": 49,
            "playerTrialScore": 23,
            "oppTrialScore": -23,
            "playerTotalScore": 115,
            "oppTotalScore": -251,
            "waitTime": 2549.1799583783177,
            "responseTime": 1678832275402,
            "catchQuestion": "How many <b class=\"r\">red<\/b> marbles did you actually draw (before any changes)? ",
            "catchKey": -1,
            "catchResponse": -1,
            "catchTime": 1678832246740,
            "trialTime": 0
        },
        {
            "exptPart": "trial",
            "trialNumber": 22,
            "roleCurrent": "receiver",
            "marblesSampled": 100,
            "probRed": 0.5,
            "lambda": 5,
            "drawnRed": 62,
            "reportedRed": 56,
            "inferredRed": 73,
            "playerTrialScore": -11,
            "oppTrialScore": 0,
            "playerTotalScore": 104,
            "oppTotalScore": -251,
            "waitTime": 7092.220281743808,
            "responseTime": 1678832286128,
            "catchQuestion": "How many <b class=\"r\">red<\/b> marbles did you actually draw (before any changes)? ",
            "catchKey": -1,
            "catchResponse": -1,
            "catchTime": 1678832246740,
            "trialTime": 0
        },
        {
            "exptPart": "trial",
            "trialNumber": 23,
            "roleCurrent": "sender",
            "marblesSampled": 100,
            "probRed": 0.5,
            "lambda": 5,
            "drawnRed": 73,
            "reportedRed": 24,
            "inferredRed": 29,
            "playerTrialScore": 44,
            "oppTrialScore": -44,
            "playerTotalScore": 148,
            "oppTotalScore": -295,
            "waitTime": 3028.2732978437816,
            "responseTime": 1678832333109,
            "catchQuestion": "How many <b class=\"r\">red<\/b> marbles did you actually draw (before any changes)? ",
            "catchKey": -1,
            "catchResponse": -1,
            "catchTime": 1678832246740,
            "trialTime": 0
        },
        {
            "exptPart": "trial",
            "trialNumber": 24,
            "roleCurrent": "receiver",
            "marblesSampled": 100,
            "probRed": 0.5,
            "lambda": 5,
            "drawnRed": 75,
            "reportedRed": 72,
            "inferredRed": 75,
            "playerTrialScore": 0,
            "oppTrialScore": 0,
            "playerTotalScore": 148,
            "oppTotalScore": -295,
            "waitTime": 5489.697494733622,
            "responseTime": 1678832342692,
            "catchQuestion": "How many <b class=\"r\">red<\/b> marbles did you actually draw (before any changes)? ",
            "catchKey": -1,
            "catchResponse": -1,
            "catchTime": 1678832246740,
            "trialTime": 0
        },
        {
            "exptPart": "trial",
            "trialNumber": 25,
            "roleCurrent": "sender",
            "marblesSampled": 100,
            "probRed": 0.5,
            "lambda": 5,
            "drawnRed": 15,
            "reportedRed": 6,
            "inferredRed": 12,
            "playerTrialScore": 3,
            "oppTrialScore": -3,
            "playerTotalScore": 151,
            "oppTotalScore": -298,
            "waitTime": 3229.6797561304384,
            "responseTime": 1678832363038,
            "catchQuestion": "How many <b class=\"r\">red<\/b> marbles did you actually draw (before any changes)? ",
            "catchKey": -1,
            "catchResponse": -1,
            "catchTime": 1678832363038,
            "trialTime": 0
        },
        {
            "exptPart": "trial",
            "trialNumber": 26,
            "roleCurrent": "receiver",
            "marblesSampled": 100,
            "probRed": 0.5,
            "lambda": 5,
            "drawnRed": 49,
            "reportedRed": 44,
            "inferredRed": 75,
            "playerTrialScore": -26,
            "oppTrialScore": 0,
            "playerTotalScore": 125,
            "oppTotalScore": -298,
            "waitTime": 5143.072001596975,
            "responseTime": 1678832375696,
            "catchQuestion": "How many <b class=\"r\">red<\/b> marbles did you actually draw (before any changes)? ",
            "catchKey": -1,
            "catchResponse": -1,
            "catchTime": 1678832363038,
            "trialTime": 0
        },
        {
            "exptPart": "trial",
            "trialNumber": 27,
            "roleCurrent": "sender",
            "marblesSampled": 100,
            "probRed": 0.5,
            "lambda": 5,
            "drawnRed": 53,
            "reportedRed": 25,
            "inferredRed": 29,
            "playerTrialScore": 24,
            "oppTrialScore": -24,
            "playerTotalScore": 149,
            "oppTotalScore": -322,
            "waitTime": 3028.167429269544,
            "responseTime": 1678832404858,
            "catchQuestion": "How many <b class=\"r\">red<\/b> marbles did you actually draw (before any changes)? ",
            "catchKey": -1,
            "catchResponse": -1,
            "catchTime": 1678832363038,
            "trialTime": 0
        },
        {
            "exptPart": "trial",
            "trialNumber": 28,
            "roleCurrent": "receiver",
            "marblesSampled": 100,
            "probRed": 0.5,
            "lambda": 5,
            "drawnRed": 27,
            "reportedRed": 23,
            "inferredRed": 72,
            "playerTrialScore": -45,
            "oppTrialScore": 0,
            "playerTotalScore": 104,
            "oppTotalScore": -322,
            "waitTime": 5289.295401638057,
            "responseTime": 1678832413537,
            "catchQuestion": "How many <b class=\"r\">red<\/b> marbles did you actually draw (before any changes)? ",
            "catchKey": -1,
            "catchResponse": -1,
            "catchTime": 1678832363038,
            "trialTime": 0
        },
        {
            "exptPart": "trial",
            "trialNumber": 29,
            "roleCurrent": "sender",
            "marblesSampled": 100,
            "probRed": 0.5,
            "lambda": 5,
            "drawnRed": 44,
            "reportedRed": 28,
            "inferredRed": 35,
            "playerTrialScore": 9,
            "oppTrialScore": -9,
            "playerTotalScore": 113,
            "oppTotalScore": -331,
            "waitTime": 2820.404008363641,
            "responseTime": 1678832434066,
            "catchQuestion": "How many <b class=\"r\">red<\/b> marbles did you actually draw (before any changes)? ",
            "catchKey": -1,
            "catchResponse": -1,
            "catchTime": 1678832363038,
            "trialTime": 0
        },
        {
            "exptPart": "trial",
            "trialNumber": 30,
            "roleCurrent": "receiver",
            "marblesSampled": 100,
            "probRed": 0.5,
            "lambda": 5,
            "drawnRed": 56,
            "reportedRed": 47,
            "inferredRed": 68,
            "playerTrialScore": -12,
            "oppTrialScore": 0,
            "playerTotalScore": 101,
            "oppTotalScore": -331,
            "waitTime": 5885.787457790664,
            "responseTime": 1678832445748,
            "catchQuestion": "How many <b class=\"r\">red<\/b> marbles did you actually draw (before any changes)? ",
            "catchKey": -1,
            "catchResponse": -1,
            "catchTime": 1678832445748,
            "trialTime": 0
        },
        {
            "exptPart": "trial",
            "trialNumber": 31,
            "roleCurrent": "sender",
            "marblesSampled": 100,
            "probRed": 0.5,
            "lambda": 5,
            "drawnRed": 75,
            "reportedRed": 2,
            "inferredRed": 6,
            "playerTrialScore": 69,
            "oppTrialScore": -69,
            "playerTotalScore": 170,
            "oppTotalScore": -400,
            "waitTime": 2193.697182354494,
            "responseTime": 1678832498626,
            "catchQuestion": "How many <b class=\"r\">red<\/b> marbles did you actually draw (before any changes)? ",
            "catchKey": -1,
            "catchResponse": -1,
            "catchTime": 1678832445748,
            "trialTime": 0
        },
        {
            "exptPart": "trial",
            "trialNumber": 32,
            "roleCurrent": "receiver",
            "marblesSampled": 100,
            "probRed": 0.5,
            "lambda": 5,
            "drawnRed": 69,
            "reportedRed": 65,
            "inferredRed": 82,
            "playerTrialScore": -13,
            "oppTrialScore": 0,
            "playerTotalScore": 157,
            "oppTotalScore": -400,
            "waitTime": 6451.617526848377,
            "responseTime": 1678832509508,
            "catchQuestion": "How many <b class=\"r\">red<\/b> marbles did you actually draw (before any changes)? ",
            "catchKey": -1,
            "catchResponse": -1,
            "catchTime": 1678832445748,
            "trialTime": 0
        },
        {
            "exptPart": "trial",
            "trialNumber": 33,
            "roleCurrent": "sender",
            "marblesSampled": 100,
            "probRed": 0.5,
            "lambda": 5,
            "drawnRed": 38,
            "reportedRed": 7,
            "inferredRed": 13,
            "playerTrialScore": 25,
            "oppTrialScore": -25,
            "playerTotalScore": 182,
            "oppTotalScore": -425,
            "waitTime": 2150.3871577554673,
            "responseTime": 1678832543721,
            "catchQuestion": "How many <b class=\"r\">red<\/b> marbles did you actually draw (before any changes)? ",
            "catchKey": -1,
            "catchResponse": -1,
            "catchTime": 1678832445748,
            "trialTime": 0
        },
        {
            "exptPart": "trial",
            "trialNumber": 34,
            "roleCurrent": "receiver",
            "marblesSampled": 100,
            "probRed": 0.5,
            "lambda": 5,
            "drawnRed": 52,
            "reportedRed": 47,
            "inferredRed": 67,
            "playerTrialScore": -15,
            "oppTrialScore": 0,
            "playerTotalScore": 167,
            "oppTotalScore": -425,
            "waitTime": 5329.307594111294,
            "responseTime": 1678832554306,
            "catchQuestion": "How many <b class=\"r\">red<\/b> marbles did your opponent report drawing? ",
            "catchKey": 47,
            "catchResponse": 65,
            "catchTime": 1678832554306,
            "trialTime": 0
        },
        {
            "exptPart": "trial",
            "trialNumber": 35,
            "roleCurrent": "sender",
            "marblesSampled": 100,
            "probRed": 0.5,
            "lambda": 5,
            "drawnRed": 59,
            "reportedRed": 11,
            "inferredRed": 15,
            "playerTrialScore": 44,
            "oppTrialScore": -44,
            "playerTotalScore": 211,
            "oppTotalScore": -469,
            "waitTime": 2262.771452315767,
            "responseTime": 1678832604872,
            "catchQuestion": "How many <b class=\"r\">red<\/b> marbles did your opponent report drawing? ",
            "catchKey": -1,
            "catchResponse": -1,
            "catchTime": 1678832604872,
            "trialTime": 0
        },
        {
            "exptPart": "trial",
            "trialNumber": 36,
            "roleCurrent": "receiver",
            "marblesSampled": 100,
            "probRed": 0.5,
            "lambda": 5,
            "drawnRed": 41,
            "reportedRed": 35,
            "inferredRed": 70,
            "playerTrialScore": -29,
            "oppTrialScore": 0,
            "playerTotalScore": 182,
            "oppTotalScore": -469,
            "waitTime": 5426.857222788825,
            "responseTime": 1678832617072,
            "catchQuestion": "How many <b class=\"r\">red<\/b> marbles did your opponent report drawing? ",
            "catchKey": -1,
            "catchResponse": -1,
            "catchTime": 1678832604872,
            "trialTime": 0
        },
        {
            "exptPart": "trial",
            "trialNumber": 37,
            "roleCurrent": "sender",
            "marblesSampled": 100,
            "probRed": 0.5,
            "lambda": 5,
            "drawnRed": 76,
            "reportedRed": 61,
            "inferredRed": 62,
            "playerTrialScore": 14,
            "oppTrialScore": -14,
            "playerTotalScore": 196,
            "oppTotalScore": -483,
            "waitTime": 2390.323954095523,
            "responseTime": 1678832634737,
            "catchQuestion": "How many <b class=\"r\">red<\/b> marbles did your opponent report drawing? ",
            "catchKey": -1,
            "catchResponse": -1,
            "catchTime": 1678832604872,
            "trialTime": 0
        },
        {
            "exptPart": "trial",
            "trialNumber": 38,
            "roleCurrent": "receiver",
            "marblesSampled": 100,
            "probRed": 0.5,
            "lambda": 5,
            "drawnRed": 43,
            "reportedRed": 36,
            "inferredRed": 72,
            "playerTrialScore": -29,
            "oppTrialScore": 0,
            "playerTotalScore": 167,
            "oppTotalScore": -483,
            "waitTime": 5758.666553574711,
            "responseTime": 1678832644965,
            "catchQuestion": "How many <b class=\"r\">red<\/b> marbles did your opponent report drawing? ",
            "catchKey": -1,
            "catchResponse": -1,
            "catchTime": 1678832604872,
            "trialTime": 0
        },
        {
            "exptPart": "trial",
            "trialNumber": 39,
            "roleCurrent": "sender",
            "marblesSampled": 100,
            "probRed": 0.5,
            "lambda": 5,
            "drawnRed": 81,
            "reportedRed": 27,
            "inferredRed": 30,
            "playerTrialScore": 51,
            "oppTrialScore": -51,
            "playerTotalScore": 218,
            "oppTotalScore": -534,
            "waitTime": 3097.4028844804793,
            "responseTime": 1678832689531,
            "catchQuestion": "How many <b class=\"r\">red<\/b> marbles did your opponent report drawing? ",
            "catchKey": -1,
            "catchResponse": -1,
            "catchTime": 1678832604872,
            "trialTime": 0
        },
        {
            "exptPart": "trial",
            "trialNumber": 40,
            "roleCurrent": "receiver",
            "marblesSampled": 100,
            "probRed": 0.5,
            "lambda": 5,
            "drawnRed": 62,
            "reportedRed": 56,
            "inferredRed": 72,
            "playerTrialScore": -10,
            "oppTrialScore": 0,
            "playerTotalScore": 208,
            "oppTotalScore": -534,
            "waitTime": 5724.782884954266,
            "responseTime": 1678832699162,
            "catchQuestion": "How many <b class=\"r\">red<\/b> marbles did your opponent report drawing? ",
            "catchKey": -1,
            "catchResponse": -1,
            "catchTime": 1678832699162,
            "trialTime": 0
        },
        {
            "exptPart": "trial",
            "trialNumber": 41,
            "roleCurrent": "sender",
            "marblesSampled": 100,
            "probRed": 0.5,
            "lambda": 5,
            "drawnRed": 49,
            "reportedRed": 22,
            "inferredRed": 26,
            "playerTrialScore": 23,
            "oppTrialScore": -23,
            "playerTotalScore": 231,
            "oppTotalScore": -557,
            "waitTime": 2621.9255732218235,
            "responseTime": 1678832731380,
            "catchQuestion": "How many <b class=\"r\">red<\/b> marbles did you actually draw (before any changes)? ",
            "catchKey": 49,
            "catchResponse": 32,
            "catchTime": 1678832731380,
            "trialTime": 0
        },
        {
            "exptPart": "trial",
            "trialNumber": 42,
            "roleCurrent": "receiver",
            "marblesSampled": 100,
            "probRed": 0.5,
            "lambda": 5,
            "drawnRed": 60,
            "reportedRed": 54,
            "inferredRed": 69,
            "playerTrialScore": -9,
            "oppTrialScore": 0,
            "playerTotalScore": 222,
            "oppTotalScore": -557,
            "waitTime": 6617.109655392826,
            "responseTime": 1678832754532,
            "catchQuestion": "How many <b class=\"r\">red<\/b> marbles did you actually draw (before any changes)? ",
            "catchKey": -1,
            "catchResponse": -1,
            "catchTime": 1678832731380,
            "trialTime": 0
        },
        {
            "exptPart": "trial",
            "trialNumber": 43,
            "roleCurrent": "sender",
            "marblesSampled": 100,
            "probRed": 0.5,
            "lambda": 5,
            "drawnRed": 17,
            "reportedRed": 2,
            "inferredRed": 8,
            "playerTrialScore": 9,
            "oppTrialScore": -9,
            "playerTotalScore": 231,
            "oppTotalScore": -566,
            "waitTime": 2385.6306360381122,
            "responseTime": 1678832776294,
            "catchQuestion": "How many <b class=\"r\">red<\/b> marbles did you actually draw (before any changes)? ",
            "catchKey": -1,
            "catchResponse": -1,
            "catchTime": 1678832731380,
            "trialTime": 0
        },
        {
            "exptPart": "trial",
            "trialNumber": 44,
            "roleCurrent": "receiver",
            "marblesSampled": 100,
            "probRed": 0.5,
            "lambda": 5,
            "drawnRed": 34,
            "reportedRed": 30,
            "inferredRed": 50,
            "playerTrialScore": -16,
            "oppTrialScore": 0,
            "playerTotalScore": 215,
            "oppTotalScore": -566,
            "waitTime": 5689.863228387378,
            "responseTime": 1678832787321,
            "catchQuestion": "How many <b class=\"r\">red<\/b> marbles did your opponent report drawing? ",
            "catchKey": 30,
            "catchResponse": 30,
            "catchTime": 1678832787321,
            "trialTime": 0
        },
        {
            "exptPart": "trial",
            "trialNumber": 45,
            "roleCurrent": "sender",
            "marblesSampled": 100,
            "probRed": 0.5,
            "lambda": 5,
            "drawnRed": 53,
            "reportedRed": 21,
            "inferredRed": 24,
            "playerTrialScore": 29,
            "oppTrialScore": -29,
            "playerTotalScore": 244,
            "oppTotalScore": -595,
            "waitTime": 2422.1432153331307,
            "responseTime": 1678832853480,
            "catchQuestion": "How many <b class=\"r\">red<\/b> marbles did your opponent report drawing? ",
            "catchKey": -1,
            "catchResponse": -1,
            "catchTime": 1678832853480,
            "trialTime": 0
        },
        {
            "exptPart": "trial",
            "trialNumber": 46,
            "roleCurrent": "receiver",
            "marblesSampled": 100,
            "probRed": 0.5,
            "lambda": 5,
            "drawnRed": 70,
            "reportedRed": 65,
            "inferredRed": 70,
            "playerTrialScore": 0,
            "oppTrialScore": 0,
            "playerTotalScore": 244,
            "oppTotalScore": -595,
            "waitTime": 5179.056932377783,
            "responseTime": 1678832881422,
            "catchQuestion": "How many <b class=\"r\">red<\/b> marbles did your opponent report drawing? ",
            "catchKey": -1,
            "catchResponse": -1,
            "catchTime": 1678832853480,
            "trialTime": 0
        },
        {
            "exptPart": "trial",
            "trialNumber": 47,
            "roleCurrent": "sender",
            "marblesSampled": 100,
            "probRed": 0.5,
            "lambda": 5,
            "drawnRed": 60,
            "reportedRed": 26,
            "inferredRed": 31,
            "playerTrialScore": 29,
            "oppTrialScore": -29,
            "playerTotalScore": 273,
            "oppTotalScore": -624,
            "waitTime": 2518.4881031320037,
            "responseTime": 1678832912138,
            "catchQuestion": "How many <b class=\"r\">red<\/b> marbles did your opponent report drawing? ",
            "catchKey": -1,
            "catchResponse": -1,
            "catchTime": 1678832853480,
            "trialTime": 0
        },
        {
            "exptPart": "trial",
            "trialNumber": 48,
            "roleCurrent": "receiver",
            "marblesSampled": 100,
            "probRed": 0.5,
            "lambda": 5,
            "drawnRed": 69,
            "reportedRed": 65,
            "inferredRed": 82,
            "playerTrialScore": -13,
            "oppTrialScore": 0,
            "playerTotalScore": 260,
            "oppTotalScore": -624,
            "waitTime": 6617.611009191387,
            "responseTime": 1678832968620,
            "catchQuestion": "How many <b class=\"r\">red<\/b> marbles did your opponent report drawing? ",
            "catchKey": -1,
            "catchResponse": -1,
            "catchTime": 1678832853480,
            "trialTime": 0
        },
        {
            "exptPart": "trial",
            "trialNumber": 49,
            "roleCurrent": "sender",
            "marblesSampled": 100,
            "probRed": 0.5,
            "lambda": 5,
            "drawnRed": 72,
            "reportedRed": 30,
            "inferredRed": 35,
            "playerTrialScore": 37,
            "oppTrialScore": -37,
            "playerTotalScore": 297,
            "oppTotalScore": -661,
            "waitTime": 3100.8955039515135,
            "responseTime": 1678833004882,
            "catchQuestion": "How many <b class=\"r\">red<\/b> marbles did you actually draw (before any changes)? ",
            "catchKey": 72,
            "catchResponse": 52,
            "catchTime": 1678833004882,
            "trialTime": 0
        },
        {
            "exptPart": "trial",
            "trialNumber": 50,
            "roleCurrent": "receiver",
            "marblesSampled": 100,
            "probRed": 0.5,
            "lambda": 5,
            "drawnRed": 51,
            "reportedRed": 41,
            "inferredRed": 63,
            "playerTrialScore": -12,
            "oppTrialScore": 0,
            "playerTotalScore": 285,
            "oppTotalScore": -661,
            "waitTime": 5828.5376062742325,
            "responseTime": 1678833034689,
            "catchQuestion": "How many <b class=\"r\">red<\/b> marbles did your opponent report drawing? ",
            "catchKey": 41,
            "catchResponse": 41,
            "catchTime": 1678833034689,
            "trialTime": 0
        },
        {
            "exptPart": "trial",
            "trialNumber": 51,
            "roleCurrent": "sender",
            "marblesSampled": 100,
            "probRed": 0.5,
            "lambda": 5,
            "drawnRed": 73,
            "reportedRed": 63,
            "inferredRed": 70,
            "playerTrialScore": 3,
            "oppTrialScore": -3,
            "playerTotalScore": 288,
            "oppTotalScore": -664,
            "waitTime": 2792.1436149726223,
            "responseTime": 1678833106838,
            "catchQuestion": "How many <b class=\"r\">red<\/b> marbles did your opponent report drawing? ",
            "catchKey": -1,
            "catchResponse": -1,
            "catchTime": 1678833034689,
            "trialTime": 0
        },
        {
            "exptPart": "trial",
            "trialNumber": 52,
            "roleCurrent": "receiver",
            "marblesSampled": 100,
            "probRed": 0.5,
            "lambda": 5,
            "drawnRed": 81,
            "reportedRed": 76,
            "inferredRed": 82,
            "playerTrialScore": -1,
            "oppTrialScore": 0,
            "playerTotalScore": 287,
            "oppTotalScore": -664,
            "waitTime": 6735.341746093856,
            "responseTime": 1678833215697,
            "catchQuestion": "How many <b class=\"r\">red<\/b> marbles did your opponent report drawing? ",
            "catchKey": -1,
            "catchResponse": -1,
            "catchTime": 1678833034689,
            "trialTime": 0
        },
        {
            "exptPart": "trial",
            "trialNumber": 53,
            "roleCurrent": "sender",
            "marblesSampled": 100,
            "probRed": 0.5,
            "lambda": 5,
            "drawnRed": 38,
            "reportedRed": 12,
            "inferredRed": 18,
            "playerTrialScore": 20,
            "oppTrialScore": -20,
            "playerTotalScore": 307,
            "oppTotalScore": -684,
            "waitTime": 2496.196309739084,
            "responseTime": 1678833270998,
            "catchQuestion": "How many <b class=\"r\">red<\/b> marbles did your opponent report drawing? ",
            "catchKey": -1,
            "catchResponse": -1,
            "catchTime": 1678833034689,
            "trialTime": 0
        },
        {
            "exptPart": "trial",
            "trialNumber": 54,
            "roleCurrent": "receiver",
            "marblesSampled": 100,
            "probRed": 0.5,
            "lambda": 5,
            "drawnRed": 60,
            "reportedRed": 56,
            "inferredRed": 74,
            "playerTrialScore": -14,
            "oppTrialScore": 0,
            "playerTotalScore": 293,
            "oppTotalScore": -684,
            "waitTime": 5914.0003792107855,
            "responseTime": 1678833316949,
            "catchQuestion": "How many <b class=\"r\">red<\/b> marbles did your opponent report drawing? ",
            "catchKey": -1,
            "catchResponse": -1,
            "catchTime": 1678833034689,
            "trialTime": 0
        },
        {
            "exptPart": "trial",
            "trialNumber": 55,
            "roleCurrent": "sender",
            "marblesSampled": 100,
            "probRed": 0.5,
            "lambda": 5,
            "drawnRed": 11,
            "reportedRed": 9,
            "inferredRed": 13,
            "playerTrialScore": 0,
            "oppTrialScore": -2,
            "playerTotalScore": 293,
            "oppTotalScore": -686,
            "waitTime": 2503.5411454290643,
            "responseTime": 1678833332541,
            "catchQuestion": "How many <b class=\"r\">red<\/b> marbles did your opponent report drawing? ",
            "catchKey": -1,
            "catchResponse": -1,
            "catchTime": 1678833332541,
            "trialTime": 0
        },
        {
            "exptPart": "trial",
            "trialNumber": 56,
            "roleCurrent": "receiver",
            "marblesSampled": 100,
            "probRed": 0.5,
            "lambda": 5,
            "drawnRed": 58,
            "reportedRed": 51,
            "inferredRed": 75,
            "playerTrialScore": -17,
            "oppTrialScore": 0,
            "playerTotalScore": 276,
            "oppTotalScore": -686,
            "waitTime": 7185.3347514006355,
            "responseTime": 1678833347055,
            "catchQuestion": "How many <b class=\"r\">red<\/b> marbles did your opponent report drawing? ",
            "catchKey": -1,
            "catchResponse": -1,
            "catchTime": 1678833332541,
            "trialTime": 0
        },
        {
            "exptPart": "trial",
            "trialNumber": 57,
            "roleCurrent": "sender",
            "marblesSampled": 100,
            "probRed": 0.5,
            "lambda": 5,
            "drawnRed": 57,
            "reportedRed": 29,
            "inferredRed": 35,
            "playerTrialScore": 22,
            "oppTrialScore": -22,
            "playerTotalScore": 298,
            "oppTotalScore": -708,
            "waitTime": 2786.3984388049876,
            "responseTime": 1678833376210,
            "catchQuestion": "How many <b class=\"r\">red<\/b> marbles did your opponent report drawing? ",
            "catchKey": -1,
            "catchResponse": -1,
            "catchTime": 1678833332541,
            "trialTime": 0
        },
        {
            "exptPart": "trial",
            "trialNumber": 58,
            "roleCurrent": "receiver",
            "marblesSampled": 100,
            "probRed": 0.5,
            "lambda": 5,
            "drawnRed": 28,
            "reportedRed": 24,
            "inferredRed": 40,
            "playerTrialScore": -12,
            "oppTrialScore": 0,
            "playerTotalScore": 286,
            "oppTotalScore": -708,
            "waitTime": 7005.15571781177,
            "responseTime": 1678833386870,
            "catchQuestion": "How many <b class=\"r\">red<\/b> marbles did your opponent report drawing? ",
            "catchKey": -1,
            "catchResponse": -1,
            "catchTime": 1678833332541,
            "trialTime": 0
        },
        {
            "exptPart": "trial",
            "trialNumber": 59,
            "roleCurrent": "sender",
            "marblesSampled": 100,
            "probRed": 0.5,
            "lambda": 5,
            "drawnRed": 6,
            "reportedRed": 4,
            "inferredRed": 9,
            "playerTrialScore": 0,
            "oppTrialScore": -3,
            "playerTotalScore": 286,
            "oppTotalScore": -711,
            "waitTime": 2142.1374233642737,
            "responseTime": 1678833397870,
            "catchQuestion": "How many <b class=\"r\">red<\/b> marbles did your opponent report drawing? ",
            "catchKey": -1,
            "catchResponse": -1,
            "catchTime": 1678833332541,
            "trialTime": 0
        },
        {
            "exptPart": "trial",
            "trialNumber": 60,
            "roleCurrent": "receiver",
            "marblesSampled": 100,
            "probRed": 0.5,
            "lambda": 5,
            "drawnRed": 55,
            "reportedRed": 51,
            "inferredRed": 65,
            "playerTrialScore": -10,
            "oppTrialScore": 0,
            "playerTotalScore": 276,
            "oppTotalScore": -711,
            "waitTime": 6399.0490325468945,
            "responseTime": 1678833409399,
            "catchQuestion": "How many <b class=\"r\">red<\/b> marbles did your opponent report drawing? ",
            "catchKey": -1,
            "catchResponse": -1,
            "catchTime": 1678833409399,
            "trialTime": 0
        },
        {
            "exptPart": "trial",
            "trialNumber": 61,
            "roleCurrent": "sender",
            "marblesSampled": 100,
            "probRed": 0.5,
            "lambda": 5,
            "drawnRed": 74,
            "reportedRed": 40,
            "inferredRed": 44,
            "playerTrialScore": 30,
            "oppTrialScore": -30,
            "playerTotalScore": 306,
            "oppTotalScore": -741,
            "waitTime": 2407.264621672995,
            "responseTime": 1678833439957,
            "catchQuestion": "How many <b class=\"r\">red<\/b> marbles did your opponent report drawing? ",
            "catchKey": -1,
            "catchResponse": -1,
            "catchTime": 1678833409399,
            "trialTime": 0
        },
        {
            "exptPart": "trial",
            "trialNumber": 62,
            "roleCurrent": "receiver",
            "marblesSampled": 100,
            "probRed": 0.5,
            "lambda": 5,
            "drawnRed": 53,
            "reportedRed": 48,
            "inferredRed": 65,
            "playerTrialScore": -12,
            "oppTrialScore": 0,
            "playerTotalScore": 294,
            "oppTotalScore": -741,
            "waitTime": 5689.589891176517,
            "responseTime": 1678833450926,
            "catchQuestion": "How many <b class=\"r\">red<\/b> marbles did your opponent report drawing? ",
            "catchKey": -1,
            "catchResponse": -1,
            "catchTime": 1678833409399,
            "trialTime": 0
        },
        {
            "exptPart": "trial",
            "trialNumber": 63,
            "roleCurrent": "sender",
            "marblesSampled": 100,
            "probRed": 0.5,
            "lambda": 5,
            "drawnRed": 27,
            "reportedRed": 15,
            "inferredRed": 20,
            "playerTrialScore": 7,
            "oppTrialScore": -7,
            "playerTotalScore": 301,
            "oppTotalScore": -748,
            "waitTime": 2311.750089675016,
            "responseTime": 1678833466744,
            "catchQuestion": "How many <b class=\"r\">red<\/b> marbles did your opponent report drawing? ",
            "catchKey": -1,
            "catchResponse": -1,
            "catchTime": 1678833409399,
            "trialTime": 0
        },
        {
            "exptPart": "trial",
            "trialNumber": 64,
            "roleCurrent": "receiver",
            "marblesSampled": 100,
            "probRed": 0.5,
            "lambda": 5,
            "drawnRed": 68,
            "reportedRed": 62,
            "inferredRed": 72,
            "playerTrialScore": -4,
            "oppTrialScore": 0,
            "playerTotalScore": 297,
            "oppTotalScore": -748,
            "waitTime": 6397.019772825566,
            "responseTime": 1678833477608,
            "catchQuestion": "How many <b class=\"r\">red<\/b> marbles did your opponent report drawing? ",
            "catchKey": -1,
            "catchResponse": -1,
            "catchTime": 1678833409399,
            "trialTime": 0
        },
        {
            "exptPart": "trial",
            "trialNumber": 65,
            "roleCurrent": "sender",
            "marblesSampled": 100,
            "probRed": 0.5,
            "lambda": 5,
            "drawnRed": 68,
            "reportedRed": 40,
            "inferredRed": 47,
            "playerTrialScore": 21,
            "oppTrialScore": -21,
            "playerTotalScore": 318,
            "oppTotalScore": -769,
            "waitTime": 2978.7018958251547,
            "responseTime": 1678833502686,
            "catchQuestion": "How many <b class=\"r\">red<\/b> marbles did your opponent report drawing? ",
            "catchKey": -1,
            "catchResponse": -1,
            "catchTime": 1678833502686,
            "trialTime": 0
        },
        {
            "exptPart": "trial",
            "trialNumber": 66,
            "roleCurrent": "receiver",
            "marblesSampled": 100,
            "probRed": 0.5,
            "lambda": 5,
            "drawnRed": 19,
            "reportedRed": 8,
            "inferredRed": 20,
            "playerTrialScore": -1,
            "oppTrialScore": 0,
            "playerTotalScore": 317,
            "oppTotalScore": -769,
            "waitTime": 6071.931119124844,
            "responseTime": 1678833514912,
            "catchQuestion": "How many <b class=\"r\">red<\/b> marbles did your opponent report drawing? ",
            "catchKey": -1,
            "catchResponse": -1,
            "catchTime": 1678833502686,
            "trialTime": 0
        },
        {
            "exptPart": "trial",
            "trialNumber": 67,
            "roleCurrent": "sender",
            "marblesSampled": 100,
            "probRed": 0.5,
            "lambda": 5,
            "drawnRed": 71,
            "reportedRed": 43,
            "inferredRed": 48,
            "playerTrialScore": 23,
            "oppTrialScore": -23,
            "playerTotalScore": 340,
            "oppTotalScore": -792,
            "waitTime": 2367.837735783686,
            "responseTime": 1678833540930,
            "catchQuestion": "How many <b class=\"r\">red<\/b> marbles did your opponent report drawing? ",
            "catchKey": -1,
            "catchResponse": -1,
            "catchTime": 1678833502686,
            "trialTime": 0
        },
        {
            "exptPart": "trial",
            "trialNumber": 68,
            "roleCurrent": "receiver",
            "marblesSampled": 100,
            "probRed": 0.5,
            "lambda": 5,
            "drawnRed": 52,
            "reportedRed": 46,
            "inferredRed": 73,
            "playerTrialScore": -21,
            "oppTrialScore": 0,
            "playerTotalScore": 319,
            "oppTotalScore": -792,
            "waitTime": 6318.66579757415,
            "responseTime": 1678833552065,
            "catchQuestion": "How many <b class=\"r\">red<\/b> marbles did your opponent report drawing? ",
            "catchKey": 46,
            "catchResponse": 46,
            "catchTime": 1678833552065,
            "trialTime": 0
        },
        {
            "exptPart": "trial",
            "trialNumber": 69,
            "roleCurrent": "sender",
            "marblesSampled": 100,
            "probRed": 0.5,
            "lambda": 5,
            "drawnRed": 43,
            "reportedRed": 31,
            "inferredRed": 36,
            "playerTrialScore": 7,
            "oppTrialScore": -7,
            "playerTotalScore": 326,
            "oppTotalScore": -799,
            "waitTime": 2471.1359691836083,
            "responseTime": 1678833575107,
            "catchQuestion": "How many <b class=\"r\">red<\/b> marbles did your opponent report drawing? ",
            "catchKey": -1,
            "catchResponse": -1,
            "catchTime": 1678833552065,
            "trialTime": 0
        },
        {
            "exptPart": "trial",
            "trialNumber": 70,
            "roleCurrent": "receiver",
            "marblesSampled": 100,
            "probRed": 0.5,
            "lambda": 5,
            "drawnRed": 23,
            "reportedRed": 19,
            "inferredRed": 45,
            "playerTrialScore": -22,
            "oppTrialScore": 0,
            "playerTotalScore": 304,
            "oppTotalScore": -799,
            "waitTime": 6275.016317813019,
            "responseTime": 1678833584593,
            "catchQuestion": "How many <b class=\"r\">red<\/b> marbles did your opponent report drawing? ",
            "catchKey": -1,
            "catchResponse": -1,
            "catchTime": 1678833584593,
            "trialTime": 0
        },
        {
            "exptPart": "trial",
            "trialNumber": 71,
            "roleCurrent": "sender",
            "marblesSampled": 100,
            "probRed": 0.5,
            "lambda": 5,
            "drawnRed": 63,
            "reportedRed": 40,
            "inferredRed": 48,
            "playerTrialScore": 15,
            "oppTrialScore": -15,
            "playerTotalScore": 319,
            "oppTotalScore": -814,
            "waitTime": 2297.3186635182046,
            "responseTime": 1678833606334,
            "catchQuestion": "How many <b class=\"r\">red<\/b> marbles did your opponent report drawing? ",
            "catchKey": -1,
            "catchResponse": -1,
            "catchTime": 1678833584593,
            "trialTime": 0
        },
        {
            "exptPart": "trial",
            "trialNumber": 72,
            "roleCurrent": "receiver",
            "marblesSampled": 100,
            "probRed": 0.5,
            "lambda": 5,
            "drawnRed": 35,
            "reportedRed": 30,
            "inferredRed": 45,
            "playerTrialScore": -10,
            "oppTrialScore": 0,
            "playerTotalScore": 309,
            "oppTotalScore": -814,
            "waitTime": 5936.1443580070745,
            "responseTime": 1678833614866,
            "catchQuestion": "How many <b class=\"r\">red<\/b> marbles did your opponent report drawing? ",
            "catchKey": -1,
            "catchResponse": -1,
            "catchTime": 1678833584593,
            "trialTime": 0
        },
        {
            "exptPart": "trial",
            "trialNumber": 73,
            "roleCurrent": "sender",
            "marblesSampled": 100,
            "probRed": 0.5,
            "lambda": 5,
            "drawnRed": 51,
            "reportedRed": 13,
            "inferredRed": 19,
            "playerTrialScore": 32,
            "oppTrialScore": -32,
            "playerTotalScore": 341,
            "oppTotalScore": -846,
            "waitTime": 2233.872338547105,
            "responseTime": 1678833648814,
            "catchQuestion": "How many <b class=\"r\">red<\/b> marbles did you actually draw (before any changes)? ",
            "catchKey": 51,
            "catchResponse": 51,
            "catchTime": 1678833648814,
            "trialTime": 0
        },
        {
            "exptPart": "trial",
            "trialNumber": 74,
            "roleCurrent": "receiver",
            "marblesSampled": 100,
            "probRed": 0.5,
            "lambda": 5,
            "drawnRed": 57,
            "reportedRed": 50,
            "inferredRed": 74,
            "playerTrialScore": -17,
            "oppTrialScore": 0,
            "playerTotalScore": 324,
            "oppTotalScore": -846,
            "waitTime": 5476.183456053432,
            "responseTime": 1678833660810,
            "catchQuestion": "How many <b class=\"r\">red<\/b> marbles did you actually draw (before any changes)? ",
            "catchKey": -1,
            "catchResponse": -1,
            "catchTime": 1678833648814,
            "trialTime": 0
        },
        {
            "exptPart": "trial",
            "trialNumber": 75,
            "roleCurrent": "sender",
            "marblesSampled": 100,
            "probRed": 0.5,
            "lambda": 5,
            "drawnRed": 24,
            "reportedRed": 10,
            "inferredRed": 15,
            "playerTrialScore": 9,
            "oppTrialScore": -9,
            "playerTotalScore": 333,
            "oppTotalScore": -855,
            "waitTime": 3140.450464324584,
            "responseTime": 1678833679162,
            "catchQuestion": "How many <b class=\"r\">red<\/b> marbles did you actually draw (before any changes)? ",
            "catchKey": -1,
            "catchResponse": -1,
            "catchTime": 1678833679162,
            "trialTime": 0
        },
        {
            "exptPart": "trial",
            "trialNumber": 76,
            "roleCurrent": "receiver",
            "marblesSampled": 100,
            "probRed": 0.5,
            "lambda": 5,
            "drawnRed": 30,
            "reportedRed": 23,
            "inferredRed": 43,
            "playerTrialScore": -13,
            "oppTrialScore": 0,
            "playerTotalScore": 320,
            "oppTotalScore": -855,
            "waitTime": 7078.974236419735,
            "responseTime": 1678833691493,
            "catchQuestion": "How many <b class=\"r\">red<\/b> marbles did you actually draw (before any changes)? ",
            "catchKey": -1,
            "catchResponse": -1,
            "catchTime": 1678833679162,
            "trialTime": 0
        },
        {
            "exptPart": "trial",
            "trialNumber": 77,
            "roleCurrent": "sender",
            "marblesSampled": 100,
            "probRed": 0.5,
            "lambda": 5,
            "drawnRed": 50,
            "reportedRed": 18,
            "inferredRed": 24,
            "playerTrialScore": 26,
            "oppTrialScore": -26,
            "playerTotalScore": 346,
            "oppTotalScore": -881,
            "waitTime": 2159.5045230143924,
            "responseTime": 1678833717723,
            "catchQuestion": "How many <b class=\"r\">red<\/b> marbles did you actually draw (before any changes)? ",
            "catchKey": -1,
            "catchResponse": -1,
            "catchTime": 1678833679162,
            "trialTime": 0
        },
        {
            "exptPart": "trial",
            "trialNumber": 78,
            "roleCurrent": "receiver",
            "marblesSampled": 100,
            "probRed": 0.5,
            "lambda": 5,
            "drawnRed": 68,
            "reportedRed": 63,
            "inferredRed": 80,
            "playerTrialScore": -12,
            "oppTrialScore": 0,
            "playerTotalScore": 334,
            "oppTotalScore": -881,
            "waitTime": 5358.40785614015,
            "responseTime": 1678833736117,
            "catchQuestion": "How many <b class=\"r\">red<\/b> marbles did you actually draw (before any changes)? ",
            "catchKey": -1,
            "catchResponse": -1,
            "catchTime": 1678833679162,
            "trialTime": 0
        },
        {
            "exptPart": "trial",
            "trialNumber": 79,
            "roleCurrent": "sender",
            "marblesSampled": 100,
            "probRed": 0.5,
            "lambda": 5,
            "drawnRed": 71,
            "reportedRed": 23,
            "inferredRed": 26,
            "playerTrialScore": 45,
            "oppTrialScore": -45,
            "playerTotalScore": 379,
            "oppTotalScore": -926,
            "waitTime": 2521.0713489852674,
            "responseTime": 1678833773763,
            "catchQuestion": "How many <b class=\"r\">red<\/b> marbles did you actually draw (before any changes)? ",
            "catchKey": -1,
            "catchResponse": -1,
            "catchTime": 1678833679162,
            "trialTime": 0
        },
        {
            "exptPart": "trial",
            "trialNumber": 80,
            "roleCurrent": "receiver",
            "marblesSampled": 100,
            "probRed": 0.5,
            "lambda": 5,
            "drawnRed": 42,
            "reportedRed": 38,
            "inferredRed": 64,
            "playerTrialScore": -22,
            "oppTrialScore": 0,
            "playerTotalScore": 357,
            "oppTotalScore": -926,
            "waitTime": 6606.852732763234,
            "responseTime": 1678833781683,
            "catchQuestion": "How many <b class=\"r\">red<\/b> marbles did you actually draw (before any changes)? ",
            "catchKey": -1,
            "catchResponse": -1,
            "catchTime": 1678833781683,
            "trialTime": 0
        },
        {
            "exptPart": "trial",
            "trialNumber": 81,
            "roleCurrent": "sender",
            "marblesSampled": 100,
            "probRed": 0.5,
            "lambda": 5,
            "drawnRed": 38,
            "reportedRed": 9,
            "inferredRed": 13,
            "playerTrialScore": 25,
            "oppTrialScore": -25,
            "playerTotalScore": 382,
            "oppTotalScore": -951,
            "waitTime": 2067.036665240932,
            "responseTime": 1678833810471,
            "catchQuestion": "How many <b class=\"r\">red<\/b> marbles did you actually draw (before any changes)? ",
            "catchKey": -1,
            "catchResponse": -1,
            "catchTime": 1678833781683,
            "trialTime": 0
        },
        {
            "exptPart": "trial",
            "trialNumber": 82,
            "roleCurrent": "receiver",
            "marblesSampled": 100,
            "probRed": 0.5,
            "lambda": 5,
            "drawnRed": 58,
            "reportedRed": 52,
            "inferredRed": 72,
            "playerTrialScore": -14,
            "oppTrialScore": 0,
            "playerTotalScore": 368,
            "oppTotalScore": -951,
            "waitTime": 6720.258631005517,
            "responseTime": 1678833822903,
            "catchQuestion": "How many <b class=\"r\">red<\/b> marbles did you actually draw (before any changes)? ",
            "catchKey": -1,
            "catchResponse": -1,
            "catchTime": 1678833781683,
            "trialTime": 0
        },
        {
            "exptPart": "trial",
            "trialNumber": 83,
            "roleCurrent": "sender",
            "marblesSampled": 100,
            "probRed": 0.5,
            "lambda": 5,
            "drawnRed": 43,
            "reportedRed": 20,
            "inferredRed": 21,
            "playerTrialScore": 22,
            "oppTrialScore": -22,
            "playerTotalScore": 390,
            "oppTotalScore": -973,
            "waitTime": 2296.1399849650825,
            "responseTime": 1678833844823,
            "catchQuestion": "How many <b class=\"r\">red<\/b> marbles did you actually draw (before any changes)? ",
            "catchKey": -1,
            "catchResponse": -1,
            "catchTime": 1678833781683,
            "trialTime": 0
        },
        {
            "exptPart": "trial",
            "trialNumber": 84,
            "roleCurrent": "receiver",
            "marblesSampled": 100,
            "probRed": 0.5,
            "lambda": 5,
            "drawnRed": 33,
            "reportedRed": 32,
            "inferredRed": 56,
            "playerTrialScore": -23,
            "oppTrialScore": 0,
            "playerTotalScore": 367,
            "oppTotalScore": -973,
            "waitTime": 5676.663268303295,
            "responseTime": 1678833853652,
            "catchQuestion": "How many <b class=\"r\">red<\/b> marbles did you actually draw (before any changes)? ",
            "catchKey": -1,
            "catchResponse": -1,
            "catchTime": 1678833781683,
            "trialTime": 0
        },
        {
            "exptPart": "trial",
            "trialNumber": 85,
            "roleCurrent": "sender",
            "marblesSampled": 100,
            "probRed": 0.5,
            "lambda": 5,
            "drawnRed": 47,
            "reportedRed": 23,
            "inferredRed": 26,
            "playerTrialScore": 21,
            "oppTrialScore": -21,
            "playerTotalScore": 388,
            "oppTotalScore": -994,
            "waitTime": 2893.149872639673,
            "responseTime": 1678833875364,
            "catchQuestion": "How many <b class=\"r\">red<\/b> marbles did you actually draw (before any changes)? ",
            "catchKey": -1,
            "catchResponse": -1,
            "catchTime": 1678833875364,
            "trialTime": 0
        },
        {
            "exptPart": "trial",
            "trialNumber": 86,
            "roleCurrent": "receiver",
            "marblesSampled": 100,
            "probRed": 0.5,
            "lambda": 5,
            "drawnRed": 49,
            "reportedRed": 46,
            "inferredRed": 70,
            "playerTrialScore": -21,
            "oppTrialScore": 0,
            "playerTotalScore": 367,
            "oppTotalScore": -994,
            "waitTime": 5514.366531154916,
            "responseTime": 1678833884914,
            "catchQuestion": "How many <b class=\"r\">red<\/b> marbles did you actually draw (before any changes)? ",
            "catchKey": -1,
            "catchResponse": -1,
            "catchTime": 1678833875364,
            "trialTime": 0
        },
        {
            "exptPart": "trial",
            "trialNumber": 87,
            "roleCurrent": "sender",
            "marblesSampled": 100,
            "probRed": 0.5,
            "lambda": 5,
            "drawnRed": 55,
            "reportedRed": 26,
            "inferredRed": 32,
            "playerTrialScore": 23,
            "oppTrialScore": -23,
            "playerTotalScore": 390,
            "oppTotalScore": -1017,
            "waitTime": 3225.1349024473984,
            "responseTime": 1678833913243,
            "catchQuestion": "How many <b class=\"r\">red<\/b> marbles did you actually draw (before any changes)? ",
            "catchKey": -1,
            "catchResponse": -1,
            "catchTime": 1678833875364,
            "trialTime": 0
        },
        {
            "exptPart": "trial",
            "trialNumber": 88,
            "roleCurrent": "receiver",
            "marblesSampled": 100,
            "probRed": 0.5,
            "lambda": 5,
            "drawnRed": 53,
            "reportedRed": 48,
            "inferredRed": 63,
            "playerTrialScore": -10,
            "oppTrialScore": 0,
            "playerTotalScore": 380,
            "oppTotalScore": -1017,
            "waitTime": 5602.95976330882,
            "responseTime": 1678833922562,
            "catchQuestion": "How many <b class=\"r\">red<\/b> marbles did you actually draw (before any changes)? ",
            "catchKey": -1,
            "catchResponse": -1,
            "catchTime": 1678833875364,
            "trialTime": 0
        },
        {
            "exptPart": "trial",
            "trialNumber": 89,
            "roleCurrent": "sender",
            "marblesSampled": 100,
            "probRed": 0.5,
            "lambda": 5,
            "drawnRed": 48,
            "reportedRed": 14,
            "inferredRed": 18,
            "playerTrialScore": 30,
            "oppTrialScore": -30,
            "playerTotalScore": 410,
            "oppTotalScore": -1047,
            "waitTime": 2732.943119939692,
            "responseTime": 1678833948706,
            "catchQuestion": "How many <b class=\"r\">red<\/b> marbles did you actually draw (before any changes)? ",
            "catchKey": -1,
            "catchResponse": -1,
            "catchTime": 1678833875364,
            "trialTime": 0
        },
        {
            "exptPart": "trial",
            "trialNumber": 90,
            "roleCurrent": "receiver",
            "marblesSampled": 100,
            "probRed": 0.5,
            "lambda": 5,
            "drawnRed": 18,
            "reportedRed": 14,
            "inferredRed": 53,
            "playerTrialScore": -35,
            "oppTrialScore": 0,
            "playerTotalScore": 375,
            "oppTotalScore": -1047,
            "waitTime": 6757.991784092443,
            "responseTime": 1678833959934,
            "catchQuestion": "How many <b class=\"r\">red<\/b> marbles did your opponent report drawing? ",
            "catchKey": 14,
            "catchResponse": 14,
            "catchTime": 1678833959935,
            "trialTime": 0
        },
        {
            "exptPart": "trial",
            "trialNumber": 91,
            "roleCurrent": "sender",
            "marblesSampled": 100,
            "probRed": 0.5,
            "lambda": 5,
            "drawnRed": 64,
            "reportedRed": 8,
            "inferredRed": 13,
            "playerTrialScore": 51,
            "oppTrialScore": -51,
            "playerTotalScore": 426,
            "oppTotalScore": -1098,
            "waitTime": 2908.79140182263,
            "responseTime": 1678834004214,
            "catchQuestion": "How many <b class=\"r\">red<\/b> marbles did your opponent report drawing? ",
            "catchKey": -1,
            "catchResponse": -1,
            "catchTime": 1678833959935,
            "trialTime": 0
        },
        {
            "exptPart": "trial",
            "trialNumber": 92,
            "roleCurrent": "receiver",
            "marblesSampled": 100,
            "probRed": 0.5,
            "lambda": 5,
            "drawnRed": 42,
            "reportedRed": 35,
            "inferredRed": 56,
            "playerTrialScore": -14,
            "oppTrialScore": 0,
            "playerTotalScore": 412,
            "oppTotalScore": -1098,
            "waitTime": 5134.660026462781,
            "responseTime": 1678834012610,
            "catchQuestion": "How many <b class=\"r\">red<\/b> marbles did your opponent report drawing? ",
            "catchKey": -1,
            "catchResponse": -1,
            "catchTime": 1678833959935,
            "trialTime": 0
        },
        {
            "exptPart": "trial",
            "trialNumber": 93,
            "roleCurrent": "sender",
            "marblesSampled": 100,
            "probRed": 0.5,
            "lambda": 5,
            "drawnRed": 49,
            "reportedRed": 26,
            "inferredRed": 29,
            "playerTrialScore": 20,
            "oppTrialScore": -20,
            "playerTotalScore": 432,
            "oppTotalScore": -1118,
            "waitTime": 2227.250727276295,
            "responseTime": 1678834034749,
            "catchQuestion": "How many <b class=\"r\">red<\/b> marbles did your opponent report drawing? ",
            "catchKey": -1,
            "catchResponse": -1,
            "catchTime": 1678833959935,
            "trialTime": 0
        },
        {
            "exptPart": "trial",
            "trialNumber": 94,
            "roleCurrent": "receiver",
            "marblesSampled": 100,
            "probRed": 0.5,
            "lambda": 5,
            "drawnRed": 42,
            "reportedRed": 38,
            "inferredRed": 59,
            "playerTrialScore": -17,
            "oppTrialScore": 0,
            "playerTotalScore": 415,
            "oppTotalScore": -1118,
            "waitTime": 7225.055275445948,
            "responseTime": 1678834046078,
            "catchQuestion": "How many <b class=\"r\">red<\/b> marbles did your opponent report drawing? ",
            "catchKey": -1,
            "catchResponse": -1,
            "catchTime": 1678833959935,
            "trialTime": 0
        },
        {
            "exptPart": "trial",
            "trialNumber": 95,
            "roleCurrent": "sender",
            "marblesSampled": 100,
            "probRed": 0.5,
            "lambda": 5,
            "drawnRed": 53,
            "reportedRed": 24,
            "inferredRed": 33,
            "playerTrialScore": 20,
            "oppTrialScore": -20,
            "playerTotalScore": 435,
            "oppTotalScore": -1138,
            "waitTime": 2551.7829291860266,
            "responseTime": 1678834071966,
            "catchQuestion": "How many <b class=\"r\">red<\/b> marbles did your opponent report drawing? ",
            "catchKey": -1,
            "catchResponse": -1,
            "catchTime": 1678834071966,
            "trialTime": 0
        },
        {
            "exptPart": "trial",
            "trialNumber": 96,
            "roleCurrent": "receiver",
            "marblesSampled": 100,
            "probRed": 0.5,
            "lambda": 5,
            "drawnRed": 79,
            "reportedRed": 76,
            "inferredRed": 85,
            "playerTrialScore": -6,
            "oppTrialScore": 0,
            "playerTotalScore": 429,
            "oppTotalScore": -1138,
            "waitTime": 6955.742486021933,
            "responseTime": 1678834086211,
            "catchQuestion": "How many <b class=\"r\">red<\/b> marbles did your opponent report drawing? ",
            "catchKey": -1,
            "catchResponse": -1,
            "catchTime": 1678834071966,
            "trialTime": 0
        },
        {
            "exptPart": "trial",
            "trialNumber": 97,
            "roleCurrent": "sender",
            "marblesSampled": 100,
            "probRed": 0.5,
            "lambda": 5,
            "drawnRed": 62,
            "reportedRed": 26,
            "inferredRed": 27,
            "playerTrialScore": 35,
            "oppTrialScore": -35,
            "playerTotalScore": 464,
            "oppTotalScore": -1173,
            "waitTime": 2800.819674779066,
            "responseTime": 1678834114285,
            "catchQuestion": "How many <b class=\"r\">red<\/b> marbles did your opponent report drawing? ",
            "catchKey": -1,
            "catchResponse": -1,
            "catchTime": 1678834071966,
            "trialTime": 0
        },
        {
            "exptPart": "trial",
            "trialNumber": 98,
            "roleCurrent": "receiver",
            "marblesSampled": 100,
            "probRed": 0.5,
            "lambda": 5,
            "drawnRed": 22,
            "reportedRed": 17,
            "inferredRed": 40,
            "playerTrialScore": -18,
            "oppTrialScore": 0,
            "playerTotalScore": 446,
            "oppTotalScore": -1173,
            "waitTime": 5596.8877057084455,
            "responseTime": 1678834122618,
            "catchQuestion": "How many <b class=\"r\">red<\/b> marbles did your opponent report drawing? ",
            "catchKey": -1,
            "catchResponse": -1,
            "catchTime": 1678834071966,
            "trialTime": 0
        },
        {
            "exptPart": "trial",
            "trialNumber": 99,
            "roleCurrent": "sender",
            "marblesSampled": 100,
            "probRed": 0.5,
            "lambda": 5,
            "drawnRed": 40,
            "reportedRed": 13,
            "inferredRed": 19,
            "playerTrialScore": 21,
            "oppTrialScore": -21,
            "playerTotalScore": 467,
            "oppTotalScore": -1194,
            "waitTime": 3202.638224900157,
            "responseTime": 1678834149266,
            "catchQuestion": "How many <b class=\"r\">red<\/b> marbles did your opponent report drawing? ",
            "catchKey": -1,
            "catchResponse": -1,
            "catchTime": 1678834071966,
            "trialTime": 0
        },
        {
            "exptPart": "trial",
            "trialNumber": 100,
            "roleCurrent": "receiver",
            "marblesSampled": 100,
            "probRed": 0.5,
            "lambda": 5,
            "drawnRed": 39,
            "reportedRed": 34,
            "inferredRed": 63,
            "playerTrialScore": -24,
            "oppTrialScore": 0,
            "playerTotalScore": 443,
            "oppTotalScore": -1194,
            "waitTime": 6656.734373633002,
            "responseTime": 1678834159016,
            "catchQuestion": "How many <b class=\"r\">red<\/b> marbles did your opponent report drawing? ",
            "catchKey": -1,
            "catchResponse": -1,
            "catchTime": 1678834159016,
            "trialTime": 0
        }
    ]
}