{
    "client": {
        "type": "sona",
        "experiment_id": 2228,
        "credit_token": "b315147ae43241ea9c65086cb510cfb7",
        "survey_code": "47920",
        "sid": "sona-47920",
        "window": {
            "width": 1280,
            "height": 569
        },
        "screen": {
            "width": 1280,
            "height": 720
        },
        "userAgent": "Mozilla\/5.0 (Windows NT 10.0; Win64; x64) AppleWebKit\/537.36 (KHTML, like Gecko) Chrome\/111.0.0.0 Safari\/537.36",
        "score": 0,
        "bonus": 0
    },
    "expt": {
        "saveURL": "submit.simple.php",
        "trials": 100,
        "practiceTrials": 2,
        "marblesSampled": 100,
        "probRed": 0.5,
        "lambdaAI": 5,
        "roleFirst": "sender",
        "roles": [
            "sender",
            "receiver"
        ],
        "cost": "linear",
        "goal": "under",
        "goalInstructTxt": "above",
        "catchTrials": [
            43,
            77,
            35,
            33,
            79,
            20,
            95,
            50,
            66,
            61
        ],
        "scoreTotal": {
            "player": -148,
            "opp": -714
        },
        "sona": {
            "experiment_id": 2228,
            "credit_token": "b315147ae43241ea9c65086cb510cfb7"
        },
        "pilot": false,
        "debug": false
    },
    "trials": [
        {
            "exptPart": "practice",
            "trialNumber": 1,
            "roleCurrent": "sender",
            "marblesSampled": 100,
            "probRed": 0.5,
            "lambda": 5,
            "drawnRed": 50,
            "reportedRed": 54,
            "inferredRed": 56,
            "playerTrialScore": 0,
            "oppTrialScore": -6,
            "playerTotalScore": 0,
            "oppTotalScore": -6,
            "waitTime": 3249.951089396728,
            "responseTime": 1678831669050,
            "catchQuestion": "How many <b class=\"r\">red<\/b> marbles did you actually draw (before any changes)? ",
            "catchKey": 50,
            "catchResponse": 50,
            "catchTime": 1678831669050,
            "trialTime": 0
        },
        {
            "exptPart": "practice",
            "trialNumber": 2,
            "roleCurrent": "receiver",
            "marblesSampled": 100,
            "probRed": 0.5,
            "lambda": 5,
            "drawnRed": 62,
            "reportedRed": 57,
            "inferredRed": 60,
            "playerTrialScore": -2,
            "oppTrialScore": 2,
            "playerTotalScore": -2,
            "oppTotalScore": -4,
            "waitTime": 5460.769005628472,
            "responseTime": 1678831710028,
            "catchQuestion": "How many <b class=\"r\">red<\/b> marbles did your opponent report drawing? ",
            "catchKey": 57,
            "catchResponse": 57,
            "catchTime": 1678831710028,
            "trialTime": 0
        },
        {
            "exptPart": "trial",
            "trialNumber": 1,
            "roleCurrent": "sender",
            "marblesSampled": 100,
            "probRed": 0.5,
            "lambda": 5,
            "drawnRed": 50,
            "reportedRed": 37,
            "inferredRed": 42,
            "playerTrialScore": 8,
            "oppTrialScore": -8,
            "playerTotalScore": 8,
            "oppTotalScore": -8,
            "waitTime": 2279.464885605635,
            "responseTime": 1678831799277,
            "catchQuestion": "How many <b class=\"r\">red<\/b> marbles did your opponent report drawing? ",
            "catchKey": -1,
            "catchResponse": -1,
            "catchTime": 1678831710028,
            "trialTime": 0
        },
        {
            "exptPart": "trial",
            "trialNumber": 2,
            "roleCurrent": "receiver",
            "marblesSampled": 100,
            "probRed": 0.5,
            "lambda": 5,
            "drawnRed": 7,
            "reportedRed": 4,
            "inferredRed": 67,
            "playerTrialScore": -60,
            "oppTrialScore": 0,
            "playerTotalScore": -52,
            "oppTotalScore": -8,
            "waitTime": 5250.471030027931,
            "responseTime": 1678831818095,
            "catchQuestion": "How many <b class=\"r\">red<\/b> marbles did your opponent report drawing? ",
            "catchKey": -1,
            "catchResponse": -1,
            "catchTime": 1678831710028,
            "trialTime": 0
        },
        {
            "exptPart": "trial",
            "trialNumber": 3,
            "roleCurrent": "sender",
            "marblesSampled": 100,
            "probRed": 0.5,
            "lambda": 5,
            "drawnRed": 81,
            "reportedRed": 81,
            "inferredRed": 88,
            "playerTrialScore": 0,
            "oppTrialScore": -7,
            "playerTotalScore": -52,
            "oppTotalScore": -15,
            "waitTime": 2079.8976598593863,
            "responseTime": 1678831843411,
            "catchQuestion": "How many <b class=\"r\">red<\/b> marbles did your opponent report drawing? ",
            "catchKey": -1,
            "catchResponse": -1,
            "catchTime": 1678831710028,
            "trialTime": 0
        },
        {
            "exptPart": "trial",
            "trialNumber": 4,
            "roleCurrent": "receiver",
            "marblesSampled": 100,
            "probRed": 0.5,
            "lambda": 5,
            "drawnRed": 45,
            "reportedRed": 42,
            "inferredRed": 89,
            "playerTrialScore": -44,
            "oppTrialScore": 0,
            "playerTotalScore": -96,
            "oppTotalScore": -15,
            "waitTime": 7314.665114895392,
            "responseTime": 1678831866360,
            "catchQuestion": "How many <b class=\"r\">red<\/b> marbles did your opponent report drawing? ",
            "catchKey": -1,
            "catchResponse": -1,
            "catchTime": 1678831710028,
            "trialTime": 0
        },
        {
            "exptPart": "trial",
            "trialNumber": 5,
            "roleCurrent": "sender",
            "marblesSampled": 100,
            "probRed": 0.5,
            "lambda": 5,
            "drawnRed": 72,
            "reportedRed": 80,
            "inferredRed": 84,
            "playerTrialScore": 0,
            "oppTrialScore": -12,
            "playerTotalScore": -96,
            "oppTotalScore": -27,
            "waitTime": 2930.958575703157,
            "responseTime": 1678831906048,
            "catchQuestion": "How many <b class=\"r\">red<\/b> marbles did your opponent report drawing? ",
            "catchKey": -1,
            "catchResponse": -1,
            "catchTime": 1678831906048,
            "trialTime": 0
        },
        {
            "exptPart": "trial",
            "trialNumber": 6,
            "roleCurrent": "receiver",
            "marblesSampled": 100,
            "probRed": 0.5,
            "lambda": 5,
            "drawnRed": 79,
            "reportedRed": 73,
            "inferredRed": 84,
            "playerTrialScore": -5,
            "oppTrialScore": 0,
            "playerTotalScore": -101,
            "oppTotalScore": -27,
            "waitTime": 6144.861796902727,
            "responseTime": 1678831926080,
            "catchQuestion": "How many <b class=\"r\">red<\/b> marbles did your opponent report drawing? ",
            "catchKey": -1,
            "catchResponse": -1,
            "catchTime": 1678831906048,
            "trialTime": 0
        },
        {
            "exptPart": "trial",
            "trialNumber": 7,
            "roleCurrent": "sender",
            "marblesSampled": 100,
            "probRed": 0.5,
            "lambda": 5,
            "drawnRed": 13,
            "reportedRed": 24,
            "inferredRed": 32,
            "playerTrialScore": 0,
            "oppTrialScore": -19,
            "playerTotalScore": -101,
            "oppTotalScore": -46,
            "waitTime": 2547.4315513860547,
            "responseTime": 1678831965393,
            "catchQuestion": "How many <b class=\"r\">red<\/b> marbles did your opponent report drawing? ",
            "catchKey": -1,
            "catchResponse": -1,
            "catchTime": 1678831906048,
            "trialTime": 0
        },
        {
            "exptPart": "trial",
            "trialNumber": 8,
            "roleCurrent": "receiver",
            "marblesSampled": 100,
            "probRed": 0.5,
            "lambda": 5,
            "drawnRed": 14,
            "reportedRed": 12,
            "inferredRed": 38,
            "playerTrialScore": -24,
            "oppTrialScore": 0,
            "playerTotalScore": -125,
            "oppTotalScore": -46,
            "waitTime": 5186.260889943125,
            "responseTime": 1678831979201,
            "catchQuestion": "How many <b class=\"r\">red<\/b> marbles did your opponent report drawing? ",
            "catchKey": -1,
            "catchResponse": -1,
            "catchTime": 1678831906048,
            "trialTime": 0
        },
        {
            "exptPart": "trial",
            "trialNumber": 9,
            "roleCurrent": "sender",
            "marblesSampled": 100,
            "probRed": 0.5,
            "lambda": 5,
            "drawnRed": 74,
            "reportedRed": 34,
            "inferredRed": 38,
            "playerTrialScore": 36,
            "oppTrialScore": -36,
            "playerTotalScore": -89,
            "oppTotalScore": -82,
            "waitTime": 2568.5794690845214,
            "responseTime": 1678832212923,
            "catchQuestion": "How many <b class=\"r\">red<\/b> marbles did your opponent report drawing? ",
            "catchKey": -1,
            "catchResponse": -1,
            "catchTime": 1678831906048,
            "trialTime": 0
        },
        {
            "exptPart": "trial",
            "trialNumber": 10,
            "roleCurrent": "receiver",
            "marblesSampled": 100,
            "probRed": 0.5,
            "lambda": 5,
            "drawnRed": 60,
            "reportedRed": 58,
            "inferredRed": 80,
            "playerTrialScore": -20,
            "oppTrialScore": 0,
            "playerTotalScore": -109,
            "oppTotalScore": -82,
            "waitTime": 6884.5950791702735,
            "responseTime": 1678832231456,
            "catchQuestion": "How many <b class=\"r\">red<\/b> marbles did your opponent report drawing? ",
            "catchKey": -1,
            "catchResponse": -1,
            "catchTime": 1678832231456,
            "trialTime": 0
        },
        {
            "exptPart": "trial",
            "trialNumber": 11,
            "roleCurrent": "sender",
            "marblesSampled": 100,
            "probRed": 0.5,
            "lambda": 5,
            "drawnRed": 71,
            "reportedRed": 36,
            "inferredRed": 39,
            "playerTrialScore": 32,
            "oppTrialScore": -32,
            "playerTotalScore": -77,
            "oppTotalScore": -114,
            "waitTime": 3064.6396508988955,
            "responseTime": 1678832432176,
            "catchQuestion": "How many <b class=\"r\">red<\/b> marbles did your opponent report drawing? ",
            "catchKey": -1,
            "catchResponse": -1,
            "catchTime": 1678832231456,
            "trialTime": 0
        },
        {
            "exptPart": "trial",
            "trialNumber": 12,
            "roleCurrent": "receiver",
            "marblesSampled": 100,
            "probRed": 0.5,
            "lambda": 5,
            "drawnRed": 35,
            "reportedRed": 29,
            "inferredRed": 47,
            "playerTrialScore": -12,
            "oppTrialScore": 0,
            "playerTotalScore": -89,
            "oppTotalScore": -114,
            "waitTime": 6067.471728047543,
            "responseTime": 1678832450611,
            "catchQuestion": "How many <b class=\"r\">red<\/b> marbles did your opponent report drawing? ",
            "catchKey": -1,
            "catchResponse": -1,
            "catchTime": 1678832231456,
            "trialTime": 0
        },
        {
            "exptPart": "trial",
            "trialNumber": 13,
            "roleCurrent": "sender",
            "marblesSampled": 100,
            "probRed": 0.5,
            "lambda": 5,
            "drawnRed": 42,
            "reportedRed": 14,
            "inferredRed": 17,
            "playerTrialScore": 25,
            "oppTrialScore": -25,
            "playerTotalScore": -64,
            "oppTotalScore": -139,
            "waitTime": 2511.47799500197,
            "responseTime": 1678832598082,
            "catchQuestion": "How many <b class=\"r\">red<\/b> marbles did your opponent report drawing? ",
            "catchKey": -1,
            "catchResponse": -1,
            "catchTime": 1678832231456,
            "trialTime": 0
        },
        {
            "exptPart": "trial",
            "trialNumber": 14,
            "roleCurrent": "receiver",
            "marblesSampled": 100,
            "probRed": 0.5,
            "lambda": 5,
            "drawnRed": 68,
            "reportedRed": 63,
            "inferredRed": 74,
            "playerTrialScore": -6,
            "oppTrialScore": 0,
            "playerTotalScore": -70,
            "oppTotalScore": -139,
            "waitTime": 7350.452582504995,
            "responseTime": 1678832612280,
            "catchQuestion": "How many <b class=\"r\">red<\/b> marbles did your opponent report drawing? ",
            "catchKey": -1,
            "catchResponse": -1,
            "catchTime": 1678832231456,
            "trialTime": 0
        },
        {
            "exptPart": "trial",
            "trialNumber": 15,
            "roleCurrent": "sender",
            "marblesSampled": 100,
            "probRed": 0.5,
            "lambda": 5,
            "drawnRed": 63,
            "reportedRed": 72,
            "inferredRed": 74,
            "playerTrialScore": 0,
            "oppTrialScore": -11,
            "playerTotalScore": -70,
            "oppTotalScore": -150,
            "waitTime": 2598.0406354755332,
            "responseTime": 1678832650680,
            "catchQuestion": "How many <b class=\"r\">red<\/b> marbles did your opponent report drawing? ",
            "catchKey": -1,
            "catchResponse": -1,
            "catchTime": 1678832650680,
            "trialTime": 0
        },
        {
            "exptPart": "trial",
            "trialNumber": 16,
            "roleCurrent": "receiver",
            "marblesSampled": 100,
            "probRed": 0.5,
            "lambda": 5,
            "drawnRed": 50,
            "reportedRed": 46,
            "inferredRed": 63,
            "playerTrialScore": -13,
            "oppTrialScore": 0,
            "playerTotalScore": -83,
            "oppTotalScore": -150,
            "waitTime": 5158.1024109347745,
            "responseTime": 1678832670349,
            "catchQuestion": "How many <b class=\"r\">red<\/b> marbles did your opponent report drawing? ",
            "catchKey": -1,
            "catchResponse": -1,
            "catchTime": 1678832650680,
            "trialTime": 0
        },
        {
            "exptPart": "trial",
            "trialNumber": 17,
            "roleCurrent": "sender",
            "marblesSampled": 100,
            "probRed": 0.5,
            "lambda": 5,
            "drawnRed": 68,
            "reportedRed": 38,
            "inferredRed": 44,
            "playerTrialScore": 24,
            "oppTrialScore": -24,
            "playerTotalScore": -59,
            "oppTotalScore": -174,
            "waitTime": 2131.7887570587854,
            "responseTime": 1678832811028,
            "catchQuestion": "How many <b class=\"r\">red<\/b> marbles did your opponent report drawing? ",
            "catchKey": -1,
            "catchResponse": -1,
            "catchTime": 1678832650680,
            "trialTime": 0
        },
        {
            "exptPart": "trial",
            "trialNumber": 18,
            "roleCurrent": "receiver",
            "marblesSampled": 100,
            "probRed": 0.5,
            "lambda": 5,
            "drawnRed": 67,
            "reportedRed": 66,
            "inferredRed": 87,
            "playerTrialScore": -20,
            "oppTrialScore": 0,
            "playerTotalScore": -79,
            "oppTotalScore": -174,
            "waitTime": 6663.214212912177,
            "responseTime": 1678832824276,
            "catchQuestion": "How many <b class=\"r\">red<\/b> marbles did your opponent report drawing? ",
            "catchKey": -1,
            "catchResponse": -1,
            "catchTime": 1678832650680,
            "trialTime": 0
        },
        {
            "exptPart": "trial",
            "trialNumber": 19,
            "roleCurrent": "sender",
            "marblesSampled": 100,
            "probRed": 0.5,
            "lambda": 5,
            "drawnRed": 37,
            "reportedRed": 15,
            "inferredRed": 21,
            "playerTrialScore": 16,
            "oppTrialScore": -16,
            "playerTotalScore": -63,
            "oppTotalScore": -190,
            "waitTime": 2517.503244075964,
            "responseTime": 1678832917101,
            "catchQuestion": "How many <b class=\"r\">red<\/b> marbles did your opponent report drawing? ",
            "catchKey": -1,
            "catchResponse": -1,
            "catchTime": 1678832650680,
            "trialTime": 0
        },
        {
            "exptPart": "trial",
            "trialNumber": 20,
            "roleCurrent": "receiver",
            "marblesSampled": 100,
            "probRed": 0.5,
            "lambda": 5,
            "drawnRed": 40,
            "reportedRed": 36,
            "inferredRed": 53,
            "playerTrialScore": -13,
            "oppTrialScore": 0,
            "playerTotalScore": -76,
            "oppTotalScore": -190,
            "waitTime": 6614.197704303941,
            "responseTime": 1678832929614,
            "catchQuestion": "How many <b class=\"r\">red<\/b> marbles did your opponent report drawing? ",
            "catchKey": -1,
            "catchResponse": -1,
            "catchTime": 1678832929614,
            "trialTime": 0
        },
        {
            "exptPart": "trial",
            "trialNumber": 21,
            "roleCurrent": "sender",
            "marblesSampled": 100,
            "probRed": 0.5,
            "lambda": 5,
            "drawnRed": 61,
            "reportedRed": 29,
            "inferredRed": 34,
            "playerTrialScore": 27,
            "oppTrialScore": -27,
            "playerTotalScore": -49,
            "oppTotalScore": -217,
            "waitTime": 2164.5145886560204,
            "responseTime": 1678833077781,
            "catchQuestion": "How many <b class=\"r\">red<\/b> marbles did you actually draw (before any changes)? ",
            "catchKey": 61,
            "catchResponse": 61,
            "catchTime": 1678833077782,
            "trialTime": 0
        },
        {
            "exptPart": "trial",
            "trialNumber": 22,
            "roleCurrent": "receiver",
            "marblesSampled": 100,
            "probRed": 0.5,
            "lambda": 5,
            "drawnRed": 33,
            "reportedRed": 27,
            "inferredRed": 43,
            "playerTrialScore": -10,
            "oppTrialScore": 0,
            "playerTotalScore": -59,
            "oppTotalScore": -217,
            "waitTime": 6649.337121275743,
            "responseTime": 1678833103247,
            "catchQuestion": "How many <b class=\"r\">red<\/b> marbles did you actually draw (before any changes)? ",
            "catchKey": -1,
            "catchResponse": -1,
            "catchTime": 1678833077782,
            "trialTime": 0
        },
        {
            "exptPart": "trial",
            "trialNumber": 23,
            "roleCurrent": "sender",
            "marblesSampled": 100,
            "probRed": 0.5,
            "lambda": 5,
            "drawnRed": 68,
            "reportedRed": 35,
            "inferredRed": 35,
            "playerTrialScore": 33,
            "oppTrialScore": -33,
            "playerTotalScore": -26,
            "oppTotalScore": -250,
            "waitTime": 3061.0528321493643,
            "responseTime": 1678833255396,
            "catchQuestion": "How many <b class=\"r\">red<\/b> marbles did you actually draw (before any changes)? ",
            "catchKey": -1,
            "catchResponse": -1,
            "catchTime": 1678833077782,
            "trialTime": 0
        },
        {
            "exptPart": "trial",
            "trialNumber": 24,
            "roleCurrent": "receiver",
            "marblesSampled": 100,
            "probRed": 0.5,
            "lambda": 5,
            "drawnRed": 61,
            "reportedRed": 52,
            "inferredRed": 72,
            "playerTrialScore": -11,
            "oppTrialScore": 0,
            "playerTotalScore": -37,
            "oppTotalScore": -250,
            "waitTime": 6731.020587480205,
            "responseTime": 1678833283089,
            "catchQuestion": "How many <b class=\"r\">red<\/b> marbles did you actually draw (before any changes)? ",
            "catchKey": -1,
            "catchResponse": -1,
            "catchTime": 1678833077782,
            "trialTime": 0
        },
        {
            "exptPart": "trial",
            "trialNumber": 25,
            "roleCurrent": "sender",
            "marblesSampled": 100,
            "probRed": 0.5,
            "lambda": 5,
            "drawnRed": 37,
            "reportedRed": 4,
            "inferredRed": 10,
            "playerTrialScore": 27,
            "oppTrialScore": -27,
            "playerTotalScore": -10,
            "oppTotalScore": -277,
            "waitTime": 2793.7910618950955,
            "responseTime": 1678833462316,
            "catchQuestion": "How many <b class=\"r\">red<\/b> marbles did you actually draw (before any changes)? ",
            "catchKey": -1,
            "catchResponse": -1,
            "catchTime": 1678833462317,
            "trialTime": 0
        },
        {
            "exptPart": "trial",
            "trialNumber": 26,
            "roleCurrent": "receiver",
            "marblesSampled": 100,
            "probRed": 0.5,
            "lambda": 5,
            "drawnRed": 89,
            "reportedRed": 81,
            "inferredRed": 93,
            "playerTrialScore": -4,
            "oppTrialScore": 0,
            "playerTotalScore": -14,
            "oppTotalScore": -277,
            "waitTime": 6112.098876527556,
            "responseTime": 1678833481366,
            "catchQuestion": "How many <b class=\"r\">red<\/b> marbles did you actually draw (before any changes)? ",
            "catchKey": -1,
            "catchResponse": -1,
            "catchTime": 1678833462317,
            "trialTime": 0
        },
        {
            "exptPart": "trial",
            "trialNumber": 27,
            "roleCurrent": "sender",
            "marblesSampled": 100,
            "probRed": 0.5,
            "lambda": 5,
            "drawnRed": 63,
            "reportedRed": 37,
            "inferredRed": 45,
            "playerTrialScore": 18,
            "oppTrialScore": -18,
            "playerTotalScore": 4,
            "oppTotalScore": -295,
            "waitTime": 2593.994282925037,
            "responseTime": 1678833590211,
            "catchQuestion": "How many <b class=\"r\">red<\/b> marbles did you actually draw (before any changes)? ",
            "catchKey": -1,
            "catchResponse": -1,
            "catchTime": 1678833462317,
            "trialTime": 0
        },
        {
            "exptPart": "trial",
            "trialNumber": 28,
            "roleCurrent": "receiver",
            "marblesSampled": 100,
            "probRed": 0.5,
            "lambda": 5,
            "drawnRed": 58,
            "reportedRed": 55,
            "inferredRed": 67,
            "playerTrialScore": -9,
            "oppTrialScore": 0,
            "playerTotalScore": -5,
            "oppTotalScore": -295,
            "waitTime": 6702.798751254543,
            "responseTime": 1678833605565,
            "catchQuestion": "How many <b class=\"r\">red<\/b> marbles did you actually draw (before any changes)? ",
            "catchKey": -1,
            "catchResponse": -1,
            "catchTime": 1678833462317,
            "trialTime": 0
        },
        {
            "exptPart": "trial",
            "trialNumber": 29,
            "roleCurrent": "sender",
            "marblesSampled": 100,
            "probRed": 0.5,
            "lambda": 5,
            "drawnRed": 22,
            "reportedRed": 1,
            "inferredRed": 4,
            "playerTrialScore": 18,
            "oppTrialScore": -18,
            "playerTotalScore": 13,
            "oppTotalScore": -313,
            "waitTime": 2073.635458343828,
            "responseTime": 1678833688445,
            "catchQuestion": "How many <b class=\"r\">red<\/b> marbles did you actually draw (before any changes)? ",
            "catchKey": -1,
            "catchResponse": -1,
            "catchTime": 1678833462317,
            "trialTime": 0
        },
        {
            "exptPart": "trial",
            "trialNumber": 30,
            "roleCurrent": "receiver",
            "marblesSampled": 100,
            "probRed": 0.5,
            "lambda": 5,
            "drawnRed": 87,
            "reportedRed": 82,
            "inferredRed": 94,
            "playerTrialScore": -7,
            "oppTrialScore": 0,
            "playerTotalScore": 6,
            "oppTotalScore": -313,
            "waitTime": 5491.0693668971135,
            "responseTime": 1678833704127,
            "catchQuestion": "How many <b class=\"r\">red<\/b> marbles did you actually draw (before any changes)? ",
            "catchKey": -1,
            "catchResponse": -1,
            "catchTime": 1678833704128,
            "trialTime": 0
        },
        {
            "exptPart": "trial",
            "trialNumber": 31,
            "roleCurrent": "sender",
            "marblesSampled": 100,
            "probRed": 0.5,
            "lambda": 5,
            "drawnRed": 54,
            "reportedRed": 28,
            "inferredRed": 30,
            "playerTrialScore": 24,
            "oppTrialScore": -24,
            "playerTotalScore": 30,
            "oppTotalScore": -337,
            "waitTime": 2583.284630893063,
            "responseTime": 1678835882024,
            "catchQuestion": "How many <b class=\"r\">red<\/b> marbles did you actually draw (before any changes)? ",
            "catchKey": -1,
            "catchResponse": -1,
            "catchTime": 1678833704128,
            "trialTime": 0
        },
        {
            "exptPart": "trial",
            "trialNumber": 32,
            "roleCurrent": "receiver",
            "marblesSampled": 100,
            "probRed": 0.5,
            "lambda": 5,
            "drawnRed": 62,
            "reportedRed": 58,
            "inferredRed": 76,
            "playerTrialScore": -14,
            "oppTrialScore": 0,
            "playerTotalScore": 16,
            "oppTotalScore": -337,
            "waitTime": 6036.050414120813,
            "responseTime": 1678835898885,
            "catchQuestion": "How many <b class=\"r\">red<\/b> marbles did you actually draw (before any changes)? ",
            "catchKey": -1,
            "catchResponse": -1,
            "catchTime": 1678833704128,
            "trialTime": 0
        },
        {
            "exptPart": "trial",
            "trialNumber": 33,
            "roleCurrent": "sender",
            "marblesSampled": 100,
            "probRed": 0.5,
            "lambda": 5,
            "drawnRed": 19,
            "reportedRed": -1,
            "inferredRed": 0,
            "playerTrialScore": 19,
            "oppTrialScore": -19,
            "playerTotalScore": 35,
            "oppTotalScore": -356,
            "waitTime": 2546.569282171536,
            "responseTime": 1678836223199,
            "catchQuestion": "How many <b class=\"r\">red<\/b> marbles did you actually draw (before any changes)? ",
            "catchKey": -1,
            "catchResponse": -1,
            "catchTime": 1678833704128,
            "trialTime": 0
        },
        {
            "exptPart": "trial",
            "trialNumber": 34,
            "roleCurrent": "receiver",
            "marblesSampled": 100,
            "probRed": 0.5,
            "lambda": 5,
            "drawnRed": 74,
            "reportedRed": 71,
            "inferredRed": 92,
            "playerTrialScore": -18,
            "oppTrialScore": 0,
            "playerTotalScore": 17,
            "oppTotalScore": -356,
            "waitTime": 5814.30950621314,
            "responseTime": 1678836316055,
            "catchQuestion": "How many <b class=\"r\">red<\/b> marbles did your opponent report drawing? ",
            "catchKey": 71,
            "catchResponse": 71,
            "catchTime": 1678836316055,
            "trialTime": 0
        },
        {
            "exptPart": "trial",
            "trialNumber": 35,
            "roleCurrent": "sender",
            "marblesSampled": 100,
            "probRed": 0.5,
            "lambda": 5,
            "drawnRed": 55,
            "reportedRed": 30,
            "inferredRed": 33,
            "playerTrialScore": 22,
            "oppTrialScore": -22,
            "playerTotalScore": 39,
            "oppTotalScore": -378,
            "waitTime": 2680.337032806641,
            "responseTime": 1678836446740,
            "catchQuestion": "How many <b class=\"r\">red<\/b> marbles did your opponent report drawing? ",
            "catchKey": -1,
            "catchResponse": -1,
            "catchTime": 1678836446740,
            "trialTime": 0
        },
        {
            "exptPart": "trial",
            "trialNumber": 36,
            "roleCurrent": "receiver",
            "marblesSampled": 100,
            "probRed": 0.5,
            "lambda": 5,
            "drawnRed": 47,
            "reportedRed": 36,
            "inferredRed": 53,
            "playerTrialScore": -6,
            "oppTrialScore": 0,
            "playerTotalScore": 33,
            "oppTotalScore": -378,
            "waitTime": 6158.9168090218955,
            "responseTime": 1678836467117,
            "catchQuestion": "How many <b class=\"r\">red<\/b> marbles did your opponent report drawing? ",
            "catchKey": 36,
            "catchResponse": 36,
            "catchTime": 1678836467117,
            "trialTime": 0
        },
        {
            "exptPart": "trial",
            "trialNumber": 37,
            "roleCurrent": "sender",
            "marblesSampled": 100,
            "probRed": 0.5,
            "lambda": 5,
            "drawnRed": 41,
            "reportedRed": 19,
            "inferredRed": 28,
            "playerTrialScore": 13,
            "oppTrialScore": -13,
            "playerTotalScore": 46,
            "oppTotalScore": -391,
            "waitTime": 2963.7824927541888,
            "responseTime": 1678836567056,
            "catchQuestion": "How many <b class=\"r\">red<\/b> marbles did your opponent report drawing? ",
            "catchKey": -1,
            "catchResponse": -1,
            "catchTime": 1678836467117,
            "trialTime": 0
        },
        {
            "exptPart": "trial",
            "trialNumber": 38,
            "roleCurrent": "receiver",
            "marblesSampled": 100,
            "probRed": 0.5,
            "lambda": 5,
            "drawnRed": 62,
            "reportedRed": 55,
            "inferredRed": 73,
            "playerTrialScore": -11,
            "oppTrialScore": 0,
            "playerTotalScore": 35,
            "oppTotalScore": -391,
            "waitTime": 6193.690991239528,
            "responseTime": 1678836579538,
            "catchQuestion": "How many <b class=\"r\">red<\/b> marbles did your opponent report drawing? ",
            "catchKey": -1,
            "catchResponse": -1,
            "catchTime": 1678836467117,
            "trialTime": 0
        },
        {
            "exptPart": "trial",
            "trialNumber": 39,
            "roleCurrent": "sender",
            "marblesSampled": 100,
            "probRed": 0.5,
            "lambda": 5,
            "drawnRed": 61,
            "reportedRed": 39,
            "inferredRed": 45,
            "playerTrialScore": 16,
            "oppTrialScore": -16,
            "playerTotalScore": 51,
            "oppTotalScore": -407,
            "waitTime": 2673.5592909737106,
            "responseTime": 1678836670941,
            "catchQuestion": "How many <b class=\"r\">red<\/b> marbles did your opponent report drawing? ",
            "catchKey": -1,
            "catchResponse": -1,
            "catchTime": 1678836467117,
            "trialTime": 0
        },
        {
            "exptPart": "trial",
            "trialNumber": 40,
            "roleCurrent": "receiver",
            "marblesSampled": 100,
            "probRed": 0.5,
            "lambda": 5,
            "drawnRed": 44,
            "reportedRed": 40,
            "inferredRed": 56,
            "playerTrialScore": -12,
            "oppTrialScore": 0,
            "playerTotalScore": 39,
            "oppTotalScore": -407,
            "waitTime": 6201.030639212011,
            "responseTime": 1678836688191,
            "catchQuestion": "How many <b class=\"r\">red<\/b> marbles did your opponent report drawing? ",
            "catchKey": -1,
            "catchResponse": -1,
            "catchTime": 1678836688192,
            "trialTime": 0
        },
        {
            "exptPart": "trial",
            "trialNumber": 41,
            "roleCurrent": "sender",
            "marblesSampled": 100,
            "probRed": 0.5,
            "lambda": 5,
            "drawnRed": 28,
            "reportedRed": 0,
            "inferredRed": 6,
            "playerTrialScore": 22,
            "oppTrialScore": -22,
            "playerTotalScore": 61,
            "oppTotalScore": -429,
            "waitTime": 2847.0574676815995,
            "responseTime": 1678836819174,
            "catchQuestion": "How many <b class=\"r\">red<\/b> marbles did your opponent report drawing? ",
            "catchKey": -1,
            "catchResponse": -1,
            "catchTime": 1678836688192,
            "trialTime": 0
        },
        {
            "exptPart": "trial",
            "trialNumber": 42,
            "roleCurrent": "receiver",
            "marblesSampled": 100,
            "probRed": 0.5,
            "lambda": 5,
            "drawnRed": 61,
            "reportedRed": 51,
            "inferredRed": 74,
            "playerTrialScore": -13,
            "oppTrialScore": 0,
            "playerTotalScore": 48,
            "oppTotalScore": -429,
            "waitTime": 5877.278638314037,
            "responseTime": 1678836832844,
            "catchQuestion": "How many <b class=\"r\">red<\/b> marbles did your opponent report drawing? ",
            "catchKey": -1,
            "catchResponse": -1,
            "catchTime": 1678836688192,
            "trialTime": 0
        },
        {
            "exptPart": "trial",
            "trialNumber": 43,
            "roleCurrent": "sender",
            "marblesSampled": 100,
            "probRed": 0.5,
            "lambda": 5,
            "drawnRed": 71,
            "reportedRed": 39,
            "inferredRed": 43,
            "playerTrialScore": 28,
            "oppTrialScore": -28,
            "playerTotalScore": 76,
            "oppTotalScore": -457,
            "waitTime": 3048.320021345215,
            "responseTime": 1678836992022,
            "catchQuestion": "How many <b class=\"r\">red<\/b> marbles did your opponent report drawing? ",
            "catchKey": -1,
            "catchResponse": -1,
            "catchTime": 1678836688192,
            "trialTime": 0
        },
        {
            "exptPart": "trial",
            "trialNumber": 44,
            "roleCurrent": "receiver",
            "marblesSampled": 100,
            "probRed": 0.5,
            "lambda": 5,
            "drawnRed": 53,
            "reportedRed": 49,
            "inferredRed": 65,
            "playerTrialScore": -12,
            "oppTrialScore": 0,
            "playerTotalScore": 64,
            "oppTotalScore": -457,
            "waitTime": 5880.750641062688,
            "responseTime": 1678837009039,
            "catchQuestion": "How many <b class=\"r\">red<\/b> marbles did your opponent report drawing? ",
            "catchKey": 49,
            "catchResponse": 49,
            "catchTime": 1678837009039,
            "trialTime": 0
        },
        {
            "exptPart": "trial",
            "trialNumber": 45,
            "roleCurrent": "sender",
            "marblesSampled": 100,
            "probRed": 0.5,
            "lambda": 5,
            "drawnRed": 56,
            "reportedRed": 33,
            "inferredRed": 38,
            "playerTrialScore": 18,
            "oppTrialScore": -18,
            "playerTotalScore": 82,
            "oppTotalScore": -475,
            "waitTime": 2340.6608050837904,
            "responseTime": 1678837089519,
            "catchQuestion": "How many <b class=\"r\">red<\/b> marbles did your opponent report drawing? ",
            "catchKey": -1,
            "catchResponse": -1,
            "catchTime": 1678837089519,
            "trialTime": 0
        },
        {
            "exptPart": "trial",
            "trialNumber": 46,
            "roleCurrent": "receiver",
            "marblesSampled": 100,
            "probRed": 0.5,
            "lambda": 5,
            "drawnRed": 63,
            "reportedRed": 60,
            "inferredRed": 85,
            "playerTrialScore": -22,
            "oppTrialScore": 0,
            "playerTotalScore": 60,
            "oppTotalScore": -475,
            "waitTime": 5717.482031464954,
            "responseTime": 1678837108749,
            "catchQuestion": "How many <b class=\"r\">red<\/b> marbles did your opponent report drawing? ",
            "catchKey": -1,
            "catchResponse": -1,
            "catchTime": 1678837089519,
            "trialTime": 0
        },
        {
            "exptPart": "trial",
            "trialNumber": 47,
            "roleCurrent": "sender",
            "marblesSampled": 100,
            "probRed": 0.5,
            "lambda": 5,
            "drawnRed": 81,
            "reportedRed": 100,
            "inferredRed": 100,
            "playerTrialScore": 0,
            "oppTrialScore": -19,
            "playerTotalScore": 60,
            "oppTotalScore": -494,
            "waitTime": 2229.426270887075,
            "responseTime": 1678837174976,
            "catchQuestion": "How many <b class=\"r\">red<\/b> marbles did your opponent report drawing? ",
            "catchKey": -1,
            "catchResponse": -1,
            "catchTime": 1678837089519,
            "trialTime": 0
        },
        {
            "exptPart": "trial",
            "trialNumber": 48,
            "roleCurrent": "receiver",
            "marblesSampled": 100,
            "probRed": 0.5,
            "lambda": 5,
            "drawnRed": 53,
            "reportedRed": 46,
            "inferredRed": 67,
            "playerTrialScore": -14,
            "oppTrialScore": 0,
            "playerTotalScore": 46,
            "oppTotalScore": -494,
            "waitTime": 5387.517900767696,
            "responseTime": 1678837184416,
            "catchQuestion": "How many <b class=\"r\">red<\/b> marbles did your opponent report drawing? ",
            "catchKey": -1,
            "catchResponse": -1,
            "catchTime": 1678837089519,
            "trialTime": 0
        },
        {
            "exptPart": "trial",
            "trialNumber": 49,
            "roleCurrent": "sender",
            "marblesSampled": 100,
            "probRed": 0.5,
            "lambda": 5,
            "drawnRed": 30,
            "reportedRed": 3,
            "inferredRed": 9,
            "playerTrialScore": 21,
            "oppTrialScore": -21,
            "playerTotalScore": 67,
            "oppTotalScore": -515,
            "waitTime": 2388.229505376923,
            "responseTime": 1678837290323,
            "catchQuestion": "How many <b class=\"r\">red<\/b> marbles did your opponent report drawing? ",
            "catchKey": -1,
            "catchResponse": -1,
            "catchTime": 1678837089519,
            "trialTime": 0
        },
        {
            "exptPart": "trial",
            "trialNumber": 50,
            "roleCurrent": "receiver",
            "marblesSampled": 100,
            "probRed": 0.5,
            "lambda": 5,
            "drawnRed": 65,
            "reportedRed": 61,
            "inferredRed": 84,
            "playerTrialScore": -19,
            "oppTrialScore": 0,
            "playerTotalScore": 48,
            "oppTotalScore": -515,
            "waitTime": 7268.5216795352135,
            "responseTime": 1678837302843,
            "catchQuestion": "How many <b class=\"r\">red<\/b> marbles did your opponent report drawing? ",
            "catchKey": -1,
            "catchResponse": -1,
            "catchTime": 1678837302844,
            "trialTime": 0
        },
        {
            "exptPart": "trial",
            "trialNumber": 51,
            "roleCurrent": "sender",
            "marblesSampled": 100,
            "probRed": 0.5,
            "lambda": 5,
            "drawnRed": 50,
            "reportedRed": 37,
            "inferredRed": 39,
            "playerTrialScore": 11,
            "oppTrialScore": -11,
            "playerTotalScore": 59,
            "oppTotalScore": -526,
            "waitTime": 2354.1421449437726,
            "responseTime": 1678837350274,
            "catchQuestion": "How many <b class=\"r\">red<\/b> marbles did you actually draw (before any changes)? ",
            "catchKey": 50,
            "catchResponse": 50,
            "catchTime": 1678837350274,
            "trialTime": 0
        },
        {
            "exptPart": "trial",
            "trialNumber": 52,
            "roleCurrent": "receiver",
            "marblesSampled": 100,
            "probRed": 0.5,
            "lambda": 5,
            "drawnRed": 20,
            "reportedRed": 14,
            "inferredRed": 38,
            "playerTrialScore": -18,
            "oppTrialScore": 0,
            "playerTotalScore": 41,
            "oppTotalScore": -526,
            "waitTime": 5709.277839489294,
            "responseTime": 1678837365178,
            "catchQuestion": "How many <b class=\"r\">red<\/b> marbles did you actually draw (before any changes)? ",
            "catchKey": -1,
            "catchResponse": -1,
            "catchTime": 1678837350274,
            "trialTime": 0
        },
        {
            "exptPart": "trial",
            "trialNumber": 53,
            "roleCurrent": "sender",
            "marblesSampled": 100,
            "probRed": 0.5,
            "lambda": 5,
            "drawnRed": 58,
            "reportedRed": 54,
            "inferredRed": 55,
            "playerTrialScore": 3,
            "oppTrialScore": -3,
            "playerTotalScore": 44,
            "oppTotalScore": -529,
            "waitTime": 2883.667921879282,
            "responseTime": 1678837389169,
            "catchQuestion": "How many <b class=\"r\">red<\/b> marbles did you actually draw (before any changes)? ",
            "catchKey": -1,
            "catchResponse": -1,
            "catchTime": 1678837350274,
            "trialTime": 0
        },
        {
            "exptPart": "trial",
            "trialNumber": 54,
            "roleCurrent": "receiver",
            "marblesSampled": 100,
            "probRed": 0.5,
            "lambda": 5,
            "drawnRed": 79,
            "reportedRed": 74,
            "inferredRed": 80,
            "playerTrialScore": -1,
            "oppTrialScore": 0,
            "playerTotalScore": 43,
            "oppTotalScore": -529,
            "waitTime": 6581.959403626033,
            "responseTime": 1678837404117,
            "catchQuestion": "How many <b class=\"r\">red<\/b> marbles did you actually draw (before any changes)? ",
            "catchKey": -1,
            "catchResponse": -1,
            "catchTime": 1678837350274,
            "trialTime": 0
        },
        {
            "exptPart": "trial",
            "trialNumber": 55,
            "roleCurrent": "sender",
            "marblesSampled": 100,
            "probRed": 0.5,
            "lambda": 5,
            "drawnRed": 72,
            "reportedRed": 75,
            "inferredRed": 79,
            "playerTrialScore": 0,
            "oppTrialScore": -7,
            "playerTotalScore": 43,
            "oppTotalScore": -536,
            "waitTime": 2492.792479250156,
            "responseTime": 1678837426877,
            "catchQuestion": "How many <b class=\"r\">red<\/b> marbles did you actually draw (before any changes)? ",
            "catchKey": -1,
            "catchResponse": -1,
            "catchTime": 1678837426877,
            "trialTime": 0
        },
        {
            "exptPart": "trial",
            "trialNumber": 56,
            "roleCurrent": "receiver",
            "marblesSampled": 100,
            "probRed": 0.5,
            "lambda": 5,
            "drawnRed": 65,
            "reportedRed": 59,
            "inferredRed": 79,
            "playerTrialScore": -14,
            "oppTrialScore": 0,
            "playerTotalScore": 29,
            "oppTotalScore": -536,
            "waitTime": 6688.668880431671,
            "responseTime": 1678837444802,
            "catchQuestion": "How many <b class=\"r\">red<\/b> marbles did you actually draw (before any changes)? ",
            "catchKey": -1,
            "catchResponse": -1,
            "catchTime": 1678837426877,
            "trialTime": 0
        },
        {
            "exptPart": "trial",
            "trialNumber": 57,
            "roleCurrent": "sender",
            "marblesSampled": 100,
            "probRed": 0.5,
            "lambda": 5,
            "drawnRed": 74,
            "reportedRed": 59,
            "inferredRed": 67,
            "playerTrialScore": 7,
            "oppTrialScore": -7,
            "playerTotalScore": 36,
            "oppTotalScore": -543,
            "waitTime": 2956.046747894645,
            "responseTime": 1678837497761,
            "catchQuestion": "How many <b class=\"r\">red<\/b> marbles did you actually draw (before any changes)? ",
            "catchKey": -1,
            "catchResponse": -1,
            "catchTime": 1678837426877,
            "trialTime": 0
        },
        {
            "exptPart": "trial",
            "trialNumber": 58,
            "roleCurrent": "receiver",
            "marblesSampled": 100,
            "probRed": 0.5,
            "lambda": 5,
            "drawnRed": 25,
            "reportedRed": 23,
            "inferredRed": 51,
            "playerTrialScore": -26,
            "oppTrialScore": 0,
            "playerTotalScore": 10,
            "oppTotalScore": -543,
            "waitTime": 6593.633303828012,
            "responseTime": 1678837509800,
            "catchQuestion": "How many <b class=\"r\">red<\/b> marbles did you actually draw (before any changes)? ",
            "catchKey": -1,
            "catchResponse": -1,
            "catchTime": 1678837426877,
            "trialTime": 0
        },
        {
            "exptPart": "trial",
            "trialNumber": 59,
            "roleCurrent": "sender",
            "marblesSampled": 100,
            "probRed": 0.5,
            "lambda": 5,
            "drawnRed": 40,
            "reportedRed": 26,
            "inferredRed": 31,
            "playerTrialScore": 9,
            "oppTrialScore": -9,
            "playerTotalScore": 19,
            "oppTotalScore": -552,
            "waitTime": 2834.461059264555,
            "responseTime": 1678837555067,
            "catchQuestion": "How many <b class=\"r\">red<\/b> marbles did you actually draw (before any changes)? ",
            "catchKey": -1,
            "catchResponse": -1,
            "catchTime": 1678837426877,
            "trialTime": 0
        },
        {
            "exptPart": "trial",
            "trialNumber": 60,
            "roleCurrent": "receiver",
            "marblesSampled": 100,
            "probRed": 0.5,
            "lambda": 5,
            "drawnRed": 85,
            "reportedRed": 77,
            "inferredRed": 89,
            "playerTrialScore": -4,
            "oppTrialScore": 0,
            "playerTotalScore": 15,
            "oppTotalScore": -552,
            "waitTime": 5340.643337086347,
            "responseTime": 1678837567369,
            "catchQuestion": "How many <b class=\"r\">red<\/b> marbles did you actually draw (before any changes)? ",
            "catchKey": -1,
            "catchResponse": -1,
            "catchTime": 1678837567369,
            "trialTime": 0
        },
        {
            "exptPart": "trial",
            "trialNumber": 61,
            "roleCurrent": "sender",
            "marblesSampled": 100,
            "probRed": 0.5,
            "lambda": 5,
            "drawnRed": 86,
            "reportedRed": 100,
            "inferredRed": 100,
            "playerTrialScore": 0,
            "oppTrialScore": -14,
            "playerTotalScore": 15,
            "oppTotalScore": -566,
            "waitTime": 2194.216987318604,
            "responseTime": 1678837615492,
            "catchQuestion": "How many <b class=\"r\">red<\/b> marbles did you actually draw (before any changes)? ",
            "catchKey": -1,
            "catchResponse": -1,
            "catchTime": 1678837567369,
            "trialTime": 0
        },
        {
            "exptPart": "trial",
            "trialNumber": 62,
            "roleCurrent": "receiver",
            "marblesSampled": 100,
            "probRed": 0.5,
            "lambda": 5,
            "drawnRed": 68,
            "reportedRed": 62,
            "inferredRed": 87,
            "playerTrialScore": -19,
            "oppTrialScore": 0,
            "playerTotalScore": -4,
            "oppTotalScore": -566,
            "waitTime": 6361.87886592549,
            "responseTime": 1678837629418,
            "catchQuestion": "How many <b class=\"r\">red<\/b> marbles did your opponent report drawing? ",
            "catchKey": 62,
            "catchResponse": 62,
            "catchTime": 1678837629418,
            "trialTime": 0
        },
        {
            "exptPart": "trial",
            "trialNumber": 63,
            "roleCurrent": "sender",
            "marblesSampled": 100,
            "probRed": 0.5,
            "lambda": 5,
            "drawnRed": 55,
            "reportedRed": 39,
            "inferredRed": 43,
            "playerTrialScore": 12,
            "oppTrialScore": -12,
            "playerTotalScore": 8,
            "oppTotalScore": -578,
            "waitTime": 2575.8128720089135,
            "responseTime": 1678837697957,
            "catchQuestion": "How many <b class=\"r\">red<\/b> marbles did your opponent report drawing? ",
            "catchKey": -1,
            "catchResponse": -1,
            "catchTime": 1678837629418,
            "trialTime": 0
        },
        {
            "exptPart": "trial",
            "trialNumber": 64,
            "roleCurrent": "receiver",
            "marblesSampled": 100,
            "probRed": 0.5,
            "lambda": 5,
            "drawnRed": 46,
            "reportedRed": 39,
            "inferredRed": 57,
            "playerTrialScore": -11,
            "oppTrialScore": 0,
            "playerTotalScore": -3,
            "oppTotalScore": -578,
            "waitTime": 6963.871261605011,
            "responseTime": 1678837710589,
            "catchQuestion": "How many <b class=\"r\">red<\/b> marbles did your opponent report drawing? ",
            "catchKey": -1,
            "catchResponse": -1,
            "catchTime": 1678837629418,
            "trialTime": 0
        },
        {
            "exptPart": "trial",
            "trialNumber": 65,
            "roleCurrent": "sender",
            "marblesSampled": 100,
            "probRed": 0.5,
            "lambda": 5,
            "drawnRed": 63,
            "reportedRed": 47,
            "inferredRed": 50,
            "playerTrialScore": 13,
            "oppTrialScore": -13,
            "playerTotalScore": 10,
            "oppTotalScore": -591,
            "waitTime": 2362.1859913586204,
            "responseTime": 1678837858679,
            "catchQuestion": "How many <b class=\"r\">red<\/b> marbles did your opponent report drawing? ",
            "catchKey": -1,
            "catchResponse": -1,
            "catchTime": 1678837858679,
            "trialTime": 0
        },
        {
            "exptPart": "trial",
            "trialNumber": 66,
            "roleCurrent": "receiver",
            "marblesSampled": 100,
            "probRed": 0.5,
            "lambda": 5,
            "drawnRed": 38,
            "reportedRed": 36,
            "inferredRed": 61,
            "playerTrialScore": -23,
            "oppTrialScore": 0,
            "playerTotalScore": -13,
            "oppTotalScore": -591,
            "waitTime": 5857.362093184396,
            "responseTime": 1678837873344,
            "catchQuestion": "How many <b class=\"r\">red<\/b> marbles did your opponent report drawing? ",
            "catchKey": -1,
            "catchResponse": -1,
            "catchTime": 1678837858679,
            "trialTime": 0
        },
        {
            "exptPart": "trial",
            "trialNumber": 67,
            "roleCurrent": "sender",
            "marblesSampled": 100,
            "probRed": 0.5,
            "lambda": 5,
            "drawnRed": 55,
            "reportedRed": 45,
            "inferredRed": 52,
            "playerTrialScore": 3,
            "oppTrialScore": -3,
            "playerTotalScore": -10,
            "oppTotalScore": -594,
            "waitTime": 2097.844550469262,
            "responseTime": 1678837909585,
            "catchQuestion": "How many <b class=\"r\">red<\/b> marbles did you actually draw (before any changes)? ",
            "catchKey": 55,
            "catchResponse": 55,
            "catchTime": 1678837909585,
            "trialTime": 0
        },
        {
            "exptPart": "trial",
            "trialNumber": 68,
            "roleCurrent": "receiver",
            "marblesSampled": 100,
            "probRed": 0.5,
            "lambda": 5,
            "drawnRed": 75,
            "reportedRed": 71,
            "inferredRed": 87,
            "playerTrialScore": -12,
            "oppTrialScore": 0,
            "playerTotalScore": -22,
            "oppTotalScore": -594,
            "waitTime": 5677.659814579145,
            "responseTime": 1678837946207,
            "catchQuestion": "How many <b class=\"r\">red<\/b> marbles did you actually draw (before any changes)? ",
            "catchKey": -1,
            "catchResponse": -1,
            "catchTime": 1678837909585,
            "trialTime": 0
        },
        {
            "exptPart": "trial",
            "trialNumber": 69,
            "roleCurrent": "sender",
            "marblesSampled": 100,
            "probRed": 0.5,
            "lambda": 5,
            "drawnRed": 70,
            "reportedRed": 63,
            "inferredRed": 67,
            "playerTrialScore": 3,
            "oppTrialScore": -3,
            "playerTotalScore": -19,
            "oppTotalScore": -597,
            "waitTime": 3189.4645570963285,
            "responseTime": 1678837971479,
            "catchQuestion": "How many <b class=\"r\">red<\/b> marbles did you actually draw (before any changes)? ",
            "catchKey": -1,
            "catchResponse": -1,
            "catchTime": 1678837909585,
            "trialTime": 0
        },
        {
            "exptPart": "trial",
            "trialNumber": 70,
            "roleCurrent": "receiver",
            "marblesSampled": 100,
            "probRed": 0.5,
            "lambda": 5,
            "drawnRed": 61,
            "reportedRed": 50,
            "inferredRed": 67,
            "playerTrialScore": -6,
            "oppTrialScore": 0,
            "playerTotalScore": -25,
            "oppTotalScore": -597,
            "waitTime": 6064.08842365591,
            "responseTime": 1678837982702,
            "catchQuestion": "How many <b class=\"r\">red<\/b> marbles did you actually draw (before any changes)? ",
            "catchKey": -1,
            "catchResponse": -1,
            "catchTime": 1678837982702,
            "trialTime": 0
        },
        {
            "exptPart": "trial",
            "trialNumber": 71,
            "roleCurrent": "sender",
            "marblesSampled": 100,
            "probRed": 0.5,
            "lambda": 5,
            "drawnRed": 92,
            "reportedRed": 100,
            "inferredRed": 100,
            "playerTrialScore": 0,
            "oppTrialScore": -8,
            "playerTotalScore": -25,
            "oppTotalScore": -605,
            "waitTime": 2545.1648927844603,
            "responseTime": 1678838010492,
            "catchQuestion": "How many <b class=\"r\">red<\/b> marbles did you actually draw (before any changes)? ",
            "catchKey": -1,
            "catchResponse": -1,
            "catchTime": 1678837982702,
            "trialTime": 0
        },
        {
            "exptPart": "trial",
            "trialNumber": 72,
            "roleCurrent": "receiver",
            "marblesSampled": 100,
            "probRed": 0.5,
            "lambda": 5,
            "drawnRed": 62,
            "reportedRed": 55,
            "inferredRed": 55,
            "playerTrialScore": -7,
            "oppTrialScore": 7,
            "playerTotalScore": -32,
            "oppTotalScore": -598,
            "waitTime": 6620.261237118898,
            "responseTime": 1678838022614,
            "catchQuestion": "How many <b class=\"r\">red<\/b> marbles did you actually draw (before any changes)? ",
            "catchKey": -1,
            "catchResponse": -1,
            "catchTime": 1678837982702,
            "trialTime": 0
        },
        {
            "exptPart": "trial",
            "trialNumber": 73,
            "roleCurrent": "sender",
            "marblesSampled": 100,
            "probRed": 0.5,
            "lambda": 5,
            "drawnRed": 19,
            "reportedRed": 0,
            "inferredRed": 1,
            "playerTrialScore": 18,
            "oppTrialScore": -18,
            "playerTotalScore": -14,
            "oppTotalScore": -616,
            "waitTime": 3111.2720710831486,
            "responseTime": 1678838082513,
            "catchQuestion": "How many <b class=\"r\">red<\/b> marbles did you actually draw (before any changes)? ",
            "catchKey": -1,
            "catchResponse": -1,
            "catchTime": 1678837982702,
            "trialTime": 0
        },
        {
            "exptPart": "trial",
            "trialNumber": 74,
            "roleCurrent": "receiver",
            "marblesSampled": 100,
            "probRed": 0.5,
            "lambda": 5,
            "drawnRed": 51,
            "reportedRed": 48,
            "inferredRed": 50,
            "playerTrialScore": -1,
            "oppTrialScore": 1,
            "playerTotalScore": -15,
            "oppTotalScore": -615,
            "waitTime": 5581.148820997404,
            "responseTime": 1678838139676,
            "catchQuestion": "How many <b class=\"r\">red<\/b> marbles did you actually draw (before any changes)? ",
            "catchKey": -1,
            "catchResponse": -1,
            "catchTime": 1678837982702,
            "trialTime": 0
        },
        {
            "exptPart": "trial",
            "trialNumber": 75,
            "roleCurrent": "sender",
            "marblesSampled": 100,
            "probRed": 0.5,
            "lambda": 5,
            "drawnRed": 69,
            "reportedRed": 57,
            "inferredRed": 65,
            "playerTrialScore": 4,
            "oppTrialScore": -4,
            "playerTotalScore": -11,
            "oppTotalScore": -619,
            "waitTime": 3090.751333336786,
            "responseTime": 1678838186690,
            "catchQuestion": "How many <b class=\"r\">red<\/b> marbles did you actually draw (before any changes)? ",
            "catchKey": -1,
            "catchResponse": -1,
            "catchTime": 1678838186690,
            "trialTime": 0
        },
        {
            "exptPart": "trial",
            "trialNumber": 76,
            "roleCurrent": "receiver",
            "marblesSampled": 100,
            "probRed": 0.5,
            "lambda": 5,
            "drawnRed": 84,
            "reportedRed": 77,
            "inferredRed": 82,
            "playerTrialScore": -2,
            "oppTrialScore": 2,
            "playerTotalScore": -13,
            "oppTotalScore": -617,
            "waitTime": 5934.089182356764,
            "responseTime": 1678838203864,
            "catchQuestion": "How many <b class=\"r\">red<\/b> marbles did you actually draw (before any changes)? ",
            "catchKey": -1,
            "catchResponse": -1,
            "catchTime": 1678838186690,
            "trialTime": 0
        },
        {
            "exptPart": "trial",
            "trialNumber": 77,
            "roleCurrent": "sender",
            "marblesSampled": 100,
            "probRed": 0.5,
            "lambda": 5,
            "drawnRed": 8,
            "reportedRed": 0,
            "inferredRed": 5,
            "playerTrialScore": 3,
            "oppTrialScore": -3,
            "playerTotalScore": -10,
            "oppTotalScore": -620,
            "waitTime": 2826.9376621138417,
            "responseTime": 1678838228776,
            "catchQuestion": "How many <b class=\"r\">red<\/b> marbles did you actually draw (before any changes)? ",
            "catchKey": -1,
            "catchResponse": -1,
            "catchTime": 1678838186690,
            "trialTime": 0
        },
        {
            "exptPart": "trial",
            "trialNumber": 78,
            "roleCurrent": "receiver",
            "marblesSampled": 100,
            "probRed": 0.5,
            "lambda": 5,
            "drawnRed": 60,
            "reportedRed": 53,
            "inferredRed": 67,
            "playerTrialScore": -7,
            "oppTrialScore": 0,
            "playerTotalScore": -17,
            "oppTotalScore": -620,
            "waitTime": 6586.350185105652,
            "responseTime": 1678838239133,
            "catchQuestion": "How many <b class=\"r\">red<\/b> marbles did your opponent report drawing? ",
            "catchKey": 53,
            "catchResponse": 53,
            "catchTime": 1678838239133,
            "trialTime": 0
        },
        {
            "exptPart": "trial",
            "trialNumber": 79,
            "roleCurrent": "sender",
            "marblesSampled": 100,
            "probRed": 0.5,
            "lambda": 5,
            "drawnRed": 82,
            "reportedRed": 99,
            "inferredRed": 100,
            "playerTrialScore": 0,
            "oppTrialScore": -18,
            "playerTotalScore": -17,
            "oppTotalScore": -638,
            "waitTime": 2518.766551633003,
            "responseTime": 1678838344198,
            "catchQuestion": "How many <b class=\"r\">red<\/b> marbles did your opponent report drawing? ",
            "catchKey": -1,
            "catchResponse": -1,
            "catchTime": 1678838239133,
            "trialTime": 0
        },
        {
            "exptPart": "trial",
            "trialNumber": 80,
            "roleCurrent": "receiver",
            "marblesSampled": 100,
            "probRed": 0.5,
            "lambda": 5,
            "drawnRed": 61,
            "reportedRed": 57,
            "inferredRed": 70,
            "playerTrialScore": -9,
            "oppTrialScore": 0,
            "playerTotalScore": -26,
            "oppTotalScore": -638,
            "waitTime": 6522.835282450491,
            "responseTime": 1678838357101,
            "catchQuestion": "How many <b class=\"r\">red<\/b> marbles did your opponent report drawing? ",
            "catchKey": 57,
            "catchResponse": 57,
            "catchTime": 1678838357101,
            "trialTime": 0
        },
        {
            "exptPart": "trial",
            "trialNumber": 81,
            "roleCurrent": "sender",
            "marblesSampled": 100,
            "probRed": 0.5,
            "lambda": 5,
            "drawnRed": 48,
            "reportedRed": 48,
            "inferredRed": 51,
            "playerTrialScore": 0,
            "oppTrialScore": -3,
            "playerTotalScore": -26,
            "oppTotalScore": -641,
            "waitTime": 2424.713744684872,
            "responseTime": 1678838374607,
            "catchQuestion": "How many <b class=\"r\">red<\/b> marbles did your opponent report drawing? ",
            "catchKey": -1,
            "catchResponse": -1,
            "catchTime": 1678838357101,
            "trialTime": 0
        },
        {
            "exptPart": "trial",
            "trialNumber": 82,
            "roleCurrent": "receiver",
            "marblesSampled": 100,
            "probRed": 0.5,
            "lambda": 5,
            "drawnRed": 70,
            "reportedRed": 63,
            "inferredRed": 75,
            "playerTrialScore": -5,
            "oppTrialScore": 0,
            "playerTotalScore": -31,
            "oppTotalScore": -641,
            "waitTime": 7037.701880332865,
            "responseTime": 1678838387170,
            "catchQuestion": "How many <b class=\"r\">red<\/b> marbles did your opponent report drawing? ",
            "catchKey": -1,
            "catchResponse": -1,
            "catchTime": 1678838357101,
            "trialTime": 0
        },
        {
            "exptPart": "trial",
            "trialNumber": 83,
            "roleCurrent": "sender",
            "marblesSampled": 100,
            "probRed": 0.5,
            "lambda": 5,
            "drawnRed": 68,
            "reportedRed": 72,
            "inferredRed": 76,
            "playerTrialScore": 0,
            "oppTrialScore": -8,
            "playerTotalScore": -31,
            "oppTotalScore": -649,
            "waitTime": 2338.038725197555,
            "responseTime": 1678838404587,
            "catchQuestion": "How many <b class=\"r\">red<\/b> marbles did your opponent report drawing? ",
            "catchKey": -1,
            "catchResponse": -1,
            "catchTime": 1678838357101,
            "trialTime": 0
        },
        {
            "exptPart": "trial",
            "trialNumber": 84,
            "roleCurrent": "receiver",
            "marblesSampled": 100,
            "probRed": 0.5,
            "lambda": 5,
            "drawnRed": 39,
            "reportedRed": 36,
            "inferredRed": 58,
            "playerTrialScore": -19,
            "oppTrialScore": 0,
            "playerTotalScore": -50,
            "oppTotalScore": -649,
            "waitTime": 5543.0994534418805,
            "responseTime": 1678838415074,
            "catchQuestion": "How many <b class=\"r\">red<\/b> marbles did your opponent report drawing? ",
            "catchKey": -1,
            "catchResponse": -1,
            "catchTime": 1678838357101,
            "trialTime": 0
        },
        {
            "exptPart": "trial",
            "trialNumber": 85,
            "roleCurrent": "sender",
            "marblesSampled": 100,
            "probRed": 0.5,
            "lambda": 5,
            "drawnRed": 54,
            "reportedRed": 61,
            "inferredRed": 62,
            "playerTrialScore": 0,
            "oppTrialScore": -8,
            "playerTotalScore": -50,
            "oppTotalScore": -657,
            "waitTime": 2438.2639165861706,
            "responseTime": 1678838438855,
            "catchQuestion": "How many <b class=\"r\">red<\/b> marbles did your opponent report drawing? ",
            "catchKey": -1,
            "catchResponse": -1,
            "catchTime": 1678838438855,
            "trialTime": 0
        },
        {
            "exptPart": "trial",
            "trialNumber": 86,
            "roleCurrent": "receiver",
            "marblesSampled": 100,
            "probRed": 0.5,
            "lambda": 5,
            "drawnRed": 36,
            "reportedRed": 29,
            "inferredRed": 48,
            "playerTrialScore": -12,
            "oppTrialScore": 0,
            "playerTotalScore": -62,
            "oppTotalScore": -657,
            "waitTime": 5318.690648873446,
            "responseTime": 1678838455354,
            "catchQuestion": "How many <b class=\"r\">red<\/b> marbles did your opponent report drawing? ",
            "catchKey": -1,
            "catchResponse": -1,
            "catchTime": 1678838438855,
            "trialTime": 0
        },
        {
            "exptPart": "trial",
            "trialNumber": 87,
            "roleCurrent": "sender",
            "marblesSampled": 100,
            "probRed": 0.5,
            "lambda": 5,
            "drawnRed": 89,
            "reportedRed": 99,
            "inferredRed": 100,
            "playerTrialScore": 0,
            "oppTrialScore": -11,
            "playerTotalScore": -62,
            "oppTotalScore": -668,
            "waitTime": 2720.439032662897,
            "responseTime": 1678838483243,
            "catchQuestion": "How many <b class=\"r\">red<\/b> marbles did your opponent report drawing? ",
            "catchKey": -1,
            "catchResponse": -1,
            "catchTime": 1678838438855,
            "trialTime": 0
        },
        {
            "exptPart": "trial",
            "trialNumber": 88,
            "roleCurrent": "receiver",
            "marblesSampled": 100,
            "probRed": 0.5,
            "lambda": 5,
            "drawnRed": 68,
            "reportedRed": 62,
            "inferredRed": 88,
            "playerTrialScore": -20,
            "oppTrialScore": 0,
            "playerTotalScore": -82,
            "oppTotalScore": -668,
            "waitTime": 5854.257176785772,
            "responseTime": 1678838506911,
            "catchQuestion": "How many <b class=\"r\">red<\/b> marbles did your opponent report drawing? ",
            "catchKey": -1,
            "catchResponse": -1,
            "catchTime": 1678838438855,
            "trialTime": 0
        },
        {
            "exptPart": "trial",
            "trialNumber": 89,
            "roleCurrent": "sender",
            "marblesSampled": 100,
            "probRed": 0.5,
            "lambda": 5,
            "drawnRed": 78,
            "reportedRed": 75,
            "inferredRed": 79,
            "playerTrialScore": 0,
            "oppTrialScore": -1,
            "playerTotalScore": -82,
            "oppTotalScore": -669,
            "waitTime": 2945.6048932558174,
            "responseTime": 1678838537017,
            "catchQuestion": "How many <b class=\"r\">red<\/b> marbles did your opponent report drawing? ",
            "catchKey": -1,
            "catchResponse": -1,
            "catchTime": 1678838438855,
            "trialTime": 0
        },
        {
            "exptPart": "trial",
            "trialNumber": 90,
            "roleCurrent": "receiver",
            "marblesSampled": 100,
            "probRed": 0.5,
            "lambda": 5,
            "drawnRed": 88,
            "reportedRed": 79,
            "inferredRed": 88,
            "playerTrialScore": 0,
            "oppTrialScore": 0,
            "playerTotalScore": -82,
            "oppTotalScore": -669,
            "waitTime": 5927.54213238328,
            "responseTime": 1678838548044,
            "catchQuestion": "How many <b class=\"r\">red<\/b> marbles did your opponent report drawing? ",
            "catchKey": -1,
            "catchResponse": -1,
            "catchTime": 1678838548044,
            "trialTime": 0
        },
        {
            "exptPart": "trial",
            "trialNumber": 91,
            "roleCurrent": "sender",
            "marblesSampled": 100,
            "probRed": 0.5,
            "lambda": 5,
            "drawnRed": 41,
            "reportedRed": 29,
            "inferredRed": 37,
            "playerTrialScore": 4,
            "oppTrialScore": -4,
            "playerTotalScore": -78,
            "oppTotalScore": -673,
            "waitTime": 2285.3944793717774,
            "responseTime": 1678838598207,
            "catchQuestion": "How many <b class=\"r\">red<\/b> marbles did your opponent report drawing? ",
            "catchKey": -1,
            "catchResponse": -1,
            "catchTime": 1678838548044,
            "trialTime": 0
        },
        {
            "exptPart": "trial",
            "trialNumber": 92,
            "roleCurrent": "receiver",
            "marblesSampled": 100,
            "probRed": 0.5,
            "lambda": 5,
            "drawnRed": 56,
            "reportedRed": 51,
            "inferredRed": 73,
            "playerTrialScore": -17,
            "oppTrialScore": 0,
            "playerTotalScore": -95,
            "oppTotalScore": -673,
            "waitTime": 6545.054250606001,
            "responseTime": 1678838609629,
            "catchQuestion": "How many <b class=\"r\">red<\/b> marbles did your opponent report drawing? ",
            "catchKey": -1,
            "catchResponse": -1,
            "catchTime": 1678838548044,
            "trialTime": 0
        },
        {
            "exptPart": "trial",
            "trialNumber": 93,
            "roleCurrent": "sender",
            "marblesSampled": 100,
            "probRed": 0.5,
            "lambda": 5,
            "drawnRed": 76,
            "reportedRed": 85,
            "inferredRed": 92,
            "playerTrialScore": 0,
            "oppTrialScore": -16,
            "playerTotalScore": -95,
            "oppTotalScore": -689,
            "waitTime": 2500.5632012923907,
            "responseTime": 1678838636814,
            "catchQuestion": "How many <b class=\"r\">red<\/b> marbles did your opponent report drawing? ",
            "catchKey": -1,
            "catchResponse": -1,
            "catchTime": 1678838548044,
            "trialTime": 0
        },
        {
            "exptPart": "trial",
            "trialNumber": 94,
            "roleCurrent": "receiver",
            "marblesSampled": 100,
            "probRed": 0.5,
            "lambda": 5,
            "drawnRed": 56,
            "reportedRed": 52,
            "inferredRed": 77,
            "playerTrialScore": -21,
            "oppTrialScore": 0,
            "playerTotalScore": -116,
            "oppTotalScore": -689,
            "waitTime": 5750.673107422776,
            "responseTime": 1678838645765,
            "catchQuestion": "How many <b class=\"r\">red<\/b> marbles did your opponent report drawing? ",
            "catchKey": -1,
            "catchResponse": -1,
            "catchTime": 1678838548044,
            "trialTime": 0
        },
        {
            "exptPart": "trial",
            "trialNumber": 95,
            "roleCurrent": "sender",
            "marblesSampled": 100,
            "probRed": 0.5,
            "lambda": 5,
            "drawnRed": 43,
            "reportedRed": 28,
            "inferredRed": 32,
            "playerTrialScore": 11,
            "oppTrialScore": -11,
            "playerTotalScore": -105,
            "oppTotalScore": -700,
            "waitTime": 2252.5592015412053,
            "responseTime": 1678838691521,
            "catchQuestion": "How many <b class=\"r\">red<\/b> marbles did your opponent report drawing? ",
            "catchKey": -1,
            "catchResponse": -1,
            "catchTime": 1678838691521,
            "trialTime": 0
        },
        {
            "exptPart": "trial",
            "trialNumber": 96,
            "roleCurrent": "receiver",
            "marblesSampled": 100,
            "probRed": 0.5,
            "lambda": 5,
            "drawnRed": 45,
            "reportedRed": 42,
            "inferredRed": 69,
            "playerTrialScore": -24,
            "oppTrialScore": 0,
            "playerTotalScore": -129,
            "oppTotalScore": -700,
            "waitTime": 5814.944064132821,
            "responseTime": 1678838706208,
            "catchQuestion": "How many <b class=\"r\">red<\/b> marbles did your opponent report drawing? ",
            "catchKey": 42,
            "catchResponse": 42,
            "catchTime": 1678838706208,
            "trialTime": 0
        },
        {
            "exptPart": "trial",
            "trialNumber": 97,
            "roleCurrent": "sender",
            "marblesSampled": 100,
            "probRed": 0.5,
            "lambda": 5,
            "drawnRed": 15,
            "reportedRed": 0,
            "inferredRed": 5,
            "playerTrialScore": 10,
            "oppTrialScore": -10,
            "playerTotalScore": -119,
            "oppTotalScore": -710,
            "waitTime": 2910.246272798162,
            "responseTime": 1678838952282,
            "catchQuestion": "How many <b class=\"r\">red<\/b> marbles did your opponent report drawing? ",
            "catchKey": -1,
            "catchResponse": -1,
            "catchTime": 1678838706208,
            "trialTime": 0
        },
        {
            "exptPart": "trial",
            "trialNumber": 98,
            "roleCurrent": "receiver",
            "marblesSampled": 100,
            "probRed": 0.5,
            "lambda": 5,
            "drawnRed": 51,
            "reportedRed": 47,
            "inferredRed": 67,
            "playerTrialScore": -16,
            "oppTrialScore": 0,
            "playerTotalScore": -135,
            "oppTotalScore": -710,
            "waitTime": 5333.2757773107405,
            "responseTime": 1678838967494,
            "catchQuestion": "How many <b class=\"r\">red<\/b> marbles did your opponent report drawing? ",
            "catchKey": -1,
            "catchResponse": -1,
            "catchTime": 1678838706208,
            "trialTime": 0
        },
        {
            "exptPart": "trial",
            "trialNumber": 99,
            "roleCurrent": "sender",
            "marblesSampled": 100,
            "probRed": 0.5,
            "lambda": 5,
            "drawnRed": 62,
            "reportedRed": 56,
            "inferredRed": 58,
            "playerTrialScore": 4,
            "oppTrialScore": -4,
            "playerTotalScore": -131,
            "oppTotalScore": -714,
            "waitTime": 2871.7860872936944,
            "responseTime": 1678838991843,
            "catchQuestion": "How many <b class=\"r\">red<\/b> marbles did your opponent report drawing? ",
            "catchKey": -1,
            "catchResponse": -1,
            "catchTime": 1678838706208,
            "trialTime": 0
        },
        {
            "exptPart": "trial",
            "trialNumber": 100,
            "roleCurrent": "receiver",
            "marblesSampled": 100,
            "probRed": 0.5,
            "lambda": 5,
            "drawnRed": 51,
            "reportedRed": 48,
            "inferredRed": 68,
            "playerTrialScore": -17,
            "oppTrialScore": 0,
            "playerTotalScore": -148,
            "oppTotalScore": -714,
            "waitTime": 7490.457362613291,
            "responseTime": 1678839002865,
            "catchQuestion": "How many <b class=\"r\">red<\/b> marbles did your opponent report drawing? ",
            "catchKey": -1,
            "catchResponse": -1,
            "catchTime": 1678839002865,
            "trialTime": 0
        }
    ]
}