{
    "client": {
        "type": "sona",
        "experiment_id": 2228,
        "credit_token": "b315147ae43241ea9c65086cb510cfb7",
        "survey_code": "33494",
        "sid": "sona-33494",
        "window": {
            "width": 980,
            "height": 1669
        },
        "screen": {
            "width": 390,
            "height": 844
        },
        "userAgent": "Mozilla\/5.0 (iPhone; CPU iPhone OS 15_7_1 like Mac OS X) AppleWebKit\/605.1.15 (KHTML, like Gecko) Version\/15.6.3 Mobile\/15E148 Safari\/604.1",
        "score": 0,
        "bonus": 0
    },
    "expt": {
        "saveURL": "submit.simple.php",
        "trials": 100,
        "practiceTrials": 2,
        "marblesSampled": 100,
        "probRed": 0.5,
        "lambdaAI": 5,
        "roleFirst": "receiver",
        "roles": [
            "sender",
            "receiver"
        ],
        "cost": "unif",
        "goal": "over",
        "goalInstructTxt": "below",
        "catchTrials": [
            84,
            1,
            60,
            15,
            56,
            50,
            74,
            66,
            80,
            46
        ],
        "scoreTotal": {
            "player": 364,
            "opp": -856
        },
        "sona": {
            "experiment_id": 2228,
            "credit_token": "b315147ae43241ea9c65086cb510cfb7"
        },
        "pilot": false,
        "debug": false
    },
    "trials": [
        {
            "exptPart": "practice",
            "trialNumber": 1,
            "roleCurrent": "sender",
            "marblesSampled": 100,
            "probRed": 0.5,
            "lambda": 5,
            "drawnRed": 41,
            "reportedRed": 50,
            "inferredRed": 48,
            "playerTrialScore": 7,
            "oppTrialScore": -7,
            "playerTotalScore": 7,
            "oppTotalScore": -7,
            "waitTime": 3093.7098049065885,
            "responseTime": 1680659967348,
            "catchQuestion": "How many <b class=\"r\">red<\/b> marbles did you actually draw (before any changes)? ",
            "catchKey": 41,
            "catchResponse": 41,
            "catchTime": 1680659967350,
            "trialTime": 0
        },
        {
            "exptPart": "practice",
            "trialNumber": 2,
            "roleCurrent": "receiver",
            "marblesSampled": 100,
            "probRed": 0.5,
            "lambda": 5,
            "drawnRed": 49,
            "reportedRed": 55,
            "inferredRed": 51,
            "playerTrialScore": -2,
            "oppTrialScore": 2,
            "playerTotalScore": 5,
            "oppTotalScore": -5,
            "waitTime": 7391.0177366767675,
            "responseTime": 1680660004302,
            "catchQuestion": "How many <b class=\"r\">red<\/b> marbles did your opponent report drawing? ",
            "catchKey": 55,
            "catchResponse": 55,
            "catchTime": 1680660004303,
            "trialTime": 0
        },
        {
            "exptPart": "trial",
            "trialNumber": 1,
            "roleCurrent": "receiver",
            "marblesSampled": 100,
            "probRed": 0.5,
            "lambda": 5,
            "drawnRed": 29,
            "reportedRed": 34,
            "inferredRed": 29,
            "playerTrialScore": 0,
            "oppTrialScore": 0,
            "playerTotalScore": 0,
            "oppTotalScore": 0,
            "waitTime": 6165.719139570623,
            "responseTime": 1680660045878,
            "catchQuestion": "How many <b class=\"r\">red<\/b> marbles did your opponent report drawing? ",
            "catchKey": -1,
            "catchResponse": -1,
            "catchTime": 1680660004303,
            "trialTime": 0
        },
        {
            "exptPart": "trial",
            "trialNumber": 2,
            "roleCurrent": "sender",
            "marblesSampled": 100,
            "probRed": 0.5,
            "lambda": 5,
            "drawnRed": 47,
            "reportedRed": 58,
            "inferredRed": 52,
            "playerTrialScore": 5,
            "oppTrialScore": -5,
            "playerTotalScore": 5,
            "oppTotalScore": -5,
            "waitTime": 2721.0568144962826,
            "responseTime": 1680660077257,
            "catchQuestion": "How many <b class=\"r\">red<\/b> marbles did you actually draw (before any changes)? ",
            "catchKey": 47,
            "catchResponse": 47,
            "catchTime": 1680660077258,
            "trialTime": 0
        },
        {
            "exptPart": "trial",
            "trialNumber": 3,
            "roleCurrent": "receiver",
            "marblesSampled": 100,
            "probRed": 0.5,
            "lambda": 5,
            "drawnRed": 22,
            "reportedRed": 30,
            "inferredRed": 26,
            "playerTrialScore": -4,
            "oppTrialScore": 4,
            "playerTotalScore": 1,
            "oppTotalScore": -1,
            "waitTime": 7005.246227077672,
            "responseTime": 1680660102611,
            "catchQuestion": "How many <b class=\"r\">red<\/b> marbles did you actually draw (before any changes)? ",
            "catchKey": -1,
            "catchResponse": -1,
            "catchTime": 1680660077258,
            "trialTime": 0
        },
        {
            "exptPart": "trial",
            "trialNumber": 4,
            "roleCurrent": "sender",
            "marblesSampled": 100,
            "probRed": 0.5,
            "lambda": 5,
            "drawnRed": 33,
            "reportedRed": 43,
            "inferredRed": 32,
            "playerTrialScore": 0,
            "oppTrialScore": -1,
            "playerTotalScore": 1,
            "oppTotalScore": -2,
            "waitTime": 2227.414804458873,
            "responseTime": 1680660132862,
            "catchQuestion": "How many <b class=\"r\">red<\/b> marbles did you actually draw (before any changes)? ",
            "catchKey": -1,
            "catchResponse": -1,
            "catchTime": 1680660077258,
            "trialTime": 0
        },
        {
            "exptPart": "trial",
            "trialNumber": 5,
            "roleCurrent": "receiver",
            "marblesSampled": 100,
            "probRed": 0.5,
            "lambda": 5,
            "drawnRed": 83,
            "reportedRed": 87,
            "inferredRed": 62,
            "playerTrialScore": -21,
            "oppTrialScore": 0,
            "playerTotalScore": -20,
            "oppTotalScore": -2,
            "waitTime": 6906.246642649251,
            "responseTime": 1680660148900,
            "catchQuestion": "How many <b class=\"r\">red<\/b> marbles did you actually draw (before any changes)? ",
            "catchKey": -1,
            "catchResponse": -1,
            "catchTime": 1680660148900,
            "trialTime": 0
        },
        {
            "exptPart": "trial",
            "trialNumber": 6,
            "roleCurrent": "sender",
            "marblesSampled": 100,
            "probRed": 0.5,
            "lambda": 5,
            "drawnRed": 62,
            "reportedRed": 94,
            "inferredRed": 92,
            "playerTrialScore": 30,
            "oppTrialScore": -30,
            "playerTotalScore": 10,
            "oppTotalScore": -32,
            "waitTime": 2229.7374373768816,
            "responseTime": 1680660195551,
            "catchQuestion": "How many <b class=\"r\">red<\/b> marbles did you actually draw (before any changes)? ",
            "catchKey": -1,
            "catchResponse": -1,
            "catchTime": 1680660148900,
            "trialTime": 0
        },
        {
            "exptPart": "trial",
            "trialNumber": 7,
            "roleCurrent": "receiver",
            "marblesSampled": 100,
            "probRed": 0.5,
            "lambda": 5,
            "drawnRed": 30,
            "reportedRed": 33,
            "inferredRed": 22,
            "playerTrialScore": -8,
            "oppTrialScore": 0,
            "playerTotalScore": 2,
            "oppTotalScore": -32,
            "waitTime": 6076.114132712424,
            "responseTime": 1680660218021,
            "catchQuestion": "How many <b class=\"r\">red<\/b> marbles did you actually draw (before any changes)? ",
            "catchKey": -1,
            "catchResponse": -1,
            "catchTime": 1680660148900,
            "trialTime": 0
        },
        {
            "exptPart": "trial",
            "trialNumber": 8,
            "roleCurrent": "sender",
            "marblesSampled": 100,
            "probRed": 0.5,
            "lambda": 5,
            "drawnRed": 64,
            "reportedRed": 88,
            "inferredRed": 81,
            "playerTrialScore": 17,
            "oppTrialScore": -17,
            "playerTotalScore": 19,
            "oppTotalScore": -49,
            "waitTime": 2220.705827624045,
            "responseTime": 1680660267380,
            "catchQuestion": "How many <b class=\"r\">red<\/b> marbles did you actually draw (before any changes)? ",
            "catchKey": -1,
            "catchResponse": -1,
            "catchTime": 1680660148900,
            "trialTime": 0
        },
        {
            "exptPart": "trial",
            "trialNumber": 9,
            "roleCurrent": "receiver",
            "marblesSampled": 100,
            "probRed": 0.5,
            "lambda": 5,
            "drawnRed": 26,
            "reportedRed": 29,
            "inferredRed": 21,
            "playerTrialScore": -5,
            "oppTrialScore": 0,
            "playerTotalScore": 14,
            "oppTotalScore": -49,
            "waitTime": 6479.346108384645,
            "responseTime": 1680660290228,
            "catchQuestion": "How many <b class=\"r\">red<\/b> marbles did you actually draw (before any changes)? ",
            "catchKey": -1,
            "catchResponse": -1,
            "catchTime": 1680660148900,
            "trialTime": 0
        },
        {
            "exptPart": "trial",
            "trialNumber": 10,
            "roleCurrent": "sender",
            "marblesSampled": 100,
            "probRed": 0.5,
            "lambda": 5,
            "drawnRed": 63,
            "reportedRed": 52,
            "inferredRed": 43,
            "playerTrialScore": 0,
            "oppTrialScore": -20,
            "playerTotalScore": 14,
            "oppTotalScore": -69,
            "waitTime": 2681.956527506255,
            "responseTime": 1680660323766,
            "catchQuestion": "How many <b class=\"r\">red<\/b> marbles did you actually draw (before any changes)? ",
            "catchKey": -1,
            "catchResponse": -1,
            "catchTime": 1680660323766,
            "trialTime": 0
        },
        {
            "exptPart": "trial",
            "trialNumber": 11,
            "roleCurrent": "receiver",
            "marblesSampled": 100,
            "probRed": 0.5,
            "lambda": 5,
            "drawnRed": 82,
            "reportedRed": 87,
            "inferredRed": 62,
            "playerTrialScore": -20,
            "oppTrialScore": 0,
            "playerTotalScore": -6,
            "oppTotalScore": -69,
            "waitTime": 5275.040962280285,
            "responseTime": 1680660340770,
            "catchQuestion": "How many <b class=\"r\">red<\/b> marbles did you actually draw (before any changes)? ",
            "catchKey": -1,
            "catchResponse": -1,
            "catchTime": 1680660323766,
            "trialTime": 0
        },
        {
            "exptPart": "trial",
            "trialNumber": 12,
            "roleCurrent": "sender",
            "marblesSampled": 100,
            "probRed": 0.5,
            "lambda": 5,
            "drawnRed": 81,
            "reportedRed": 100,
            "inferredRed": 91,
            "playerTrialScore": 10,
            "oppTrialScore": -10,
            "playerTotalScore": 4,
            "oppTotalScore": -79,
            "waitTime": 2821.1226538810924,
            "responseTime": 1680660405403,
            "catchQuestion": "How many <b class=\"r\">red<\/b> marbles did you actually draw (before any changes)? ",
            "catchKey": -1,
            "catchResponse": -1,
            "catchTime": 1680660323766,
            "trialTime": 0
        },
        {
            "exptPart": "trial",
            "trialNumber": 13,
            "roleCurrent": "receiver",
            "marblesSampled": 100,
            "probRed": 0.5,
            "lambda": 5,
            "drawnRed": 8,
            "reportedRed": 16,
            "inferredRed": 16,
            "playerTrialScore": -8,
            "oppTrialScore": 8,
            "playerTotalScore": -4,
            "oppTotalScore": -71,
            "waitTime": 7000.692794412642,
            "responseTime": 1680660421342,
            "catchQuestion": "How many <b class=\"r\">red<\/b> marbles did you actually draw (before any changes)? ",
            "catchKey": -1,
            "catchResponse": -1,
            "catchTime": 1680660323766,
            "trialTime": 0
        },
        {
            "exptPart": "trial",
            "trialNumber": 14,
            "roleCurrent": "sender",
            "marblesSampled": 100,
            "probRed": 0.5,
            "lambda": 5,
            "drawnRed": 48,
            "reportedRed": 56,
            "inferredRed": 47,
            "playerTrialScore": 0,
            "oppTrialScore": -1,
            "playerTotalScore": -4,
            "oppTotalScore": -72,
            "waitTime": 2632.830683135887,
            "responseTime": 1680660440423,
            "catchQuestion": "How many <b class=\"r\">red<\/b> marbles did you actually draw (before any changes)? ",
            "catchKey": -1,
            "catchResponse": -1,
            "catchTime": 1680660323766,
            "trialTime": 0
        },
        {
            "exptPart": "trial",
            "trialNumber": 15,
            "roleCurrent": "receiver",
            "marblesSampled": 100,
            "probRed": 0.5,
            "lambda": 5,
            "drawnRed": 54,
            "reportedRed": 60,
            "inferredRed": 44,
            "playerTrialScore": -10,
            "oppTrialScore": 0,
            "playerTotalScore": -14,
            "oppTotalScore": -72,
            "waitTime": 6848.10720708753,
            "responseTime": 1680660456893,
            "catchQuestion": "How many <b class=\"r\">red<\/b> marbles did you actually draw (before any changes)? ",
            "catchKey": -1,
            "catchResponse": -1,
            "catchTime": 1680660456894,
            "trialTime": 0
        },
        {
            "exptPart": "trial",
            "trialNumber": 16,
            "roleCurrent": "sender",
            "marblesSampled": 100,
            "probRed": 0.5,
            "lambda": 5,
            "drawnRed": 71,
            "reportedRed": 86,
            "inferredRed": 81,
            "playerTrialScore": 10,
            "oppTrialScore": -10,
            "playerTotalScore": -4,
            "oppTotalScore": -82,
            "waitTime": 2186.381791328352,
            "responseTime": 1680660494550,
            "catchQuestion": "How many <b class=\"r\">red<\/b> marbles did you actually draw (before any changes)? ",
            "catchKey": 71,
            "catchResponse": 50,
            "catchTime": 1680660494550,
            "trialTime": 0
        },
        {
            "exptPart": "trial",
            "trialNumber": 17,
            "roleCurrent": "receiver",
            "marblesSampled": 100,
            "probRed": 0.5,
            "lambda": 5,
            "drawnRed": 82,
            "reportedRed": 86,
            "inferredRed": 55,
            "playerTrialScore": -27,
            "oppTrialScore": 0,
            "playerTotalScore": -31,
            "oppTotalScore": -82,
            "waitTime": 5229.2365252954005,
            "responseTime": 1680660526631,
            "catchQuestion": "How many <b class=\"r\">red<\/b> marbles did you actually draw (before any changes)? ",
            "catchKey": -1,
            "catchResponse": -1,
            "catchTime": 1680660494550,
            "trialTime": 0
        },
        {
            "exptPart": "trial",
            "trialNumber": 18,
            "roleCurrent": "sender",
            "marblesSampled": 100,
            "probRed": 0.5,
            "lambda": 5,
            "drawnRed": 66,
            "reportedRed": 91,
            "inferredRed": 86,
            "playerTrialScore": 20,
            "oppTrialScore": -20,
            "playerTotalScore": -11,
            "oppTotalScore": -102,
            "waitTime": 2830.042259593904,
            "responseTime": 1680660562550,
            "catchQuestion": "How many <b class=\"r\">red<\/b> marbles did you actually draw (before any changes)? ",
            "catchKey": -1,
            "catchResponse": -1,
            "catchTime": 1680660494550,
            "trialTime": 0
        },
        {
            "exptPart": "trial",
            "trialNumber": 19,
            "roleCurrent": "receiver",
            "marblesSampled": 100,
            "probRed": 0.5,
            "lambda": 5,
            "drawnRed": 17,
            "reportedRed": 20,
            "inferredRed": 14,
            "playerTrialScore": -3,
            "oppTrialScore": 0,
            "playerTotalScore": -14,
            "oppTotalScore": -102,
            "waitTime": 6679.740244595357,
            "responseTime": 1680660582677,
            "catchQuestion": "How many <b class=\"r\">red<\/b> marbles did you actually draw (before any changes)? ",
            "catchKey": -1,
            "catchResponse": -1,
            "catchTime": 1680660494550,
            "trialTime": 0
        },
        {
            "exptPart": "trial",
            "trialNumber": 20,
            "roleCurrent": "sender",
            "marblesSampled": 100,
            "probRed": 0.5,
            "lambda": 5,
            "drawnRed": 35,
            "reportedRed": 66,
            "inferredRed": 64,
            "playerTrialScore": 29,
            "oppTrialScore": -29,
            "playerTotalScore": 15,
            "oppTotalScore": -131,
            "waitTime": 2427.886483972067,
            "responseTime": 1680660619622,
            "catchQuestion": "How many <b class=\"r\">red<\/b> marbles did you actually draw (before any changes)? ",
            "catchKey": -1,
            "catchResponse": -1,
            "catchTime": 1680660619622,
            "trialTime": 0
        },
        {
            "exptPart": "trial",
            "trialNumber": 21,
            "roleCurrent": "receiver",
            "marblesSampled": 100,
            "probRed": 0.5,
            "lambda": 5,
            "drawnRed": 62,
            "reportedRed": 67,
            "inferredRed": 52,
            "playerTrialScore": -10,
            "oppTrialScore": 0,
            "playerTotalScore": 5,
            "oppTotalScore": -131,
            "waitTime": 6070.82958754752,
            "responseTime": 1680660637343,
            "catchQuestion": "How many <b class=\"r\">red<\/b> marbles did you actually draw (before any changes)? ",
            "catchKey": -1,
            "catchResponse": -1,
            "catchTime": 1680660619622,
            "trialTime": 0
        },
        {
            "exptPart": "trial",
            "trialNumber": 22,
            "roleCurrent": "sender",
            "marblesSampled": 100,
            "probRed": 0.5,
            "lambda": 5,
            "drawnRed": 67,
            "reportedRed": 90,
            "inferredRed": 86,
            "playerTrialScore": 19,
            "oppTrialScore": -19,
            "playerTotalScore": 24,
            "oppTotalScore": -150,
            "waitTime": 2361.735105049572,
            "responseTime": 1680660671948,
            "catchQuestion": "How many <b class=\"r\">red<\/b> marbles did you actually draw (before any changes)? ",
            "catchKey": -1,
            "catchResponse": -1,
            "catchTime": 1680660619622,
            "trialTime": 0
        },
        {
            "exptPart": "trial",
            "trialNumber": 23,
            "roleCurrent": "receiver",
            "marblesSampled": 100,
            "probRed": 0.5,
            "lambda": 5,
            "drawnRed": 66,
            "reportedRed": 73,
            "inferredRed": 64,
            "playerTrialScore": -2,
            "oppTrialScore": 0,
            "playerTotalScore": 22,
            "oppTotalScore": -150,
            "waitTime": 6295.539460805763,
            "responseTime": 1680660688413,
            "catchQuestion": "How many <b class=\"r\">red<\/b> marbles did you actually draw (before any changes)? ",
            "catchKey": -1,
            "catchResponse": -1,
            "catchTime": 1680660619622,
            "trialTime": 0
        },
        {
            "exptPart": "trial",
            "trialNumber": 24,
            "roleCurrent": "sender",
            "marblesSampled": 100,
            "probRed": 0.5,
            "lambda": 5,
            "drawnRed": 54,
            "reportedRed": 73,
            "inferredRed": 69,
            "playerTrialScore": 15,
            "oppTrialScore": -15,
            "playerTotalScore": 37,
            "oppTotalScore": -165,
            "waitTime": 2323.1970401204444,
            "responseTime": 1680660709163,
            "catchQuestion": "How many <b class=\"r\">red<\/b> marbles did you actually draw (before any changes)? ",
            "catchKey": -1,
            "catchResponse": -1,
            "catchTime": 1680660619622,
            "trialTime": 0
        },
        {
            "exptPart": "trial",
            "trialNumber": 25,
            "roleCurrent": "receiver",
            "marblesSampled": 100,
            "probRed": 0.5,
            "lambda": 5,
            "drawnRed": 48,
            "reportedRed": 51,
            "inferredRed": 37,
            "playerTrialScore": -11,
            "oppTrialScore": 0,
            "playerTotalScore": 26,
            "oppTotalScore": -165,
            "waitTime": 6136.964516282724,
            "responseTime": 1680660724388,
            "catchQuestion": "How many <b class=\"r\">red<\/b> marbles did you actually draw (before any changes)? ",
            "catchKey": -1,
            "catchResponse": -1,
            "catchTime": 1680660724389,
            "trialTime": 0
        },
        {
            "exptPart": "trial",
            "trialNumber": 26,
            "roleCurrent": "sender",
            "marblesSampled": 100,
            "probRed": 0.5,
            "lambda": 5,
            "drawnRed": 62,
            "reportedRed": 84,
            "inferredRed": 75,
            "playerTrialScore": 13,
            "oppTrialScore": -13,
            "playerTotalScore": 39,
            "oppTotalScore": -178,
            "waitTime": 2686.299581194173,
            "responseTime": 1680660784870,
            "catchQuestion": "How many <b class=\"r\">red<\/b> marbles did you actually draw (before any changes)? ",
            "catchKey": -1,
            "catchResponse": -1,
            "catchTime": 1680660724389,
            "trialTime": 0
        },
        {
            "exptPart": "trial",
            "trialNumber": 27,
            "roleCurrent": "receiver",
            "marblesSampled": 100,
            "probRed": 0.5,
            "lambda": 5,
            "drawnRed": 35,
            "reportedRed": 40,
            "inferredRed": 28,
            "playerTrialScore": -7,
            "oppTrialScore": 0,
            "playerTotalScore": 32,
            "oppTotalScore": -178,
            "waitTime": 7437.654189425817,
            "responseTime": 1680660804489,
            "catchQuestion": "How many <b class=\"r\">red<\/b> marbles did you actually draw (before any changes)? ",
            "catchKey": -1,
            "catchResponse": -1,
            "catchTime": 1680660724389,
            "trialTime": 0
        },
        {
            "exptPart": "trial",
            "trialNumber": 28,
            "roleCurrent": "sender",
            "marblesSampled": 100,
            "probRed": 0.5,
            "lambda": 5,
            "drawnRed": 62,
            "reportedRed": 79,
            "inferredRed": 72,
            "playerTrialScore": 10,
            "oppTrialScore": -10,
            "playerTotalScore": 42,
            "oppTotalScore": -188,
            "waitTime": 2524.965189068715,
            "responseTime": 1680660832363,
            "catchQuestion": "How many <b class=\"r\">red<\/b> marbles did you actually draw (before any changes)? ",
            "catchKey": -1,
            "catchResponse": -1,
            "catchTime": 1680660724389,
            "trialTime": 0
        },
        {
            "exptPart": "trial",
            "trialNumber": 29,
            "roleCurrent": "receiver",
            "marblesSampled": 100,
            "probRed": 0.5,
            "lambda": 5,
            "drawnRed": 53,
            "reportedRed": 57,
            "inferredRed": 42,
            "playerTrialScore": -11,
            "oppTrialScore": 0,
            "playerTotalScore": 31,
            "oppTotalScore": -188,
            "waitTime": 5690.712878208739,
            "responseTime": 1680660846599,
            "catchQuestion": "How many <b class=\"r\">red<\/b> marbles did you actually draw (before any changes)? ",
            "catchKey": -1,
            "catchResponse": -1,
            "catchTime": 1680660724389,
            "trialTime": 0
        },
        {
            "exptPart": "trial",
            "trialNumber": 30,
            "roleCurrent": "sender",
            "marblesSampled": 100,
            "probRed": 0.5,
            "lambda": 5,
            "drawnRed": 61,
            "reportedRed": 75,
            "inferredRed": 73,
            "playerTrialScore": 12,
            "oppTrialScore": -12,
            "playerTotalScore": 43,
            "oppTotalScore": -200,
            "waitTime": 3235.9989506272063,
            "responseTime": 1680660870877,
            "catchQuestion": "How many <b class=\"r\">red<\/b> marbles did you actually draw (before any changes)? ",
            "catchKey": -1,
            "catchResponse": -1,
            "catchTime": 1680660870878,
            "trialTime": 0
        },
        {
            "exptPart": "trial",
            "trialNumber": 31,
            "roleCurrent": "receiver",
            "marblesSampled": 100,
            "probRed": 0.5,
            "lambda": 5,
            "drawnRed": 82,
            "reportedRed": 87,
            "inferredRed": 58,
            "playerTrialScore": -24,
            "oppTrialScore": 0,
            "playerTotalScore": 19,
            "oppTotalScore": -200,
            "waitTime": 6459.81992299673,
            "responseTime": 1680660906016,
            "catchQuestion": "How many <b class=\"r\">red<\/b> marbles did you actually draw (before any changes)? ",
            "catchKey": -1,
            "catchResponse": -1,
            "catchTime": 1680660870878,
            "trialTime": 0
        },
        {
            "exptPart": "trial",
            "trialNumber": 32,
            "roleCurrent": "sender",
            "marblesSampled": 100,
            "probRed": 0.5,
            "lambda": 5,
            "drawnRed": 47,
            "reportedRed": 71,
            "inferredRed": 65,
            "playerTrialScore": 18,
            "oppTrialScore": -18,
            "playerTotalScore": 37,
            "oppTotalScore": -218,
            "waitTime": 2814.4414765730826,
            "responseTime": 1680660930083,
            "catchQuestion": "How many <b class=\"r\">red<\/b> marbles did you actually draw (before any changes)? ",
            "catchKey": -1,
            "catchResponse": -1,
            "catchTime": 1680660870878,
            "trialTime": 0
        },
        {
            "exptPart": "trial",
            "trialNumber": 33,
            "roleCurrent": "receiver",
            "marblesSampled": 100,
            "probRed": 0.5,
            "lambda": 5,
            "drawnRed": 42,
            "reportedRed": 47,
            "inferredRed": 36,
            "playerTrialScore": -6,
            "oppTrialScore": 0,
            "playerTotalScore": 31,
            "oppTotalScore": -218,
            "waitTime": 5715.5917312183865,
            "responseTime": 1680660964589,
            "catchQuestion": "How many <b class=\"r\">red<\/b> marbles did you actually draw (before any changes)? ",
            "catchKey": -1,
            "catchResponse": -1,
            "catchTime": 1680660870878,
            "trialTime": 0
        },
        {
            "exptPart": "trial",
            "trialNumber": 34,
            "roleCurrent": "sender",
            "marblesSampled": 100,
            "probRed": 0.5,
            "lambda": 5,
            "drawnRed": 11,
            "reportedRed": 32,
            "inferredRed": 26,
            "playerTrialScore": 15,
            "oppTrialScore": -15,
            "playerTotalScore": 46,
            "oppTotalScore": -233,
            "waitTime": 2880.6185223728326,
            "responseTime": 1680661005673,
            "catchQuestion": "How many <b class=\"r\">red<\/b> marbles did you actually draw (before any changes)? ",
            "catchKey": -1,
            "catchResponse": -1,
            "catchTime": 1680660870878,
            "trialTime": 0
        },
        {
            "exptPart": "trial",
            "trialNumber": 35,
            "roleCurrent": "receiver",
            "marblesSampled": 100,
            "probRed": 0.5,
            "lambda": 5,
            "drawnRed": 23,
            "reportedRed": 27,
            "inferredRed": 19,
            "playerTrialScore": -4,
            "oppTrialScore": 0,
            "playerTotalScore": 42,
            "oppTotalScore": -233,
            "waitTime": 6989.294268264768,
            "responseTime": 1680661023466,
            "catchQuestion": "How many <b class=\"r\">red<\/b> marbles did you actually draw (before any changes)? ",
            "catchKey": -1,
            "catchResponse": -1,
            "catchTime": 1680661023466,
            "trialTime": 0
        },
        {
            "exptPart": "trial",
            "trialNumber": 36,
            "roleCurrent": "sender",
            "marblesSampled": 100,
            "probRed": 0.5,
            "lambda": 5,
            "drawnRed": 18,
            "reportedRed": 34,
            "inferredRed": 30,
            "playerTrialScore": 12,
            "oppTrialScore": -12,
            "playerTotalScore": 54,
            "oppTotalScore": -245,
            "waitTime": 2416.773514086881,
            "responseTime": 1680661056433,
            "catchQuestion": "How many <b class=\"r\">red<\/b> marbles did you actually draw (before any changes)? ",
            "catchKey": -1,
            "catchResponse": -1,
            "catchTime": 1680661023466,
            "trialTime": 0
        },
        {
            "exptPart": "trial",
            "trialNumber": 37,
            "roleCurrent": "receiver",
            "marblesSampled": 100,
            "probRed": 0.5,
            "lambda": 5,
            "drawnRed": 57,
            "reportedRed": 61,
            "inferredRed": 49,
            "playerTrialScore": -8,
            "oppTrialScore": 0,
            "playerTotalScore": 46,
            "oppTotalScore": -245,
            "waitTime": 6398.629523010857,
            "responseTime": 1680661083090,
            "catchQuestion": "How many <b class=\"r\">red<\/b> marbles did you actually draw (before any changes)? ",
            "catchKey": -1,
            "catchResponse": -1,
            "catchTime": 1680661023466,
            "trialTime": 0
        },
        {
            "exptPart": "trial",
            "trialNumber": 38,
            "roleCurrent": "sender",
            "marblesSampled": 100,
            "probRed": 0.5,
            "lambda": 5,
            "drawnRed": 53,
            "reportedRed": 69,
            "inferredRed": 62,
            "playerTrialScore": 9,
            "oppTrialScore": -9,
            "playerTotalScore": 55,
            "oppTotalScore": -254,
            "waitTime": 3191.061982398,
            "responseTime": 1680661121722,
            "catchQuestion": "How many <b class=\"r\">red<\/b> marbles did you actually draw (before any changes)? ",
            "catchKey": -1,
            "catchResponse": -1,
            "catchTime": 1680661023466,
            "trialTime": 0
        },
        {
            "exptPart": "trial",
            "trialNumber": 39,
            "roleCurrent": "receiver",
            "marblesSampled": 100,
            "probRed": 0.5,
            "lambda": 5,
            "drawnRed": 21,
            "reportedRed": 28,
            "inferredRed": 17,
            "playerTrialScore": -4,
            "oppTrialScore": 0,
            "playerTotalScore": 51,
            "oppTotalScore": -254,
            "waitTime": 6916.3999516170115,
            "responseTime": 1680661145905,
            "catchQuestion": "How many <b class=\"r\">red<\/b> marbles did you actually draw (before any changes)? ",
            "catchKey": -1,
            "catchResponse": -1,
            "catchTime": 1680661023466,
            "trialTime": 0
        },
        {
            "exptPart": "trial",
            "trialNumber": 40,
            "roleCurrent": "sender",
            "marblesSampled": 100,
            "probRed": 0.5,
            "lambda": 5,
            "drawnRed": 59,
            "reportedRed": 70,
            "inferredRed": 67,
            "playerTrialScore": 8,
            "oppTrialScore": -8,
            "playerTotalScore": 59,
            "oppTotalScore": -262,
            "waitTime": 2785.6190321959048,
            "responseTime": 1680661215630,
            "catchQuestion": "How many <b class=\"r\">red<\/b> marbles did you actually draw (before any changes)? ",
            "catchKey": -1,
            "catchResponse": -1,
            "catchTime": 1680661215630,
            "trialTime": 0
        },
        {
            "exptPart": "trial",
            "trialNumber": 41,
            "roleCurrent": "receiver",
            "marblesSampled": 100,
            "probRed": 0.5,
            "lambda": 5,
            "drawnRed": 32,
            "reportedRed": 35,
            "inferredRed": 28,
            "playerTrialScore": -4,
            "oppTrialScore": 0,
            "playerTotalScore": 55,
            "oppTotalScore": -262,
            "waitTime": 7340.657868706882,
            "responseTime": 1680661236553,
            "catchQuestion": "How many <b class=\"r\">red<\/b> marbles did you actually draw (before any changes)? ",
            "catchKey": -1,
            "catchResponse": -1,
            "catchTime": 1680661215630,
            "trialTime": 0
        },
        {
            "exptPart": "trial",
            "trialNumber": 42,
            "roleCurrent": "sender",
            "marblesSampled": 100,
            "probRed": 0.5,
            "lambda": 5,
            "drawnRed": 79,
            "reportedRed": 92,
            "inferredRed": 86,
            "playerTrialScore": 7,
            "oppTrialScore": -7,
            "playerTotalScore": 62,
            "oppTotalScore": -269,
            "waitTime": 2420.983843685906,
            "responseTime": 1680661265435,
            "catchQuestion": "How many <b class=\"r\">red<\/b> marbles did you actually draw (before any changes)? ",
            "catchKey": -1,
            "catchResponse": -1,
            "catchTime": 1680661215630,
            "trialTime": 0
        },
        {
            "exptPart": "trial",
            "trialNumber": 43,
            "roleCurrent": "receiver",
            "marblesSampled": 100,
            "probRed": 0.5,
            "lambda": 5,
            "drawnRed": 72,
            "reportedRed": 77,
            "inferredRed": 57,
            "playerTrialScore": -15,
            "oppTrialScore": 0,
            "playerTotalScore": 47,
            "oppTotalScore": -269,
            "waitTime": 5168.240360963246,
            "responseTime": 1680661284500,
            "catchQuestion": "How many <b class=\"r\">red<\/b> marbles did you actually draw (before any changes)? ",
            "catchKey": -1,
            "catchResponse": -1,
            "catchTime": 1680661215630,
            "trialTime": 0
        },
        {
            "exptPart": "trial",
            "trialNumber": 44,
            "roleCurrent": "sender",
            "marblesSampled": 100,
            "probRed": 0.5,
            "lambda": 5,
            "drawnRed": 23,
            "reportedRed": 46,
            "inferredRed": 40,
            "playerTrialScore": 17,
            "oppTrialScore": -17,
            "playerTotalScore": 64,
            "oppTotalScore": -286,
            "waitTime": 2065.097502051871,
            "responseTime": 1680661319686,
            "catchQuestion": "How many <b class=\"r\">red<\/b> marbles did you actually draw (before any changes)? ",
            "catchKey": -1,
            "catchResponse": -1,
            "catchTime": 1680661215630,
            "trialTime": 0
        },
        {
            "exptPart": "trial",
            "trialNumber": 45,
            "roleCurrent": "receiver",
            "marblesSampled": 100,
            "probRed": 0.5,
            "lambda": 5,
            "drawnRed": 49,
            "reportedRed": 56,
            "inferredRed": 46,
            "playerTrialScore": -3,
            "oppTrialScore": 0,
            "playerTotalScore": 61,
            "oppTotalScore": -286,
            "waitTime": 5725.582439841091,
            "responseTime": 1680661334639,
            "catchQuestion": "How many <b class=\"r\">red<\/b> marbles did you actually draw (before any changes)? ",
            "catchKey": -1,
            "catchResponse": -1,
            "catchTime": 1680661334639,
            "trialTime": 0
        },
        {
            "exptPart": "trial",
            "trialNumber": 46,
            "roleCurrent": "sender",
            "marblesSampled": 100,
            "probRed": 0.5,
            "lambda": 5,
            "drawnRed": 59,
            "reportedRed": 75,
            "inferredRed": 66,
            "playerTrialScore": 7,
            "oppTrialScore": -7,
            "playerTotalScore": 68,
            "oppTotalScore": -293,
            "waitTime": 2244.441040571518,
            "responseTime": 1680661362166,
            "catchQuestion": "How many <b class=\"r\">red<\/b> marbles did you actually draw (before any changes)? ",
            "catchKey": -1,
            "catchResponse": -1,
            "catchTime": 1680661334639,
            "trialTime": 0
        },
        {
            "exptPart": "trial",
            "trialNumber": 47,
            "roleCurrent": "receiver",
            "marblesSampled": 100,
            "probRed": 0.5,
            "lambda": 5,
            "drawnRed": 68,
            "reportedRed": 73,
            "inferredRed": 55,
            "playerTrialScore": -13,
            "oppTrialScore": 0,
            "playerTotalScore": 55,
            "oppTotalScore": -293,
            "waitTime": 5445.1334499794175,
            "responseTime": 1680661373043,
            "catchQuestion": "How many <b class=\"r\">red<\/b> marbles did your opponent report drawing? ",
            "catchKey": 73,
            "catchResponse": 73,
            "catchTime": 1680661373044,
            "trialTime": 0
        },
        {
            "exptPart": "trial",
            "trialNumber": 48,
            "roleCurrent": "sender",
            "marblesSampled": 100,
            "probRed": 0.5,
            "lambda": 5,
            "drawnRed": 91,
            "reportedRed": 100,
            "inferredRed": 94,
            "playerTrialScore": 3,
            "oppTrialScore": -3,
            "playerTotalScore": 58,
            "oppTotalScore": -296,
            "waitTime": 2613.639657543214,
            "responseTime": 1680661415443,
            "catchQuestion": "How many <b class=\"r\">red<\/b> marbles did your opponent report drawing? ",
            "catchKey": -1,
            "catchResponse": -1,
            "catchTime": 1680661373044,
            "trialTime": 0
        },
        {
            "exptPart": "trial",
            "trialNumber": 49,
            "roleCurrent": "receiver",
            "marblesSampled": 100,
            "probRed": 0.5,
            "lambda": 5,
            "drawnRed": 55,
            "reportedRed": 68,
            "inferredRed": 56,
            "playerTrialScore": -1,
            "oppTrialScore": 1,
            "playerTotalScore": 57,
            "oppTotalScore": -295,
            "waitTime": 6783.653964829677,
            "responseTime": 1680661428188,
            "catchQuestion": "How many <b class=\"r\">red<\/b> marbles did your opponent report drawing? ",
            "catchKey": -1,
            "catchResponse": -1,
            "catchTime": 1680661373044,
            "trialTime": 0
        },
        {
            "exptPart": "trial",
            "trialNumber": 50,
            "roleCurrent": "sender",
            "marblesSampled": 100,
            "probRed": 0.5,
            "lambda": 5,
            "drawnRed": 28,
            "reportedRed": 47,
            "inferredRed": 42,
            "playerTrialScore": 14,
            "oppTrialScore": -14,
            "playerTotalScore": 71,
            "oppTotalScore": -309,
            "waitTime": 2100.8694536514786,
            "responseTime": 1680661452145,
            "catchQuestion": "How many <b class=\"r\">red<\/b> marbles did your opponent report drawing? ",
            "catchKey": -1,
            "catchResponse": -1,
            "catchTime": 1680661452145,
            "trialTime": 0
        },
        {
            "exptPart": "trial",
            "trialNumber": 51,
            "roleCurrent": "receiver",
            "marblesSampled": 100,
            "probRed": 0.5,
            "lambda": 5,
            "drawnRed": 25,
            "reportedRed": 33,
            "inferredRed": 22,
            "playerTrialScore": -3,
            "oppTrialScore": 0,
            "playerTotalScore": 68,
            "oppTotalScore": -309,
            "waitTime": 5493.009004192835,
            "responseTime": 1680661477060,
            "catchQuestion": "How many <b class=\"r\">red<\/b> marbles did your opponent report drawing? ",
            "catchKey": 33,
            "catchResponse": 33,
            "catchTime": 1680661477060,
            "trialTime": 0
        },
        {
            "exptPart": "trial",
            "trialNumber": 52,
            "roleCurrent": "sender",
            "marblesSampled": 100,
            "probRed": 0.5,
            "lambda": 5,
            "drawnRed": 44,
            "reportedRed": 59,
            "inferredRed": 52,
            "playerTrialScore": 8,
            "oppTrialScore": -8,
            "playerTotalScore": 76,
            "oppTotalScore": -317,
            "waitTime": 2738.721642543511,
            "responseTime": 1680661507494,
            "catchQuestion": "How many <b class=\"r\">red<\/b> marbles did your opponent report drawing? ",
            "catchKey": -1,
            "catchResponse": -1,
            "catchTime": 1680661477060,
            "trialTime": 0
        },
        {
            "exptPart": "trial",
            "trialNumber": 53,
            "roleCurrent": "receiver",
            "marblesSampled": 100,
            "probRed": 0.5,
            "lambda": 5,
            "drawnRed": 48,
            "reportedRed": 51,
            "inferredRed": 34,
            "playerTrialScore": -14,
            "oppTrialScore": 0,
            "playerTotalScore": 62,
            "oppTotalScore": -317,
            "waitTime": 6395.196288663581,
            "responseTime": 1680661519897,
            "catchQuestion": "How many <b class=\"r\">red<\/b> marbles did your opponent report drawing? ",
            "catchKey": -1,
            "catchResponse": -1,
            "catchTime": 1680661477060,
            "trialTime": 0
        },
        {
            "exptPart": "trial",
            "trialNumber": 54,
            "roleCurrent": "sender",
            "marblesSampled": 100,
            "probRed": 0.5,
            "lambda": 5,
            "drawnRed": 53,
            "reportedRed": 87,
            "inferredRed": 79,
            "playerTrialScore": 26,
            "oppTrialScore": -26,
            "playerTotalScore": 88,
            "oppTotalScore": -343,
            "waitTime": 3209.2969721273953,
            "responseTime": 1680661547564,
            "catchQuestion": "How many <b class=\"r\">red<\/b> marbles did your opponent report drawing? ",
            "catchKey": -1,
            "catchResponse": -1,
            "catchTime": 1680661477060,
            "trialTime": 0
        },
        {
            "exptPart": "trial",
            "trialNumber": 55,
            "roleCurrent": "receiver",
            "marblesSampled": 100,
            "probRed": 0.5,
            "lambda": 5,
            "drawnRed": 33,
            "reportedRed": 43,
            "inferredRed": 32,
            "playerTrialScore": -1,
            "oppTrialScore": 0,
            "playerTotalScore": 87,
            "oppTotalScore": -343,
            "waitTime": 7107.224964548088,
            "responseTime": 1680661572936,
            "catchQuestion": "How many <b class=\"r\">red<\/b> marbles did your opponent report drawing? ",
            "catchKey": -1,
            "catchResponse": -1,
            "catchTime": 1680661572936,
            "trialTime": 0
        },
        {
            "exptPart": "trial",
            "trialNumber": 56,
            "roleCurrent": "sender",
            "marblesSampled": 100,
            "probRed": 0.5,
            "lambda": 5,
            "drawnRed": 32,
            "reportedRed": 67,
            "inferredRed": 62,
            "playerTrialScore": 30,
            "oppTrialScore": -30,
            "playerTotalScore": 117,
            "oppTotalScore": -373,
            "waitTime": 2892.20212581969,
            "responseTime": 1680661614071,
            "catchQuestion": "How many <b class=\"r\">red<\/b> marbles did your opponent report drawing? ",
            "catchKey": -1,
            "catchResponse": -1,
            "catchTime": 1680661572936,
            "trialTime": 0
        },
        {
            "exptPart": "trial",
            "trialNumber": 57,
            "roleCurrent": "receiver",
            "marblesSampled": 100,
            "probRed": 0.5,
            "lambda": 5,
            "drawnRed": 68,
            "reportedRed": 72,
            "inferredRed": 59,
            "playerTrialScore": -9,
            "oppTrialScore": 0,
            "playerTotalScore": 108,
            "oppTotalScore": -373,
            "waitTime": 5540.0195930990985,
            "responseTime": 1680661630824,
            "catchQuestion": "How many <b class=\"r\">red<\/b> marbles did your opponent report drawing? ",
            "catchKey": 72,
            "catchResponse": 72,
            "catchTime": 1680661630825,
            "trialTime": 0
        },
        {
            "exptPart": "trial",
            "trialNumber": 58,
            "roleCurrent": "sender",
            "marblesSampled": 100,
            "probRed": 0.5,
            "lambda": 5,
            "drawnRed": 56,
            "reportedRed": 77,
            "inferredRed": 72,
            "playerTrialScore": 16,
            "oppTrialScore": -16,
            "playerTotalScore": 124,
            "oppTotalScore": -389,
            "waitTime": 2189.3535629293237,
            "responseTime": 1680661662807,
            "catchQuestion": "How many <b class=\"r\">red<\/b> marbles did your opponent report drawing? ",
            "catchKey": -1,
            "catchResponse": -1,
            "catchTime": 1680661630825,
            "trialTime": 0
        },
        {
            "exptPart": "trial",
            "trialNumber": 59,
            "roleCurrent": "receiver",
            "marblesSampled": 100,
            "probRed": 0.5,
            "lambda": 5,
            "drawnRed": 72,
            "reportedRed": 78,
            "inferredRed": 45,
            "playerTrialScore": -27,
            "oppTrialScore": 0,
            "playerTotalScore": 97,
            "oppTotalScore": -389,
            "waitTime": 7277.1574876759405,
            "responseTime": 1680661687633,
            "catchQuestion": "How many <b class=\"r\">red<\/b> marbles did your opponent report drawing? ",
            "catchKey": -1,
            "catchResponse": -1,
            "catchTime": 1680661630825,
            "trialTime": 0
        },
        {
            "exptPart": "trial",
            "trialNumber": 60,
            "roleCurrent": "sender",
            "marblesSampled": 100,
            "probRed": 0.5,
            "lambda": 5,
            "drawnRed": 93,
            "reportedRed": 100,
            "inferredRed": 93,
            "playerTrialScore": 0,
            "oppTrialScore": 0,
            "playerTotalScore": 97,
            "oppTotalScore": -389,
            "waitTime": 2378.369314367822,
            "responseTime": 1680661710134,
            "catchQuestion": "How many <b class=\"r\">red<\/b> marbles did your opponent report drawing? ",
            "catchKey": -1,
            "catchResponse": -1,
            "catchTime": 1680661710134,
            "trialTime": 0
        },
        {
            "exptPart": "trial",
            "trialNumber": 61,
            "roleCurrent": "receiver",
            "marblesSampled": 100,
            "probRed": 0.5,
            "lambda": 5,
            "drawnRed": 68,
            "reportedRed": 78,
            "inferredRed": 60,
            "playerTrialScore": -8,
            "oppTrialScore": 0,
            "playerTotalScore": 89,
            "oppTotalScore": -389,
            "waitTime": 5953.485182962848,
            "responseTime": 1680661733305,
            "catchQuestion": "How many <b class=\"r\">red<\/b> marbles did your opponent report drawing? ",
            "catchKey": 78,
            "catchResponse": 78,
            "catchTime": 1680661733305,
            "trialTime": 0
        },
        {
            "exptPart": "trial",
            "trialNumber": 62,
            "roleCurrent": "sender",
            "marblesSampled": 100,
            "probRed": 0.5,
            "lambda": 5,
            "drawnRed": 68,
            "reportedRed": 83,
            "inferredRed": 76,
            "playerTrialScore": 8,
            "oppTrialScore": -8,
            "playerTotalScore": 97,
            "oppTotalScore": -397,
            "waitTime": 2402.6497191243316,
            "responseTime": 1680661771539,
            "catchQuestion": "How many <b class=\"r\">red<\/b> marbles did your opponent report drawing? ",
            "catchKey": -1,
            "catchResponse": -1,
            "catchTime": 1680661733305,
            "trialTime": 0
        },
        {
            "exptPart": "trial",
            "trialNumber": 63,
            "roleCurrent": "receiver",
            "marblesSampled": 100,
            "probRed": 0.5,
            "lambda": 5,
            "drawnRed": 48,
            "reportedRed": 53,
            "inferredRed": 42,
            "playerTrialScore": -6,
            "oppTrialScore": 0,
            "playerTotalScore": 91,
            "oppTotalScore": -397,
            "waitTime": 6571.041093902605,
            "responseTime": 1680661786687,
            "catchQuestion": "How many <b class=\"r\">red<\/b> marbles did your opponent report drawing? ",
            "catchKey": -1,
            "catchResponse": -1,
            "catchTime": 1680661733305,
            "trialTime": 0
        },
        {
            "exptPart": "trial",
            "trialNumber": 64,
            "roleCurrent": "sender",
            "marblesSampled": 100,
            "probRed": 0.5,
            "lambda": 5,
            "drawnRed": 61,
            "reportedRed": 83,
            "inferredRed": 78,
            "playerTrialScore": 17,
            "oppTrialScore": -17,
            "playerTotalScore": 108,
            "oppTotalScore": -414,
            "waitTime": 3084.644394725786,
            "responseTime": 1680661810823,
            "catchQuestion": "How many <b class=\"r\">red<\/b> marbles did your opponent report drawing? ",
            "catchKey": -1,
            "catchResponse": -1,
            "catchTime": 1680661733305,
            "trialTime": 0
        },
        {
            "exptPart": "trial",
            "trialNumber": 65,
            "roleCurrent": "receiver",
            "marblesSampled": 100,
            "probRed": 0.5,
            "lambda": 5,
            "drawnRed": 50,
            "reportedRed": 55,
            "inferredRed": 34,
            "playerTrialScore": -16,
            "oppTrialScore": 0,
            "playerTotalScore": 92,
            "oppTotalScore": -414,
            "waitTime": 5597.514144205055,
            "responseTime": 1680661823755,
            "catchQuestion": "How many <b class=\"r\">red<\/b> marbles did your opponent report drawing? ",
            "catchKey": -1,
            "catchResponse": -1,
            "catchTime": 1680661823756,
            "trialTime": 0
        },
        {
            "exptPart": "trial",
            "trialNumber": 66,
            "roleCurrent": "sender",
            "marblesSampled": 100,
            "probRed": 0.5,
            "lambda": 5,
            "drawnRed": 51,
            "reportedRed": 70,
            "inferredRed": 67,
            "playerTrialScore": 16,
            "oppTrialScore": -16,
            "playerTotalScore": 108,
            "oppTotalScore": -430,
            "waitTime": 2095.477924829449,
            "responseTime": 1680661869108,
            "catchQuestion": "How many <b class=\"r\">red<\/b> marbles did your opponent report drawing? ",
            "catchKey": -1,
            "catchResponse": -1,
            "catchTime": 1680661823756,
            "trialTime": 0
        },
        {
            "exptPart": "trial",
            "trialNumber": 67,
            "roleCurrent": "receiver",
            "marblesSampled": 100,
            "probRed": 0.5,
            "lambda": 5,
            "drawnRed": 51,
            "reportedRed": 53,
            "inferredRed": 39,
            "playerTrialScore": -12,
            "oppTrialScore": 0,
            "playerTotalScore": 96,
            "oppTotalScore": -430,
            "waitTime": 6459.037347804962,
            "responseTime": 1680661881210,
            "catchQuestion": "How many <b class=\"r\">red<\/b> marbles did your opponent report drawing? ",
            "catchKey": 53,
            "catchResponse": 53,
            "catchTime": 1680661881210,
            "trialTime": 0
        },
        {
            "exptPart": "trial",
            "trialNumber": 68,
            "roleCurrent": "sender",
            "marblesSampled": 100,
            "probRed": 0.5,
            "lambda": 5,
            "drawnRed": 81,
            "reportedRed": 96,
            "inferredRed": 89,
            "playerTrialScore": 8,
            "oppTrialScore": -8,
            "playerTotalScore": 104,
            "oppTotalScore": -438,
            "waitTime": 2248.304050566506,
            "responseTime": 1680661907311,
            "catchQuestion": "How many <b class=\"r\">red<\/b> marbles did your opponent report drawing? ",
            "catchKey": -1,
            "catchResponse": -1,
            "catchTime": 1680661881210,
            "trialTime": 0
        },
        {
            "exptPart": "trial",
            "trialNumber": 69,
            "roleCurrent": "receiver",
            "marblesSampled": 100,
            "probRed": 0.5,
            "lambda": 5,
            "drawnRed": 46,
            "reportedRed": 52,
            "inferredRed": 45,
            "playerTrialScore": -1,
            "oppTrialScore": 0,
            "playerTotalScore": 103,
            "oppTotalScore": -438,
            "waitTime": 6573.875492111176,
            "responseTime": 1680661929940,
            "catchQuestion": "How many <b class=\"r\">red<\/b> marbles did your opponent report drawing? ",
            "catchKey": -1,
            "catchResponse": -1,
            "catchTime": 1680661881210,
            "trialTime": 0
        },
        {
            "exptPart": "trial",
            "trialNumber": 70,
            "roleCurrent": "sender",
            "marblesSampled": 100,
            "probRed": 0.5,
            "lambda": 5,
            "drawnRed": 62,
            "reportedRed": 83,
            "inferredRed": 78,
            "playerTrialScore": 16,
            "oppTrialScore": -16,
            "playerTotalScore": 119,
            "oppTotalScore": -454,
            "waitTime": 2633.9089758832565,
            "responseTime": 1680661965606,
            "catchQuestion": "How many <b class=\"r\">red<\/b> marbles did your opponent report drawing? ",
            "catchKey": -1,
            "catchResponse": -1,
            "catchTime": 1680661965606,
            "trialTime": 0
        },
        {
            "exptPart": "trial",
            "trialNumber": 71,
            "roleCurrent": "receiver",
            "marblesSampled": 100,
            "probRed": 0.5,
            "lambda": 5,
            "drawnRed": 41,
            "reportedRed": 44,
            "inferredRed": 35,
            "playerTrialScore": -6,
            "oppTrialScore": 0,
            "playerTotalScore": 113,
            "oppTotalScore": -454,
            "waitTime": 6905.306762630511,
            "responseTime": 1680661986019,
            "catchQuestion": "How many <b class=\"r\">red<\/b> marbles did your opponent report drawing? ",
            "catchKey": -1,
            "catchResponse": -1,
            "catchTime": 1680661965606,
            "trialTime": 0
        },
        {
            "exptPart": "trial",
            "trialNumber": 72,
            "roleCurrent": "sender",
            "marblesSampled": 100,
            "probRed": 0.5,
            "lambda": 5,
            "drawnRed": 23,
            "reportedRed": 55,
            "inferredRed": 51,
            "playerTrialScore": 28,
            "oppTrialScore": -28,
            "playerTotalScore": 141,
            "oppTotalScore": -482,
            "waitTime": 2719.9592307623616,
            "responseTime": 1680662030576,
            "catchQuestion": "How many <b class=\"r\">red<\/b> marbles did your opponent report drawing? ",
            "catchKey": -1,
            "catchResponse": -1,
            "catchTime": 1680661965606,
            "trialTime": 0
        },
        {
            "exptPart": "trial",
            "trialNumber": 73,
            "roleCurrent": "receiver",
            "marblesSampled": 100,
            "probRed": 0.5,
            "lambda": 5,
            "drawnRed": 68,
            "reportedRed": 71,
            "inferredRed": 44,
            "playerTrialScore": -24,
            "oppTrialScore": 0,
            "playerTotalScore": 117,
            "oppTotalScore": -482,
            "waitTime": 6269.282557343626,
            "responseTime": 1680662043796,
            "catchQuestion": "How many <b class=\"r\">red<\/b> marbles did your opponent report drawing? ",
            "catchKey": -1,
            "catchResponse": -1,
            "catchTime": 1680661965606,
            "trialTime": 0
        },
        {
            "exptPart": "trial",
            "trialNumber": 74,
            "roleCurrent": "sender",
            "marblesSampled": 100,
            "probRed": 0.5,
            "lambda": 5,
            "drawnRed": 57,
            "reportedRed": 80,
            "inferredRed": 74,
            "playerTrialScore": 17,
            "oppTrialScore": -17,
            "playerTotalScore": 134,
            "oppTotalScore": -499,
            "waitTime": 2365.581895388865,
            "responseTime": 1680662089926,
            "catchQuestion": "How many <b class=\"r\">red<\/b> marbles did your opponent report drawing? ",
            "catchKey": -1,
            "catchResponse": -1,
            "catchTime": 1680661965606,
            "trialTime": 0
        },
        {
            "exptPart": "trial",
            "trialNumber": 75,
            "roleCurrent": "receiver",
            "marblesSampled": 100,
            "probRed": 0.5,
            "lambda": 5,
            "drawnRed": 61,
            "reportedRed": 63,
            "inferredRed": 47,
            "playerTrialScore": -14,
            "oppTrialScore": 0,
            "playerTotalScore": 120,
            "oppTotalScore": -499,
            "waitTime": 6042.994006536541,
            "responseTime": 1680662103370,
            "catchQuestion": "How many <b class=\"r\">red<\/b> marbles did your opponent report drawing? ",
            "catchKey": 63,
            "catchResponse": 63,
            "catchTime": 1680662103370,
            "trialTime": 0
        },
        {
            "exptPart": "trial",
            "trialNumber": 76,
            "roleCurrent": "sender",
            "marblesSampled": 100,
            "probRed": 0.5,
            "lambda": 5,
            "drawnRed": 68,
            "reportedRed": 89,
            "inferredRed": 83,
            "playerTrialScore": 15,
            "oppTrialScore": -15,
            "playerTotalScore": 135,
            "oppTotalScore": -514,
            "waitTime": 2928.297528705576,
            "responseTime": 1680662137207,
            "catchQuestion": "How many <b class=\"r\">red<\/b> marbles did your opponent report drawing? ",
            "catchKey": -1,
            "catchResponse": -1,
            "catchTime": 1680662103370,
            "trialTime": 0
        },
        {
            "exptPart": "trial",
            "trialNumber": 77,
            "roleCurrent": "receiver",
            "marblesSampled": 100,
            "probRed": 0.5,
            "lambda": 5,
            "drawnRed": 39,
            "reportedRed": 45,
            "inferredRed": 35,
            "playerTrialScore": -4,
            "oppTrialScore": 0,
            "playerTotalScore": 131,
            "oppTotalScore": -514,
            "waitTime": 5482.425465240637,
            "responseTime": 1680662150857,
            "catchQuestion": "How many <b class=\"r\">red<\/b> marbles did your opponent report drawing? ",
            "catchKey": -1,
            "catchResponse": -1,
            "catchTime": 1680662103370,
            "trialTime": 0
        },
        {
            "exptPart": "trial",
            "trialNumber": 78,
            "roleCurrent": "sender",
            "marblesSampled": 100,
            "probRed": 0.5,
            "lambda": 5,
            "drawnRed": 52,
            "reportedRed": 90,
            "inferredRed": 85,
            "playerTrialScore": 33,
            "oppTrialScore": -33,
            "playerTotalScore": 164,
            "oppTotalScore": -547,
            "waitTime": 2389.348685510929,
            "responseTime": 1680662183433,
            "catchQuestion": "How many <b class=\"r\">red<\/b> marbles did your opponent report drawing? ",
            "catchKey": -1,
            "catchResponse": -1,
            "catchTime": 1680662103370,
            "trialTime": 0
        },
        {
            "exptPart": "trial",
            "trialNumber": 79,
            "roleCurrent": "receiver",
            "marblesSampled": 100,
            "probRed": 0.5,
            "lambda": 5,
            "drawnRed": 72,
            "reportedRed": 82,
            "inferredRed": 63,
            "playerTrialScore": -9,
            "oppTrialScore": 0,
            "playerTotalScore": 155,
            "oppTotalScore": -547,
            "waitTime": 6665.44028180375,
            "responseTime": 1680662194836,
            "catchQuestion": "How many <b class=\"r\">red<\/b> marbles did your opponent report drawing? ",
            "catchKey": -1,
            "catchResponse": -1,
            "catchTime": 1680662103370,
            "trialTime": 0
        },
        {
            "exptPart": "trial",
            "trialNumber": 80,
            "roleCurrent": "sender",
            "marblesSampled": 100,
            "probRed": 0.5,
            "lambda": 5,
            "drawnRed": 47,
            "reportedRed": 68,
            "inferredRed": 63,
            "playerTrialScore": 16,
            "oppTrialScore": -16,
            "playerTotalScore": 171,
            "oppTotalScore": -563,
            "waitTime": 3165.035765913536,
            "responseTime": 1680662225870,
            "catchQuestion": "How many <b class=\"r\">red<\/b> marbles did your opponent report drawing? ",
            "catchKey": -1,
            "catchResponse": -1,
            "catchTime": 1680662225870,
            "trialTime": 0
        },
        {
            "exptPart": "trial",
            "trialNumber": 81,
            "roleCurrent": "receiver",
            "marblesSampled": 100,
            "probRed": 0.5,
            "lambda": 5,
            "drawnRed": 50,
            "reportedRed": 53,
            "inferredRed": 37,
            "playerTrialScore": -13,
            "oppTrialScore": 0,
            "playerTotalScore": 158,
            "oppTotalScore": -563,
            "waitTime": 7068.545777014175,
            "responseTime": 1680662241693,
            "catchQuestion": "How many <b class=\"r\">red<\/b> marbles did your opponent report drawing? ",
            "catchKey": 53,
            "catchResponse": 53,
            "catchTime": 1680662241693,
            "trialTime": 0
        },
        {
            "exptPart": "trial",
            "trialNumber": 82,
            "roleCurrent": "sender",
            "marblesSampled": 100,
            "probRed": 0.5,
            "lambda": 5,
            "drawnRed": 39,
            "reportedRed": 78,
            "inferredRed": 72,
            "playerTrialScore": 33,
            "oppTrialScore": -33,
            "playerTotalScore": 191,
            "oppTotalScore": -596,
            "waitTime": 2314.2058898681053,
            "responseTime": 1680662285008,
            "catchQuestion": "How many <b class=\"r\">red<\/b> marbles did your opponent report drawing? ",
            "catchKey": -1,
            "catchResponse": -1,
            "catchTime": 1680662241693,
            "trialTime": 0
        },
        {
            "exptPart": "trial",
            "trialNumber": 83,
            "roleCurrent": "receiver",
            "marblesSampled": 100,
            "probRed": 0.5,
            "lambda": 5,
            "drawnRed": 67,
            "reportedRed": 73,
            "inferredRed": 38,
            "playerTrialScore": -29,
            "oppTrialScore": 0,
            "playerTotalScore": 162,
            "oppTotalScore": -596,
            "waitTime": 5935.68086178342,
            "responseTime": 1680662296110,
            "catchQuestion": "How many <b class=\"r\">red<\/b> marbles did your opponent report drawing? ",
            "catchKey": -1,
            "catchResponse": -1,
            "catchTime": 1680662241693,
            "trialTime": 0
        },
        {
            "exptPart": "trial",
            "trialNumber": 84,
            "roleCurrent": "sender",
            "marblesSampled": 100,
            "probRed": 0.5,
            "lambda": 5,
            "drawnRed": 17,
            "reportedRed": 70,
            "inferredRed": 67,
            "playerTrialScore": 50,
            "oppTrialScore": -50,
            "playerTotalScore": 212,
            "oppTotalScore": -646,
            "waitTime": 2068.9551475416674,
            "responseTime": 1680662336262,
            "catchQuestion": "How many <b class=\"r\">red<\/b> marbles did your opponent report drawing? ",
            "catchKey": -1,
            "catchResponse": -1,
            "catchTime": 1680662241693,
            "trialTime": 0
        },
        {
            "exptPart": "trial",
            "trialNumber": 85,
            "roleCurrent": "receiver",
            "marblesSampled": 100,
            "probRed": 0.5,
            "lambda": 5,
            "drawnRed": 17,
            "reportedRed": 22,
            "inferredRed": 12,
            "playerTrialScore": -5,
            "oppTrialScore": 0,
            "playerTotalScore": 207,
            "oppTotalScore": -646,
            "waitTime": 5204.1927602689575,
            "responseTime": 1680662355516,
            "catchQuestion": "How many <b class=\"r\">red<\/b> marbles did your opponent report drawing? ",
            "catchKey": 22,
            "catchResponse": 22,
            "catchTime": 1680662355516,
            "trialTime": 0
        },
        {
            "exptPart": "trial",
            "trialNumber": 86,
            "roleCurrent": "sender",
            "marblesSampled": 100,
            "probRed": 0.5,
            "lambda": 5,
            "drawnRed": 61,
            "reportedRed": 99,
            "inferredRed": 94,
            "playerTrialScore": 33,
            "oppTrialScore": -33,
            "playerTotalScore": 240,
            "oppTotalScore": -679,
            "waitTime": 2448.0824570734603,
            "responseTime": 1680662396750,
            "catchQuestion": "How many <b class=\"r\">red<\/b> marbles did your opponent report drawing? ",
            "catchKey": -1,
            "catchResponse": -1,
            "catchTime": 1680662355516,
            "trialTime": 0
        },
        {
            "exptPart": "trial",
            "trialNumber": 87,
            "roleCurrent": "receiver",
            "marblesSampled": 100,
            "probRed": 0.5,
            "lambda": 5,
            "drawnRed": 52,
            "reportedRed": 61,
            "inferredRed": 40,
            "playerTrialScore": -12,
            "oppTrialScore": 0,
            "playerTotalScore": 228,
            "oppTotalScore": -679,
            "waitTime": 6742.712270927655,
            "responseTime": 1680662407935,
            "catchQuestion": "How many <b class=\"r\">red<\/b> marbles did your opponent report drawing? ",
            "catchKey": -1,
            "catchResponse": -1,
            "catchTime": 1680662355516,
            "trialTime": 0
        },
        {
            "exptPart": "trial",
            "trialNumber": 88,
            "roleCurrent": "sender",
            "marblesSampled": 100,
            "probRed": 0.5,
            "lambda": 5,
            "drawnRed": 60,
            "reportedRed": 85,
            "inferredRed": 81,
            "playerTrialScore": 21,
            "oppTrialScore": -21,
            "playerTotalScore": 249,
            "oppTotalScore": -700,
            "waitTime": 2242.8279451343697,
            "responseTime": 1680662428919,
            "catchQuestion": "How many <b class=\"r\">red<\/b> marbles did your opponent report drawing? ",
            "catchKey": -1,
            "catchResponse": -1,
            "catchTime": 1680662355516,
            "trialTime": 0
        },
        {
            "exptPart": "trial",
            "trialNumber": 89,
            "roleCurrent": "receiver",
            "marblesSampled": 100,
            "probRed": 0.5,
            "lambda": 5,
            "drawnRed": 15,
            "reportedRed": 20,
            "inferredRed": 11,
            "playerTrialScore": -4,
            "oppTrialScore": 0,
            "playerTotalScore": 245,
            "oppTotalScore": -700,
            "waitTime": 5638.453895718554,
            "responseTime": 1680662440077,
            "catchQuestion": "How many <b class=\"r\">red<\/b> marbles did your opponent report drawing? ",
            "catchKey": -1,
            "catchResponse": -1,
            "catchTime": 1680662355516,
            "trialTime": 0
        },
        {
            "exptPart": "trial",
            "trialNumber": 90,
            "roleCurrent": "sender",
            "marblesSampled": 100,
            "probRed": 0.5,
            "lambda": 5,
            "drawnRed": 70,
            "reportedRed": 87,
            "inferredRed": 82,
            "playerTrialScore": 12,
            "oppTrialScore": -12,
            "playerTotalScore": 257,
            "oppTotalScore": -712,
            "waitTime": 2814.5481687067736,
            "responseTime": 1680662467662,
            "catchQuestion": "How many <b class=\"r\">red<\/b> marbles did your opponent report drawing? ",
            "catchKey": -1,
            "catchResponse": -1,
            "catchTime": 1680662467663,
            "trialTime": 0
        },
        {
            "exptPart": "trial",
            "trialNumber": 91,
            "roleCurrent": "receiver",
            "marblesSampled": 100,
            "probRed": 0.5,
            "lambda": 5,
            "drawnRed": 57,
            "reportedRed": 63,
            "inferredRed": 48,
            "playerTrialScore": -9,
            "oppTrialScore": 0,
            "playerTotalScore": 248,
            "oppTotalScore": -712,
            "waitTime": 7397.785554334538,
            "responseTime": 1680662490448,
            "catchQuestion": "How many <b class=\"r\">red<\/b> marbles did your opponent report drawing? ",
            "catchKey": -1,
            "catchResponse": -1,
            "catchTime": 1680662467663,
            "trialTime": 0
        },
        {
            "exptPart": "trial",
            "trialNumber": 92,
            "roleCurrent": "sender",
            "marblesSampled": 100,
            "probRed": 0.5,
            "lambda": 5,
            "drawnRed": 31,
            "reportedRed": 75,
            "inferredRed": 66,
            "playerTrialScore": 35,
            "oppTrialScore": -35,
            "playerTotalScore": 283,
            "oppTotalScore": -747,
            "waitTime": 2516.7587218727294,
            "responseTime": 1680662527558,
            "catchQuestion": "How many <b class=\"r\">red<\/b> marbles did your opponent report drawing? ",
            "catchKey": -1,
            "catchResponse": -1,
            "catchTime": 1680662467663,
            "trialTime": 0
        },
        {
            "exptPart": "trial",
            "trialNumber": 93,
            "roleCurrent": "receiver",
            "marblesSampled": 100,
            "probRed": 0.5,
            "lambda": 5,
            "drawnRed": 16,
            "reportedRed": 23,
            "inferredRed": 13,
            "playerTrialScore": -3,
            "oppTrialScore": 0,
            "playerTotalScore": 280,
            "oppTotalScore": -747,
            "waitTime": 7152.607229587566,
            "responseTime": 1680662539438,
            "catchQuestion": "How many <b class=\"r\">red<\/b> marbles did your opponent report drawing? ",
            "catchKey": -1,
            "catchResponse": -1,
            "catchTime": 1680662467663,
            "trialTime": 0
        },
        {
            "exptPart": "trial",
            "trialNumber": 94,
            "roleCurrent": "sender",
            "marblesSampled": 100,
            "probRed": 0.5,
            "lambda": 5,
            "drawnRed": 39,
            "reportedRed": 94,
            "inferredRed": 89,
            "playerTrialScore": 50,
            "oppTrialScore": -50,
            "playerTotalScore": 330,
            "oppTotalScore": -797,
            "waitTime": 2145.358622601525,
            "responseTime": 1680662579082,
            "catchQuestion": "How many <b class=\"r\">red<\/b> marbles did your opponent report drawing? ",
            "catchKey": -1,
            "catchResponse": -1,
            "catchTime": 1680662467663,
            "trialTime": 0
        },
        {
            "exptPart": "trial",
            "trialNumber": 95,
            "roleCurrent": "receiver",
            "marblesSampled": 100,
            "probRed": 0.5,
            "lambda": 5,
            "drawnRed": 28,
            "reportedRed": 31,
            "inferredRed": 14,
            "playerTrialScore": -14,
            "oppTrialScore": 0,
            "playerTotalScore": 316,
            "oppTotalScore": -797,
            "waitTime": 6395.137938304263,
            "responseTime": 1680662590937,
            "catchQuestion": "How many <b class=\"r\">red<\/b> marbles did your opponent report drawing? ",
            "catchKey": -1,
            "catchResponse": -1,
            "catchTime": 1680662590937,
            "trialTime": 0
        },
        {
            "exptPart": "trial",
            "trialNumber": 96,
            "roleCurrent": "sender",
            "marblesSampled": 100,
            "probRed": 0.5,
            "lambda": 5,
            "drawnRed": 39,
            "reportedRed": 63,
            "inferredRed": 58,
            "playerTrialScore": 19,
            "oppTrialScore": -19,
            "playerTotalScore": 335,
            "oppTotalScore": -816,
            "waitTime": 3128.987725386836,
            "responseTime": 1680662618101,
            "catchQuestion": "How many <b class=\"r\">red<\/b> marbles did your opponent report drawing? ",
            "catchKey": -1,
            "catchResponse": -1,
            "catchTime": 1680662590937,
            "trialTime": 0
        },
        {
            "exptPart": "trial",
            "trialNumber": 97,
            "roleCurrent": "receiver",
            "marblesSampled": 100,
            "probRed": 0.5,
            "lambda": 5,
            "drawnRed": 51,
            "reportedRed": 58,
            "inferredRed": 47,
            "playerTrialScore": -4,
            "oppTrialScore": 0,
            "playerTotalScore": 331,
            "oppTotalScore": -816,
            "waitTime": 6225.4949143214835,
            "responseTime": 1680662634778,
            "catchQuestion": "How many <b class=\"r\">red<\/b> marbles did your opponent report drawing? ",
            "catchKey": -1,
            "catchResponse": -1,
            "catchTime": 1680662590937,
            "trialTime": 0
        },
        {
            "exptPart": "trial",
            "trialNumber": 98,
            "roleCurrent": "sender",
            "marblesSampled": 100,
            "probRed": 0.5,
            "lambda": 5,
            "drawnRed": 17,
            "reportedRed": 47,
            "inferredRed": 42,
            "playerTrialScore": 25,
            "oppTrialScore": -25,
            "playerTotalScore": 356,
            "oppTotalScore": -841,
            "waitTime": 2739.241149283191,
            "responseTime": 1680662667222,
            "catchQuestion": "How many <b class=\"r\">red<\/b> marbles did your opponent report drawing? ",
            "catchKey": -1,
            "catchResponse": -1,
            "catchTime": 1680662590937,
            "trialTime": 0
        },
        {
            "exptPart": "trial",
            "trialNumber": 99,
            "roleCurrent": "receiver",
            "marblesSampled": 100,
            "probRed": 0.5,
            "lambda": 5,
            "drawnRed": 58,
            "reportedRed": 64,
            "inferredRed": 51,
            "playerTrialScore": -7,
            "oppTrialScore": 0,
            "playerTotalScore": 349,
            "oppTotalScore": -841,
            "waitTime": 6844.310327779593,
            "responseTime": 1680662679182,
            "catchQuestion": "How many <b class=\"r\">red<\/b> marbles did your opponent report drawing? ",
            "catchKey": -1,
            "catchResponse": -1,
            "catchTime": 1680662590937,
            "trialTime": 0
        },
        {
            "exptPart": "trial",
            "trialNumber": 100,
            "roleCurrent": "sender",
            "marblesSampled": 100,
            "probRed": 0.5,
            "lambda": 5,
            "drawnRed": 40,
            "reportedRed": 61,
            "inferredRed": 55,
            "playerTrialScore": 15,
            "oppTrialScore": -15,
            "playerTotalScore": 364,
            "oppTotalScore": -856,
            "waitTime": 2146.3089385834446,
            "responseTime": 1680662706441,
            "catchQuestion": "How many <b class=\"r\">red<\/b> marbles did your opponent report drawing? ",
            "catchKey": -1,
            "catchResponse": -1,
            "catchTime": 1680662706442,
            "trialTime": 0
        }
    ]
}