{
    "client": {
        "type": "sona",
        "experiment_id": 2228,
        "credit_token": "b315147ae43241ea9c65086cb510cfb7",
        "survey_code": "48012",
        "sid": "sona-48012",
        "window": {
            "width": 1440,
            "height": 744
        },
        "screen": {
            "width": 1440,
            "height": 900
        },
        "userAgent": "Mozilla\/5.0 (Macintosh; Intel Mac OS X 10_15_7) AppleWebKit\/537.36 (KHTML, like Gecko) Chrome\/110.0.0.0 Safari\/537.36",
        "score": 0,
        "bonus": 0
    },
    "expt": {
        "saveURL": "submit.simple.php",
        "trials": 100,
        "practiceTrials": 2,
        "marblesSampled": 100,
        "probRed": 0.5,
        "lambdaAI": 5,
        "roleFirst": "sender",
        "roles": [
            "sender",
            "receiver"
        ],
        "cost": "unif",
        "goal": "under",
        "goalInstructTxt": "above",
        "catchTrials": [
            79,
            64,
            73,
            99,
            2,
            93,
            71,
            88,
            13,
            41
        ],
        "scoreTotal": {
            "player": -49,
            "opp": -676
        },
        "sona": {
            "experiment_id": 2228,
            "credit_token": "b315147ae43241ea9c65086cb510cfb7"
        },
        "pilot": false,
        "debug": false
    },
    "trials": [
        {
            "exptPart": "practice",
            "trialNumber": 1,
            "roleCurrent": "sender",
            "marblesSampled": 100,
            "probRed": 0.5,
            "lambda": 5,
            "drawnRed": 57,
            "reportedRed": 46,
            "inferredRed": 50,
            "playerTrialScore": 7,
            "oppTrialScore": -7,
            "playerTotalScore": 7,
            "oppTotalScore": -7,
            "waitTime": 2959.0304697654133,
            "responseTime": 1678839576269,
            "catchQuestion": "How many <b class=\"r\">red<\/b> marbles did you actually draw (before any changes)? ",
            "catchKey": 57,
            "catchResponse": 57,
            "catchTime": 1678839576270,
            "trialTime": 0
        },
        {
            "exptPart": "practice",
            "trialNumber": 2,
            "roleCurrent": "receiver",
            "marblesSampled": 100,
            "probRed": 0.5,
            "lambda": 5,
            "drawnRed": 34,
            "reportedRed": 26,
            "inferredRed": 34,
            "playerTrialScore": 0,
            "oppTrialScore": 0,
            "playerTotalScore": 7,
            "oppTotalScore": -7,
            "waitTime": 5598.472152810136,
            "responseTime": 1678839651787,
            "catchQuestion": "How many <b class=\"r\">red<\/b> marbles did your opponent report drawing? ",
            "catchKey": 26,
            "catchResponse": 26,
            "catchTime": 1678839651787,
            "trialTime": 0
        },
        {
            "exptPart": "trial",
            "trialNumber": 1,
            "roleCurrent": "sender",
            "marblesSampled": 100,
            "probRed": 0.5,
            "lambda": 5,
            "drawnRed": 22,
            "reportedRed": 10,
            "inferredRed": 13,
            "playerTrialScore": 9,
            "oppTrialScore": -9,
            "playerTotalScore": 9,
            "oppTotalScore": -9,
            "waitTime": 3148.7234655872817,
            "responseTime": 1678839712560,
            "catchQuestion": "How many <b class=\"r\">red<\/b> marbles did your opponent report drawing? ",
            "catchKey": -1,
            "catchResponse": -1,
            "catchTime": 1678839651787,
            "trialTime": 0
        },
        {
            "exptPart": "trial",
            "trialNumber": 2,
            "roleCurrent": "receiver",
            "marblesSampled": 100,
            "probRed": 0.5,
            "lambda": 5,
            "drawnRed": 75,
            "reportedRed": 72,
            "inferredRed": 75,
            "playerTrialScore": 0,
            "oppTrialScore": 0,
            "playerTotalScore": 9,
            "oppTotalScore": -9,
            "waitTime": 5212.023248403299,
            "responseTime": 1678839750891,
            "catchQuestion": "How many <b class=\"r\">red<\/b> marbles did your opponent report drawing? ",
            "catchKey": -1,
            "catchResponse": -1,
            "catchTime": 1678839651787,
            "trialTime": 0
        },
        {
            "exptPart": "trial",
            "trialNumber": 3,
            "roleCurrent": "sender",
            "marblesSampled": 100,
            "probRed": 0.5,
            "lambda": 5,
            "drawnRed": 83,
            "reportedRed": 27,
            "inferredRed": 30,
            "playerTrialScore": 53,
            "oppTrialScore": -53,
            "playerTotalScore": 62,
            "oppTotalScore": -62,
            "waitTime": 3158.191451184483,
            "responseTime": 1678839809141,
            "catchQuestion": "How many <b class=\"r\">red<\/b> marbles did you actually draw (before any changes)? ",
            "catchKey": 83,
            "catchResponse": 83,
            "catchTime": 1678839809142,
            "trialTime": 0
        },
        {
            "exptPart": "trial",
            "trialNumber": 4,
            "roleCurrent": "receiver",
            "marblesSampled": 100,
            "probRed": 0.5,
            "lambda": 5,
            "drawnRed": 59,
            "reportedRed": 55,
            "inferredRed": 60,
            "playerTrialScore": -1,
            "oppTrialScore": 0,
            "playerTotalScore": 61,
            "oppTotalScore": -62,
            "waitTime": 6096.098963088301,
            "responseTime": 1678839840612,
            "catchQuestion": "How many <b class=\"r\">red<\/b> marbles did you actually draw (before any changes)? ",
            "catchKey": -1,
            "catchResponse": -1,
            "catchTime": 1678839809142,
            "trialTime": 0
        },
        {
            "exptPart": "trial",
            "trialNumber": 5,
            "roleCurrent": "sender",
            "marblesSampled": 100,
            "probRed": 0.5,
            "lambda": 5,
            "drawnRed": 77,
            "reportedRed": 77,
            "inferredRed": 80,
            "playerTrialScore": 0,
            "oppTrialScore": -3,
            "playerTotalScore": 61,
            "oppTotalScore": -65,
            "waitTime": 3209.7778054696123,
            "responseTime": 1678839855313,
            "catchQuestion": "How many <b class=\"r\">red<\/b> marbles did you actually draw (before any changes)? ",
            "catchKey": -1,
            "catchResponse": -1,
            "catchTime": 1678839855313,
            "trialTime": 0
        },
        {
            "exptPart": "trial",
            "trialNumber": 6,
            "roleCurrent": "receiver",
            "marblesSampled": 100,
            "probRed": 0.5,
            "lambda": 5,
            "drawnRed": 46,
            "reportedRed": 41,
            "inferredRed": 50,
            "playerTrialScore": -4,
            "oppTrialScore": 0,
            "playerTotalScore": 57,
            "oppTotalScore": -65,
            "waitTime": 5934.838679845161,
            "responseTime": 1678839884960,
            "catchQuestion": "How many <b class=\"r\">red<\/b> marbles did you actually draw (before any changes)? ",
            "catchKey": -1,
            "catchResponse": -1,
            "catchTime": 1678839855313,
            "trialTime": 0
        },
        {
            "exptPart": "trial",
            "trialNumber": 7,
            "roleCurrent": "sender",
            "marblesSampled": 100,
            "probRed": 0.5,
            "lambda": 5,
            "drawnRed": 66,
            "reportedRed": 27,
            "inferredRed": 36,
            "playerTrialScore": 30,
            "oppTrialScore": -30,
            "playerTotalScore": 87,
            "oppTotalScore": -95,
            "waitTime": 2711.9201121426363,
            "responseTime": 1678839918992,
            "catchQuestion": "How many <b class=\"r\">red<\/b> marbles did you actually draw (before any changes)? ",
            "catchKey": -1,
            "catchResponse": -1,
            "catchTime": 1678839855313,
            "trialTime": 0
        },
        {
            "exptPart": "trial",
            "trialNumber": 8,
            "roleCurrent": "receiver",
            "marblesSampled": 100,
            "probRed": 0.5,
            "lambda": 5,
            "drawnRed": 74,
            "reportedRed": 61,
            "inferredRed": 70,
            "playerTrialScore": -4,
            "oppTrialScore": 4,
            "playerTotalScore": 83,
            "oppTotalScore": -91,
            "waitTime": 5979.068800050105,
            "responseTime": 1678839930580,
            "catchQuestion": "How many <b class=\"r\">red<\/b> marbles did you actually draw (before any changes)? ",
            "catchKey": -1,
            "catchResponse": -1,
            "catchTime": 1678839855313,
            "trialTime": 0
        },
        {
            "exptPart": "trial",
            "trialNumber": 9,
            "roleCurrent": "sender",
            "marblesSampled": 100,
            "probRed": 0.5,
            "lambda": 5,
            "drawnRed": 63,
            "reportedRed": 63,
            "inferredRed": 67,
            "playerTrialScore": 0,
            "oppTrialScore": -4,
            "playerTotalScore": 83,
            "oppTotalScore": -95,
            "waitTime": 2535.4808913623756,
            "responseTime": 1678839943779,
            "catchQuestion": "How many <b class=\"r\">red<\/b> marbles did you actually draw (before any changes)? ",
            "catchKey": -1,
            "catchResponse": -1,
            "catchTime": 1678839855313,
            "trialTime": 0
        },
        {
            "exptPart": "trial",
            "trialNumber": 10,
            "roleCurrent": "receiver",
            "marblesSampled": 100,
            "probRed": 0.5,
            "lambda": 5,
            "drawnRed": 42,
            "reportedRed": 33,
            "inferredRed": 63,
            "playerTrialScore": -21,
            "oppTrialScore": 0,
            "playerTotalScore": 62,
            "oppTotalScore": -95,
            "waitTime": 6022.782175024322,
            "responseTime": 1678839956819,
            "catchQuestion": "How many <b class=\"r\">red<\/b> marbles did you actually draw (before any changes)? ",
            "catchKey": -1,
            "catchResponse": -1,
            "catchTime": 1678839956819,
            "trialTime": 0
        },
        {
            "exptPart": "trial",
            "trialNumber": 11,
            "roleCurrent": "sender",
            "marblesSampled": 100,
            "probRed": 0.5,
            "lambda": 5,
            "drawnRed": 34,
            "reportedRed": 68,
            "inferredRed": 72,
            "playerTrialScore": 0,
            "oppTrialScore": -38,
            "playerTotalScore": 62,
            "oppTotalScore": -133,
            "waitTime": 2551.2612398287683,
            "responseTime": 1678840000600,
            "catchQuestion": "How many <b class=\"r\">red<\/b> marbles did you actually draw (before any changes)? ",
            "catchKey": -1,
            "catchResponse": -1,
            "catchTime": 1678839956819,
            "trialTime": 0
        },
        {
            "exptPart": "trial",
            "trialNumber": 12,
            "roleCurrent": "receiver",
            "marblesSampled": 100,
            "probRed": 0.5,
            "lambda": 5,
            "drawnRed": 40,
            "reportedRed": 36,
            "inferredRed": 45,
            "playerTrialScore": -5,
            "oppTrialScore": 0,
            "playerTotalScore": 57,
            "oppTotalScore": -133,
            "waitTime": 6938.260170522219,
            "responseTime": 1678840017390,
            "catchQuestion": "How many <b class=\"r\">red<\/b> marbles did you actually draw (before any changes)? ",
            "catchKey": -1,
            "catchResponse": -1,
            "catchTime": 1678839956819,
            "trialTime": 0
        },
        {
            "exptPart": "trial",
            "trialNumber": 13,
            "roleCurrent": "sender",
            "marblesSampled": 100,
            "probRed": 0.5,
            "lambda": 5,
            "drawnRed": 36,
            "reportedRed": 36,
            "inferredRed": 39,
            "playerTrialScore": 0,
            "oppTrialScore": -3,
            "playerTotalScore": 57,
            "oppTotalScore": -136,
            "waitTime": 2745.585798892032,
            "responseTime": 1678840040364,
            "catchQuestion": "How many <b class=\"r\">red<\/b> marbles did you actually draw (before any changes)? ",
            "catchKey": -1,
            "catchResponse": -1,
            "catchTime": 1678839956819,
            "trialTime": 0
        },
        {
            "exptPart": "trial",
            "trialNumber": 14,
            "roleCurrent": "receiver",
            "marblesSampled": 100,
            "probRed": 0.5,
            "lambda": 5,
            "drawnRed": 86,
            "reportedRed": 80,
            "inferredRed": 72,
            "playerTrialScore": -14,
            "oppTrialScore": 14,
            "playerTotalScore": 43,
            "oppTotalScore": -122,
            "waitTime": 6388.95732794707,
            "responseTime": 1678840057012,
            "catchQuestion": "How many <b class=\"r\">red<\/b> marbles did your opponent report drawing? ",
            "catchKey": 80,
            "catchResponse": 80,
            "catchTime": 1678840057012,
            "trialTime": 0
        },
        {
            "exptPart": "trial",
            "trialNumber": 15,
            "roleCurrent": "sender",
            "marblesSampled": 100,
            "probRed": 0.5,
            "lambda": 5,
            "drawnRed": 35,
            "reportedRed": 17,
            "inferredRed": 19,
            "playerTrialScore": 16,
            "oppTrialScore": -16,
            "playerTotalScore": 59,
            "oppTotalScore": -138,
            "waitTime": 2254.8037997084366,
            "responseTime": 1678840089302,
            "catchQuestion": "How many <b class=\"r\">red<\/b> marbles did your opponent report drawing? ",
            "catchKey": -1,
            "catchResponse": -1,
            "catchTime": 1678840089302,
            "trialTime": 0
        },
        {
            "exptPart": "trial",
            "trialNumber": 16,
            "roleCurrent": "receiver",
            "marblesSampled": 100,
            "probRed": 0.5,
            "lambda": 5,
            "drawnRed": 53,
            "reportedRed": 51,
            "inferredRed": 80,
            "playerTrialScore": -27,
            "oppTrialScore": 0,
            "playerTotalScore": 32,
            "oppTotalScore": -138,
            "waitTime": 5813.979748719665,
            "responseTime": 1678840127899,
            "catchQuestion": "How many <b class=\"r\">red<\/b> marbles did your opponent report drawing? ",
            "catchKey": -1,
            "catchResponse": -1,
            "catchTime": 1678840089302,
            "trialTime": 0
        },
        {
            "exptPart": "trial",
            "trialNumber": 17,
            "roleCurrent": "sender",
            "marblesSampled": 100,
            "probRed": 0.5,
            "lambda": 5,
            "drawnRed": 61,
            "reportedRed": 61,
            "inferredRed": 65,
            "playerTrialScore": 0,
            "oppTrialScore": -4,
            "playerTotalScore": 32,
            "oppTotalScore": -142,
            "waitTime": 2446.064836403895,
            "responseTime": 1678840135695,
            "catchQuestion": "How many <b class=\"r\">red<\/b> marbles did your opponent report drawing? ",
            "catchKey": -1,
            "catchResponse": -1,
            "catchTime": 1678840089302,
            "trialTime": 0
        },
        {
            "exptPart": "trial",
            "trialNumber": 18,
            "roleCurrent": "receiver",
            "marblesSampled": 100,
            "probRed": 0.5,
            "lambda": 5,
            "drawnRed": 23,
            "reportedRed": 23,
            "inferredRed": 38,
            "playerTrialScore": -15,
            "oppTrialScore": 0,
            "playerTotalScore": 17,
            "oppTotalScore": -142,
            "waitTime": 6153.770486625727,
            "responseTime": 1678840146775,
            "catchQuestion": "How many <b class=\"r\">red<\/b> marbles did your opponent report drawing? ",
            "catchKey": -1,
            "catchResponse": -1,
            "catchTime": 1678840089302,
            "trialTime": 0
        },
        {
            "exptPart": "trial",
            "trialNumber": 19,
            "roleCurrent": "sender",
            "marblesSampled": 100,
            "probRed": 0.5,
            "lambda": 5,
            "drawnRed": 42,
            "reportedRed": 72,
            "inferredRed": 74,
            "playerTrialScore": 0,
            "oppTrialScore": -32,
            "playerTotalScore": 17,
            "oppTotalScore": -174,
            "waitTime": 2644.990461238086,
            "responseTime": 1678840190309,
            "catchQuestion": "How many <b class=\"r\">red<\/b> marbles did your opponent report drawing? ",
            "catchKey": -1,
            "catchResponse": -1,
            "catchTime": 1678840089302,
            "trialTime": 0
        },
        {
            "exptPart": "trial",
            "trialNumber": 20,
            "roleCurrent": "receiver",
            "marblesSampled": 100,
            "probRed": 0.5,
            "lambda": 5,
            "drawnRed": 47,
            "reportedRed": 44,
            "inferredRed": 45,
            "playerTrialScore": -2,
            "oppTrialScore": 2,
            "playerTotalScore": 15,
            "oppTotalScore": -172,
            "waitTime": 5591.774134557539,
            "responseTime": 1678840199781,
            "catchQuestion": "How many <b class=\"r\">red<\/b> marbles did your opponent report drawing? ",
            "catchKey": -1,
            "catchResponse": -1,
            "catchTime": 1678840199781,
            "trialTime": 0
        },
        {
            "exptPart": "trial",
            "trialNumber": 21,
            "roleCurrent": "sender",
            "marblesSampled": 100,
            "probRed": 0.5,
            "lambda": 5,
            "drawnRed": 35,
            "reportedRed": 35,
            "inferredRed": 36,
            "playerTrialScore": 0,
            "oppTrialScore": -1,
            "playerTotalScore": 15,
            "oppTotalScore": -173,
            "waitTime": 2140.1911385251133,
            "responseTime": 1678840232263,
            "catchQuestion": "How many <b class=\"r\">red<\/b> marbles did your opponent report drawing? ",
            "catchKey": -1,
            "catchResponse": -1,
            "catchTime": 1678840199781,
            "trialTime": 0
        },
        {
            "exptPart": "trial",
            "trialNumber": 22,
            "roleCurrent": "receiver",
            "marblesSampled": 100,
            "probRed": 0.5,
            "lambda": 5,
            "drawnRed": 38,
            "reportedRed": 33,
            "inferredRed": 65,
            "playerTrialScore": -27,
            "oppTrialScore": 0,
            "playerTotalScore": -12,
            "oppTotalScore": -173,
            "waitTime": 6380.298626327972,
            "responseTime": 1678840242888,
            "catchQuestion": "How many <b class=\"r\">red<\/b> marbles did your opponent report drawing? ",
            "catchKey": -1,
            "catchResponse": -1,
            "catchTime": 1678840199781,
            "trialTime": 0
        },
        {
            "exptPart": "trial",
            "trialNumber": 23,
            "roleCurrent": "sender",
            "marblesSampled": 100,
            "probRed": 0.5,
            "lambda": 5,
            "drawnRed": 47,
            "reportedRed": 16,
            "inferredRed": 21,
            "playerTrialScore": 26,
            "oppTrialScore": -26,
            "playerTotalScore": 14,
            "oppTotalScore": -199,
            "waitTime": 2874.2957797790127,
            "responseTime": 1678840291786,
            "catchQuestion": "How many <b class=\"r\">red<\/b> marbles did your opponent report drawing? ",
            "catchKey": -1,
            "catchResponse": -1,
            "catchTime": 1678840199781,
            "trialTime": 0
        },
        {
            "exptPart": "trial",
            "trialNumber": 24,
            "roleCurrent": "receiver",
            "marblesSampled": 100,
            "probRed": 0.5,
            "lambda": 5,
            "drawnRed": 36,
            "reportedRed": 31,
            "inferredRed": 42,
            "playerTrialScore": -6,
            "oppTrialScore": 0,
            "playerTotalScore": 8,
            "oppTotalScore": -199,
            "waitTime": 7074.235336528685,
            "responseTime": 1678840302443,
            "catchQuestion": "How many <b class=\"r\">red<\/b> marbles did your opponent report drawing? ",
            "catchKey": -1,
            "catchResponse": -1,
            "catchTime": 1678840199781,
            "trialTime": 0
        },
        {
            "exptPart": "trial",
            "trialNumber": 25,
            "roleCurrent": "sender",
            "marblesSampled": 100,
            "probRed": 0.5,
            "lambda": 5,
            "drawnRed": 57,
            "reportedRed": 57,
            "inferredRed": 61,
            "playerTrialScore": 0,
            "oppTrialScore": -4,
            "playerTotalScore": 8,
            "oppTotalScore": -203,
            "waitTime": 2074.9364973521842,
            "responseTime": 1678840311962,
            "catchQuestion": "How many <b class=\"r\">red<\/b> marbles did your opponent report drawing? ",
            "catchKey": -1,
            "catchResponse": -1,
            "catchTime": 1678840311962,
            "trialTime": 0
        },
        {
            "exptPart": "trial",
            "trialNumber": 26,
            "roleCurrent": "receiver",
            "marblesSampled": 100,
            "probRed": 0.5,
            "lambda": 5,
            "drawnRed": 56,
            "reportedRed": 51,
            "inferredRed": 58,
            "playerTrialScore": -2,
            "oppTrialScore": 0,
            "playerTotalScore": 6,
            "oppTotalScore": -203,
            "waitTime": 6425.410746313141,
            "responseTime": 1678840328331,
            "catchQuestion": "How many <b class=\"r\">red<\/b> marbles did your opponent report drawing? ",
            "catchKey": -1,
            "catchResponse": -1,
            "catchTime": 1678840311962,
            "trialTime": 0
        },
        {
            "exptPart": "trial",
            "trialNumber": 27,
            "roleCurrent": "sender",
            "marblesSampled": 100,
            "probRed": 0.5,
            "lambda": 5,
            "drawnRed": 69,
            "reportedRed": 0,
            "inferredRed": 2,
            "playerTrialScore": 67,
            "oppTrialScore": -67,
            "playerTotalScore": 73,
            "oppTotalScore": -270,
            "waitTime": 2948.6709848841447,
            "responseTime": 1678840380815,
            "catchQuestion": "How many <b class=\"r\">red<\/b> marbles did your opponent report drawing? ",
            "catchKey": -1,
            "catchResponse": -1,
            "catchTime": 1678840311962,
            "trialTime": 0
        },
        {
            "exptPart": "trial",
            "trialNumber": 28,
            "roleCurrent": "receiver",
            "marblesSampled": 100,
            "probRed": 0.5,
            "lambda": 5,
            "drawnRed": 78,
            "reportedRed": 74,
            "inferredRed": 82,
            "playerTrialScore": -4,
            "oppTrialScore": 0,
            "playerTotalScore": 69,
            "oppTotalScore": -270,
            "waitTime": 5578.248266160877,
            "responseTime": 1678840392813,
            "catchQuestion": "How many <b class=\"r\">red<\/b> marbles did your opponent report drawing? ",
            "catchKey": -1,
            "catchResponse": -1,
            "catchTime": 1678840311962,
            "trialTime": 0
        },
        {
            "exptPart": "trial",
            "trialNumber": 29,
            "roleCurrent": "sender",
            "marblesSampled": 100,
            "probRed": 0.5,
            "lambda": 5,
            "drawnRed": 44,
            "reportedRed": 44,
            "inferredRed": 49,
            "playerTrialScore": 0,
            "oppTrialScore": -5,
            "playerTotalScore": 69,
            "oppTotalScore": -275,
            "waitTime": 2265.1209089675035,
            "responseTime": 1678840418254,
            "catchQuestion": "How many <b class=\"r\">red<\/b> marbles did your opponent report drawing? ",
            "catchKey": -1,
            "catchResponse": -1,
            "catchTime": 1678840311962,
            "trialTime": 0
        },
        {
            "exptPart": "trial",
            "trialNumber": 30,
            "roleCurrent": "receiver",
            "marblesSampled": 100,
            "probRed": 0.5,
            "lambda": 5,
            "drawnRed": 59,
            "reportedRed": 58,
            "inferredRed": 58,
            "playerTrialScore": -1,
            "oppTrialScore": 1,
            "playerTotalScore": 68,
            "oppTotalScore": -274,
            "waitTime": 6043.317698465415,
            "responseTime": 1678840441316,
            "catchQuestion": "How many <b class=\"r\">red<\/b> marbles did your opponent report drawing? ",
            "catchKey": -1,
            "catchResponse": -1,
            "catchTime": 1678840441316,
            "trialTime": 0
        },
        {
            "exptPart": "trial",
            "trialNumber": 31,
            "roleCurrent": "sender",
            "marblesSampled": 100,
            "probRed": 0.5,
            "lambda": 5,
            "drawnRed": 56,
            "reportedRed": 56,
            "inferredRed": 64,
            "playerTrialScore": 0,
            "oppTrialScore": -8,
            "playerTotalScore": 68,
            "oppTotalScore": -282,
            "waitTime": 2708.504655287262,
            "responseTime": 1678840455345,
            "catchQuestion": "How many <b class=\"r\">red<\/b> marbles did your opponent report drawing? ",
            "catchKey": -1,
            "catchResponse": -1,
            "catchTime": 1678840441316,
            "trialTime": 0
        },
        {
            "exptPart": "trial",
            "trialNumber": 32,
            "roleCurrent": "receiver",
            "marblesSampled": 100,
            "probRed": 0.5,
            "lambda": 5,
            "drawnRed": 55,
            "reportedRed": 51,
            "inferredRed": 65,
            "playerTrialScore": -10,
            "oppTrialScore": 0,
            "playerTotalScore": 58,
            "oppTotalScore": -282,
            "waitTime": 6739.861421314907,
            "responseTime": 1678840464584,
            "catchQuestion": "How many <b class=\"r\">red<\/b> marbles did your opponent report drawing? ",
            "catchKey": -1,
            "catchResponse": -1,
            "catchTime": 1678840441316,
            "trialTime": 0
        },
        {
            "exptPart": "trial",
            "trialNumber": 33,
            "roleCurrent": "sender",
            "marblesSampled": 100,
            "probRed": 0.5,
            "lambda": 5,
            "drawnRed": 67,
            "reportedRed": 30,
            "inferredRed": 36,
            "playerTrialScore": 31,
            "oppTrialScore": -31,
            "playerTotalScore": 89,
            "oppTotalScore": -313,
            "waitTime": 3038.3945756918747,
            "responseTime": 1678840500604,
            "catchQuestion": "How many <b class=\"r\">red<\/b> marbles did your opponent report drawing? ",
            "catchKey": -1,
            "catchResponse": -1,
            "catchTime": 1678840441316,
            "trialTime": 0
        },
        {
            "exptPart": "trial",
            "trialNumber": 34,
            "roleCurrent": "receiver",
            "marblesSampled": 100,
            "probRed": 0.5,
            "lambda": 5,
            "drawnRed": 78,
            "reportedRed": 72,
            "inferredRed": 84,
            "playerTrialScore": -6,
            "oppTrialScore": 0,
            "playerTotalScore": 83,
            "oppTotalScore": -313,
            "waitTime": 6059.027213948095,
            "responseTime": 1678840511780,
            "catchQuestion": "How many <b class=\"r\">red<\/b> marbles did your opponent report drawing? ",
            "catchKey": -1,
            "catchResponse": -1,
            "catchTime": 1678840441316,
            "trialTime": 0
        },
        {
            "exptPart": "trial",
            "trialNumber": 35,
            "roleCurrent": "sender",
            "marblesSampled": 100,
            "probRed": 0.5,
            "lambda": 5,
            "drawnRed": 49,
            "reportedRed": 49,
            "inferredRed": 50,
            "playerTrialScore": 0,
            "oppTrialScore": -1,
            "playerTotalScore": 83,
            "oppTotalScore": -314,
            "waitTime": 2998.366802025163,
            "responseTime": 1678840521131,
            "catchQuestion": "How many <b class=\"r\">red<\/b> marbles did your opponent report drawing? ",
            "catchKey": -1,
            "catchResponse": -1,
            "catchTime": 1678840521131,
            "trialTime": 0
        },
        {
            "exptPart": "trial",
            "trialNumber": 36,
            "roleCurrent": "receiver",
            "marblesSampled": 100,
            "probRed": 0.5,
            "lambda": 5,
            "drawnRed": 31,
            "reportedRed": 30,
            "inferredRed": 42,
            "playerTrialScore": -11,
            "oppTrialScore": 0,
            "playerTotalScore": 72,
            "oppTotalScore": -314,
            "waitTime": 5423.438599429135,
            "responseTime": 1678840532592,
            "catchQuestion": "How many <b class=\"r\">red<\/b> marbles did your opponent report drawing? ",
            "catchKey": -1,
            "catchResponse": -1,
            "catchTime": 1678840521131,
            "trialTime": 0
        },
        {
            "exptPart": "trial",
            "trialNumber": 37,
            "roleCurrent": "sender",
            "marblesSampled": 100,
            "probRed": 0.5,
            "lambda": 5,
            "drawnRed": 47,
            "reportedRed": 24,
            "inferredRed": 28,
            "playerTrialScore": 19,
            "oppTrialScore": -19,
            "playerTotalScore": 91,
            "oppTotalScore": -333,
            "waitTime": 2737.8685907333947,
            "responseTime": 1678840555040,
            "catchQuestion": "How many <b class=\"r\">red<\/b> marbles did your opponent report drawing? ",
            "catchKey": -1,
            "catchResponse": -1,
            "catchTime": 1678840521131,
            "trialTime": 0
        },
        {
            "exptPart": "trial",
            "trialNumber": 38,
            "roleCurrent": "receiver",
            "marblesSampled": 100,
            "probRed": 0.5,
            "lambda": 5,
            "drawnRed": 50,
            "reportedRed": 47,
            "inferredRed": 65,
            "playerTrialScore": -15,
            "oppTrialScore": 0,
            "playerTotalScore": 76,
            "oppTotalScore": -333,
            "waitTime": 5422.6407612894845,
            "responseTime": 1678840568804,
            "catchQuestion": "How many <b class=\"r\">red<\/b> marbles did your opponent report drawing? ",
            "catchKey": -1,
            "catchResponse": -1,
            "catchTime": 1678840521131,
            "trialTime": 0
        },
        {
            "exptPart": "trial",
            "trialNumber": 39,
            "roleCurrent": "sender",
            "marblesSampled": 100,
            "probRed": 0.5,
            "lambda": 5,
            "drawnRed": 62,
            "reportedRed": 85,
            "inferredRed": 90,
            "playerTrialScore": 0,
            "oppTrialScore": -28,
            "playerTotalScore": 76,
            "oppTotalScore": -361,
            "waitTime": 2380.266982399583,
            "responseTime": 1678840601332,
            "catchQuestion": "How many <b class=\"r\">red<\/b> marbles did your opponent report drawing? ",
            "catchKey": -1,
            "catchResponse": -1,
            "catchTime": 1678840521131,
            "trialTime": 0
        },
        {
            "exptPart": "trial",
            "trialNumber": 40,
            "roleCurrent": "receiver",
            "marblesSampled": 100,
            "probRed": 0.5,
            "lambda": 5,
            "drawnRed": 64,
            "reportedRed": 59,
            "inferredRed": 72,
            "playerTrialScore": -8,
            "oppTrialScore": 0,
            "playerTotalScore": 68,
            "oppTotalScore": -361,
            "waitTime": 6142.8507423430965,
            "responseTime": 1678840613793,
            "catchQuestion": "How many <b class=\"r\">red<\/b> marbles did your opponent report drawing? ",
            "catchKey": -1,
            "catchResponse": -1,
            "catchTime": 1678840613793,
            "trialTime": 0
        },
        {
            "exptPart": "trial",
            "trialNumber": 41,
            "roleCurrent": "sender",
            "marblesSampled": 100,
            "probRed": 0.5,
            "lambda": 5,
            "drawnRed": 56,
            "reportedRed": 56,
            "inferredRed": 65,
            "playerTrialScore": 0,
            "oppTrialScore": -9,
            "playerTotalScore": 68,
            "oppTotalScore": -370,
            "waitTime": 2223.826375251837,
            "responseTime": 1678840622685,
            "catchQuestion": "How many <b class=\"r\">red<\/b> marbles did your opponent report drawing? ",
            "catchKey": -1,
            "catchResponse": -1,
            "catchTime": 1678840613793,
            "trialTime": 0
        },
        {
            "exptPart": "trial",
            "trialNumber": 42,
            "roleCurrent": "receiver",
            "marblesSampled": 100,
            "probRed": 0.5,
            "lambda": 5,
            "drawnRed": 33,
            "reportedRed": 29,
            "inferredRed": 45,
            "playerTrialScore": -12,
            "oppTrialScore": 0,
            "playerTotalScore": 56,
            "oppTotalScore": -370,
            "waitTime": 7098.731356554476,
            "responseTime": 1678840635053,
            "catchQuestion": "How many <b class=\"r\">red<\/b> marbles did your opponent report drawing? ",
            "catchKey": 29,
            "catchResponse": 29,
            "catchTime": 1678840635053,
            "trialTime": 0
        },
        {
            "exptPart": "trial",
            "trialNumber": 43,
            "roleCurrent": "sender",
            "marblesSampled": 100,
            "probRed": 0.5,
            "lambda": 5,
            "drawnRed": 72,
            "reportedRed": 100,
            "inferredRed": 100,
            "playerTrialScore": 0,
            "oppTrialScore": -28,
            "playerTotalScore": 56,
            "oppTotalScore": -398,
            "waitTime": 2661.812854403332,
            "responseTime": 1678840675075,
            "catchQuestion": "How many <b class=\"r\">red<\/b> marbles did your opponent report drawing? ",
            "catchKey": -1,
            "catchResponse": -1,
            "catchTime": 1678840635053,
            "trialTime": 0
        },
        {
            "exptPart": "trial",
            "trialNumber": 44,
            "roleCurrent": "receiver",
            "marblesSampled": 100,
            "probRed": 0.5,
            "lambda": 5,
            "drawnRed": 65,
            "reportedRed": 60,
            "inferredRed": 60,
            "playerTrialScore": -5,
            "oppTrialScore": 5,
            "playerTotalScore": 51,
            "oppTotalScore": -393,
            "waitTime": 5236.947548658349,
            "responseTime": 1678840684395,
            "catchQuestion": "How many <b class=\"r\">red<\/b> marbles did your opponent report drawing? ",
            "catchKey": -1,
            "catchResponse": -1,
            "catchTime": 1678840635053,
            "trialTime": 0
        },
        {
            "exptPart": "trial",
            "trialNumber": 45,
            "roleCurrent": "sender",
            "marblesSampled": 100,
            "probRed": 0.5,
            "lambda": 5,
            "drawnRed": 31,
            "reportedRed": 13,
            "inferredRed": 20,
            "playerTrialScore": 11,
            "oppTrialScore": -11,
            "playerTotalScore": 62,
            "oppTotalScore": -404,
            "waitTime": 2997.5381450804634,
            "responseTime": 1678840708920,
            "catchQuestion": "How many <b class=\"r\">red<\/b> marbles did your opponent report drawing? ",
            "catchKey": -1,
            "catchResponse": -1,
            "catchTime": 1678840708920,
            "trialTime": 0
        },
        {
            "exptPart": "trial",
            "trialNumber": 46,
            "roleCurrent": "receiver",
            "marblesSampled": 100,
            "probRed": 0.5,
            "lambda": 5,
            "drawnRed": 50,
            "reportedRed": 47,
            "inferredRed": 54,
            "playerTrialScore": -4,
            "oppTrialScore": 0,
            "playerTotalScore": 58,
            "oppTotalScore": -404,
            "waitTime": 5479.134889779297,
            "responseTime": 1678840720958,
            "catchQuestion": "How many <b class=\"r\">red<\/b> marbles did your opponent report drawing? ",
            "catchKey": -1,
            "catchResponse": -1,
            "catchTime": 1678840708920,
            "trialTime": 0
        },
        {
            "exptPart": "trial",
            "trialNumber": 47,
            "roleCurrent": "sender",
            "marblesSampled": 100,
            "probRed": 0.5,
            "lambda": 5,
            "drawnRed": 47,
            "reportedRed": 47,
            "inferredRed": 53,
            "playerTrialScore": 0,
            "oppTrialScore": -6,
            "playerTotalScore": 58,
            "oppTotalScore": -410,
            "waitTime": 2298.00974153865,
            "responseTime": 1678840731520,
            "catchQuestion": "How many <b class=\"r\">red<\/b> marbles did your opponent report drawing? ",
            "catchKey": -1,
            "catchResponse": -1,
            "catchTime": 1678840708920,
            "trialTime": 0
        },
        {
            "exptPart": "trial",
            "trialNumber": 48,
            "roleCurrent": "receiver",
            "marblesSampled": 100,
            "probRed": 0.5,
            "lambda": 5,
            "drawnRed": 76,
            "reportedRed": 71,
            "inferredRed": 80,
            "playerTrialScore": -4,
            "oppTrialScore": 0,
            "playerTotalScore": 54,
            "oppTotalScore": -410,
            "waitTime": 6633.0788432027275,
            "responseTime": 1678840743756,
            "catchQuestion": "How many <b class=\"r\">red<\/b> marbles did your opponent report drawing? ",
            "catchKey": -1,
            "catchResponse": -1,
            "catchTime": 1678840708920,
            "trialTime": 0
        },
        {
            "exptPart": "trial",
            "trialNumber": 49,
            "roleCurrent": "sender",
            "marblesSampled": 100,
            "probRed": 0.5,
            "lambda": 5,
            "drawnRed": 16,
            "reportedRed": 9,
            "inferredRed": 16,
            "playerTrialScore": 0,
            "oppTrialScore": 0,
            "playerTotalScore": 54,
            "oppTotalScore": -410,
            "waitTime": 2537.3007895027877,
            "responseTime": 1678840761435,
            "catchQuestion": "How many <b class=\"r\">red<\/b> marbles did your opponent report drawing? ",
            "catchKey": -1,
            "catchResponse": -1,
            "catchTime": 1678840708920,
            "trialTime": 0
        },
        {
            "exptPart": "trial",
            "trialNumber": 50,
            "roleCurrent": "receiver",
            "marblesSampled": 100,
            "probRed": 0.5,
            "lambda": 5,
            "drawnRed": 50,
            "reportedRed": 45,
            "inferredRed": 50,
            "playerTrialScore": 0,
            "oppTrialScore": 0,
            "playerTotalScore": 54,
            "oppTotalScore": -410,
            "waitTime": 7199.969170051749,
            "responseTime": 1678840771831,
            "catchQuestion": "How many <b class=\"r\">red<\/b> marbles did your opponent report drawing? ",
            "catchKey": -1,
            "catchResponse": -1,
            "catchTime": 1678840771831,
            "trialTime": 0
        },
        {
            "exptPart": "trial",
            "trialNumber": 51,
            "roleCurrent": "sender",
            "marblesSampled": 100,
            "probRed": 0.5,
            "lambda": 5,
            "drawnRed": 48,
            "reportedRed": 48,
            "inferredRed": 52,
            "playerTrialScore": 0,
            "oppTrialScore": -4,
            "playerTotalScore": 54,
            "oppTotalScore": -414,
            "waitTime": 2678.6212706821048,
            "responseTime": 1678840781502,
            "catchQuestion": "How many <b class=\"r\">red<\/b> marbles did your opponent report drawing? ",
            "catchKey": -1,
            "catchResponse": -1,
            "catchTime": 1678840771831,
            "trialTime": 0
        },
        {
            "exptPart": "trial",
            "trialNumber": 52,
            "roleCurrent": "receiver",
            "marblesSampled": 100,
            "probRed": 0.5,
            "lambda": 5,
            "drawnRed": 59,
            "reportedRed": 54,
            "inferredRed": 65,
            "playerTrialScore": -6,
            "oppTrialScore": 0,
            "playerTotalScore": 48,
            "oppTotalScore": -414,
            "waitTime": 5539.362897393761,
            "responseTime": 1678840790737,
            "catchQuestion": "How many <b class=\"r\">red<\/b> marbles did your opponent report drawing? ",
            "catchKey": -1,
            "catchResponse": -1,
            "catchTime": 1678840771831,
            "trialTime": 0
        },
        {
            "exptPart": "trial",
            "trialNumber": 53,
            "roleCurrent": "sender",
            "marblesSampled": 100,
            "probRed": 0.5,
            "lambda": 5,
            "drawnRed": 74,
            "reportedRed": 74,
            "inferredRed": 77,
            "playerTrialScore": 0,
            "oppTrialScore": -3,
            "playerTotalScore": 48,
            "oppTotalScore": -417,
            "waitTime": 2254.481196026599,
            "responseTime": 1678840802784,
            "catchQuestion": "How many <b class=\"r\">red<\/b> marbles did your opponent report drawing? ",
            "catchKey": -1,
            "catchResponse": -1,
            "catchTime": 1678840771831,
            "trialTime": 0
        },
        {
            "exptPart": "trial",
            "trialNumber": 54,
            "roleCurrent": "receiver",
            "marblesSampled": 100,
            "probRed": 0.5,
            "lambda": 5,
            "drawnRed": 28,
            "reportedRed": 25,
            "inferredRed": 34,
            "playerTrialScore": -6,
            "oppTrialScore": 0,
            "playerTotalScore": 42,
            "oppTotalScore": -417,
            "waitTime": 6565.857477881391,
            "responseTime": 1678840813495,
            "catchQuestion": "How many <b class=\"r\">red<\/b> marbles did your opponent report drawing? ",
            "catchKey": -1,
            "catchResponse": -1,
            "catchTime": 1678840771831,
            "trialTime": 0
        },
        {
            "exptPart": "trial",
            "trialNumber": 55,
            "roleCurrent": "sender",
            "marblesSampled": 100,
            "probRed": 0.5,
            "lambda": 5,
            "drawnRed": 16,
            "reportedRed": 1,
            "inferredRed": 6,
            "playerTrialScore": 10,
            "oppTrialScore": -10,
            "playerTotalScore": 52,
            "oppTotalScore": -427,
            "waitTime": 2912.70994610618,
            "responseTime": 1678840836029,
            "catchQuestion": "How many <b class=\"r\">red<\/b> marbles did your opponent report drawing? ",
            "catchKey": -1,
            "catchResponse": -1,
            "catchTime": 1678840836029,
            "trialTime": 0
        },
        {
            "exptPart": "trial",
            "trialNumber": 56,
            "roleCurrent": "receiver",
            "marblesSampled": 100,
            "probRed": 0.5,
            "lambda": 5,
            "drawnRed": 68,
            "reportedRed": 64,
            "inferredRed": 70,
            "playerTrialScore": -2,
            "oppTrialScore": 0,
            "playerTotalScore": 50,
            "oppTotalScore": -427,
            "waitTime": 5760.065136598335,
            "responseTime": 1678840859813,
            "catchQuestion": "How many <b class=\"r\">red<\/b> marbles did your opponent report drawing? ",
            "catchKey": -1,
            "catchResponse": -1,
            "catchTime": 1678840836029,
            "trialTime": 0
        },
        {
            "exptPart": "trial",
            "trialNumber": 57,
            "roleCurrent": "sender",
            "marblesSampled": 100,
            "probRed": 0.5,
            "lambda": 5,
            "drawnRed": 55,
            "reportedRed": 35,
            "inferredRed": 44,
            "playerTrialScore": 11,
            "oppTrialScore": -11,
            "playerTotalScore": 61,
            "oppTotalScore": -438,
            "waitTime": 2346.3661007999463,
            "responseTime": 1678840880697,
            "catchQuestion": "How many <b class=\"r\">red<\/b> marbles did your opponent report drawing? ",
            "catchKey": -1,
            "catchResponse": -1,
            "catchTime": 1678840836029,
            "trialTime": 0
        },
        {
            "exptPart": "trial",
            "trialNumber": 58,
            "roleCurrent": "receiver",
            "marblesSampled": 100,
            "probRed": 0.5,
            "lambda": 5,
            "drawnRed": 25,
            "reportedRed": 20,
            "inferredRed": 35,
            "playerTrialScore": -10,
            "oppTrialScore": 0,
            "playerTotalScore": 51,
            "oppTotalScore": -438,
            "waitTime": 5427.245579953288,
            "responseTime": 1678840890921,
            "catchQuestion": "How many <b class=\"r\">red<\/b> marbles did your opponent report drawing? ",
            "catchKey": -1,
            "catchResponse": -1,
            "catchTime": 1678840836029,
            "trialTime": 0
        },
        {
            "exptPart": "trial",
            "trialNumber": 59,
            "roleCurrent": "sender",
            "marblesSampled": 100,
            "probRed": 0.5,
            "lambda": 5,
            "drawnRed": 39,
            "reportedRed": 39,
            "inferredRed": 44,
            "playerTrialScore": 0,
            "oppTrialScore": -5,
            "playerTotalScore": 51,
            "oppTotalScore": -443,
            "waitTime": 3082.1507521589783,
            "responseTime": 1678840920787,
            "catchQuestion": "How many <b class=\"r\">red<\/b> marbles did your opponent report drawing? ",
            "catchKey": -1,
            "catchResponse": -1,
            "catchTime": 1678840836029,
            "trialTime": 0
        },
        {
            "exptPart": "trial",
            "trialNumber": 60,
            "roleCurrent": "receiver",
            "marblesSampled": 100,
            "probRed": 0.5,
            "lambda": 5,
            "drawnRed": 53,
            "reportedRed": 49,
            "inferredRed": 58,
            "playerTrialScore": -5,
            "oppTrialScore": 0,
            "playerTotalScore": 46,
            "oppTotalScore": -443,
            "waitTime": 7045.361903828787,
            "responseTime": 1678840932277,
            "catchQuestion": "How many <b class=\"r\">red<\/b> marbles did your opponent report drawing? ",
            "catchKey": -1,
            "catchResponse": -1,
            "catchTime": 1678840932277,
            "trialTime": 0
        },
        {
            "exptPart": "trial",
            "trialNumber": 61,
            "roleCurrent": "sender",
            "marblesSampled": 100,
            "probRed": 0.5,
            "lambda": 5,
            "drawnRed": 32,
            "reportedRed": 32,
            "inferredRed": 35,
            "playerTrialScore": 0,
            "oppTrialScore": -3,
            "playerTotalScore": 46,
            "oppTotalScore": -446,
            "waitTime": 2288.543541963716,
            "responseTime": 1678840941364,
            "catchQuestion": "How many <b class=\"r\">red<\/b> marbles did your opponent report drawing? ",
            "catchKey": -1,
            "catchResponse": -1,
            "catchTime": 1678840932277,
            "trialTime": 0
        },
        {
            "exptPart": "trial",
            "trialNumber": 62,
            "roleCurrent": "receiver",
            "marblesSampled": 100,
            "probRed": 0.5,
            "lambda": 5,
            "drawnRed": 28,
            "reportedRed": 26,
            "inferredRed": 42,
            "playerTrialScore": -14,
            "oppTrialScore": 0,
            "playerTotalScore": 32,
            "oppTotalScore": -446,
            "waitTime": 5300.432425890209,
            "responseTime": 1678840950553,
            "catchQuestion": "How many <b class=\"r\">red<\/b> marbles did your opponent report drawing? ",
            "catchKey": -1,
            "catchResponse": -1,
            "catchTime": 1678840932277,
            "trialTime": 0
        },
        {
            "exptPart": "trial",
            "trialNumber": 63,
            "roleCurrent": "sender",
            "marblesSampled": 100,
            "probRed": 0.5,
            "lambda": 5,
            "drawnRed": 48,
            "reportedRed": 16,
            "inferredRed": 23,
            "playerTrialScore": 25,
            "oppTrialScore": -25,
            "playerTotalScore": 57,
            "oppTotalScore": -471,
            "waitTime": 2478.294653675355,
            "responseTime": 1678840978030,
            "catchQuestion": "How many <b class=\"r\">red<\/b> marbles did your opponent report drawing? ",
            "catchKey": -1,
            "catchResponse": -1,
            "catchTime": 1678840932277,
            "trialTime": 0
        },
        {
            "exptPart": "trial",
            "trialNumber": 64,
            "roleCurrent": "receiver",
            "marblesSampled": 100,
            "probRed": 0.5,
            "lambda": 5,
            "drawnRed": 29,
            "reportedRed": 23,
            "inferredRed": 34,
            "playerTrialScore": -5,
            "oppTrialScore": 0,
            "playerTotalScore": 52,
            "oppTotalScore": -471,
            "waitTime": 5933.701657463947,
            "responseTime": 1678840987207,
            "catchQuestion": "How many <b class=\"r\">red<\/b> marbles did your opponent report drawing? ",
            "catchKey": -1,
            "catchResponse": -1,
            "catchTime": 1678840932277,
            "trialTime": 0
        },
        {
            "exptPart": "trial",
            "trialNumber": 65,
            "roleCurrent": "sender",
            "marblesSampled": 100,
            "probRed": 0.5,
            "lambda": 5,
            "drawnRed": 49,
            "reportedRed": 28,
            "inferredRed": 37,
            "playerTrialScore": 12,
            "oppTrialScore": -12,
            "playerTotalScore": 64,
            "oppTotalScore": -483,
            "waitTime": 3198.9542717660956,
            "responseTime": 1678841015684,
            "catchQuestion": "How many <b class=\"r\">red<\/b> marbles did you actually draw (before any changes)? ",
            "catchKey": 49,
            "catchResponse": 49,
            "catchTime": 1678841015684,
            "trialTime": 0
        },
        {
            "exptPart": "trial",
            "trialNumber": 66,
            "roleCurrent": "receiver",
            "marblesSampled": 100,
            "probRed": 0.5,
            "lambda": 5,
            "drawnRed": 27,
            "reportedRed": 22,
            "inferredRed": 36,
            "playerTrialScore": -9,
            "oppTrialScore": 0,
            "playerTotalScore": 55,
            "oppTotalScore": -483,
            "waitTime": 5248.73600248635,
            "responseTime": 1678841032756,
            "catchQuestion": "How many <b class=\"r\">red<\/b> marbles did you actually draw (before any changes)? ",
            "catchKey": -1,
            "catchResponse": -1,
            "catchTime": 1678841015684,
            "trialTime": 0
        },
        {
            "exptPart": "trial",
            "trialNumber": 67,
            "roleCurrent": "sender",
            "marblesSampled": 100,
            "probRed": 0.5,
            "lambda": 5,
            "drawnRed": 79,
            "reportedRed": 79,
            "inferredRed": 82,
            "playerTrialScore": 0,
            "oppTrialScore": -3,
            "playerTotalScore": 55,
            "oppTotalScore": -486,
            "waitTime": 2189.6876785252834,
            "responseTime": 1678841041041,
            "catchQuestion": "How many <b class=\"r\">red<\/b> marbles did you actually draw (before any changes)? ",
            "catchKey": -1,
            "catchResponse": -1,
            "catchTime": 1678841015684,
            "trialTime": 0
        },
        {
            "exptPart": "trial",
            "trialNumber": 68,
            "roleCurrent": "receiver",
            "marblesSampled": 100,
            "probRed": 0.5,
            "lambda": 5,
            "drawnRed": 55,
            "reportedRed": 49,
            "inferredRed": 55,
            "playerTrialScore": 0,
            "oppTrialScore": 0,
            "playerTotalScore": 55,
            "oppTotalScore": -486,
            "waitTime": 7213.314938317982,
            "responseTime": 1678841056042,
            "catchQuestion": "How many <b class=\"r\">red<\/b> marbles did you actually draw (before any changes)? ",
            "catchKey": -1,
            "catchResponse": -1,
            "catchTime": 1678841015684,
            "trialTime": 0
        },
        {
            "exptPart": "trial",
            "trialNumber": 69,
            "roleCurrent": "sender",
            "marblesSampled": 100,
            "probRed": 0.5,
            "lambda": 5,
            "drawnRed": 73,
            "reportedRed": 37,
            "inferredRed": 39,
            "playerTrialScore": 34,
            "oppTrialScore": -34,
            "playerTotalScore": 89,
            "oppTotalScore": -520,
            "waitTime": 2382.3144005348477,
            "responseTime": 1678841089594,
            "catchQuestion": "How many <b class=\"r\">red<\/b> marbles did you actually draw (before any changes)? ",
            "catchKey": -1,
            "catchResponse": -1,
            "catchTime": 1678841015684,
            "trialTime": 0
        },
        {
            "exptPart": "trial",
            "trialNumber": 70,
            "roleCurrent": "receiver",
            "marblesSampled": 100,
            "probRed": 0.5,
            "lambda": 5,
            "drawnRed": 69,
            "reportedRed": 57,
            "inferredRed": 57,
            "playerTrialScore": -12,
            "oppTrialScore": 12,
            "playerTotalScore": 77,
            "oppTotalScore": -508,
            "waitTime": 6033.287209475595,
            "responseTime": 1678841099937,
            "catchQuestion": "How many <b class=\"r\">red<\/b> marbles did you actually draw (before any changes)? ",
            "catchKey": -1,
            "catchResponse": -1,
            "catchTime": 1678841099937,
            "trialTime": 0
        },
        {
            "exptPart": "trial",
            "trialNumber": 71,
            "roleCurrent": "sender",
            "marblesSampled": 100,
            "probRed": 0.5,
            "lambda": 5,
            "drawnRed": 38,
            "reportedRed": 38,
            "inferredRed": 39,
            "playerTrialScore": 0,
            "oppTrialScore": -1,
            "playerTotalScore": 77,
            "oppTotalScore": -509,
            "waitTime": 2355.3314171644415,
            "responseTime": 1678841123392,
            "catchQuestion": "How many <b class=\"r\">red<\/b> marbles did you actually draw (before any changes)? ",
            "catchKey": -1,
            "catchResponse": -1,
            "catchTime": 1678841099937,
            "trialTime": 0
        },
        {
            "exptPart": "trial",
            "trialNumber": 72,
            "roleCurrent": "receiver",
            "marblesSampled": 100,
            "probRed": 0.5,
            "lambda": 5,
            "drawnRed": 56,
            "reportedRed": 49,
            "inferredRed": 58,
            "playerTrialScore": -2,
            "oppTrialScore": 0,
            "playerTotalScore": 75,
            "oppTotalScore": -509,
            "waitTime": 5517.818332436193,
            "responseTime": 1678841134062,
            "catchQuestion": "How many <b class=\"r\">red<\/b> marbles did your opponent report drawing? ",
            "catchKey": 49,
            "catchResponse": 45,
            "catchTime": 1678841134062,
            "trialTime": 0
        },
        {
            "exptPart": "trial",
            "trialNumber": 73,
            "roleCurrent": "sender",
            "marblesSampled": 100,
            "probRed": 0.5,
            "lambda": 5,
            "drawnRed": 49,
            "reportedRed": 22,
            "inferredRed": 24,
            "playerTrialScore": 25,
            "oppTrialScore": -25,
            "playerTotalScore": 100,
            "oppTotalScore": -534,
            "waitTime": 3199.771434746981,
            "responseTime": 1678841176040,
            "catchQuestion": "How many <b class=\"r\">red<\/b> marbles did your opponent report drawing? ",
            "catchKey": -1,
            "catchResponse": -1,
            "catchTime": 1678841134062,
            "trialTime": 0
        },
        {
            "exptPart": "trial",
            "trialNumber": 74,
            "roleCurrent": "receiver",
            "marblesSampled": 100,
            "probRed": 0.5,
            "lambda": 5,
            "drawnRed": 46,
            "reportedRed": 42,
            "inferredRed": 51,
            "playerTrialScore": -5,
            "oppTrialScore": 0,
            "playerTotalScore": 95,
            "oppTotalScore": -534,
            "waitTime": 6032.610277557936,
            "responseTime": 1678841186081,
            "catchQuestion": "How many <b class=\"r\">red<\/b> marbles did your opponent report drawing? ",
            "catchKey": 42,
            "catchResponse": 42,
            "catchTime": 1678841186081,
            "trialTime": 0
        },
        {
            "exptPart": "trial",
            "trialNumber": 75,
            "roleCurrent": "sender",
            "marblesSampled": 100,
            "probRed": 0.5,
            "lambda": 5,
            "drawnRed": 36,
            "reportedRed": 36,
            "inferredRed": 41,
            "playerTrialScore": 0,
            "oppTrialScore": -5,
            "playerTotalScore": 95,
            "oppTotalScore": -539,
            "waitTime": 3178.290932629625,
            "responseTime": 1678841205298,
            "catchQuestion": "How many <b class=\"r\">red<\/b> marbles did your opponent report drawing? ",
            "catchKey": -1,
            "catchResponse": -1,
            "catchTime": 1678841205298,
            "trialTime": 0
        },
        {
            "exptPart": "trial",
            "trialNumber": 76,
            "roleCurrent": "receiver",
            "marblesSampled": 100,
            "probRed": 0.5,
            "lambda": 5,
            "drawnRed": 12,
            "reportedRed": 7,
            "inferredRed": 44,
            "playerTrialScore": -32,
            "oppTrialScore": 0,
            "playerTotalScore": 63,
            "oppTotalScore": -539,
            "waitTime": 5773.167444462747,
            "responseTime": 1678841218453,
            "catchQuestion": "How many <b class=\"r\">red<\/b> marbles did your opponent report drawing? ",
            "catchKey": -1,
            "catchResponse": -1,
            "catchTime": 1678841205298,
            "trialTime": 0
        },
        {
            "exptPart": "trial",
            "trialNumber": 77,
            "roleCurrent": "sender",
            "marblesSampled": 100,
            "probRed": 0.5,
            "lambda": 5,
            "drawnRed": 63,
            "reportedRed": 63,
            "inferredRed": 67,
            "playerTrialScore": 0,
            "oppTrialScore": -4,
            "playerTotalScore": 63,
            "oppTotalScore": -543,
            "waitTime": 2266.3205228769993,
            "responseTime": 1678841227064,
            "catchQuestion": "How many <b class=\"r\">red<\/b> marbles did your opponent report drawing? ",
            "catchKey": -1,
            "catchResponse": -1,
            "catchTime": 1678841205298,
            "trialTime": 0
        },
        {
            "exptPart": "trial",
            "trialNumber": 78,
            "roleCurrent": "receiver",
            "marblesSampled": 100,
            "probRed": 0.5,
            "lambda": 5,
            "drawnRed": 10,
            "reportedRed": 7,
            "inferredRed": 50,
            "playerTrialScore": -40,
            "oppTrialScore": 0,
            "playerTotalScore": 23,
            "oppTotalScore": -543,
            "waitTime": 5850.925402589999,
            "responseTime": 1678841279634,
            "catchQuestion": "How many <b class=\"r\">red<\/b> marbles did your opponent report drawing? ",
            "catchKey": -1,
            "catchResponse": -1,
            "catchTime": 1678841205298,
            "trialTime": 0
        },
        {
            "exptPart": "trial",
            "trialNumber": 79,
            "roleCurrent": "sender",
            "marblesSampled": 100,
            "probRed": 0.5,
            "lambda": 5,
            "drawnRed": 11,
            "reportedRed": 2,
            "inferredRed": 8,
            "playerTrialScore": 3,
            "oppTrialScore": -3,
            "playerTotalScore": 26,
            "oppTotalScore": -546,
            "waitTime": 2258.6183889415224,
            "responseTime": 1678841293853,
            "catchQuestion": "How many <b class=\"r\">red<\/b> marbles did your opponent report drawing? ",
            "catchKey": -1,
            "catchResponse": -1,
            "catchTime": 1678841205298,
            "trialTime": 0
        },
        {
            "exptPart": "trial",
            "trialNumber": 80,
            "roleCurrent": "receiver",
            "marblesSampled": 100,
            "probRed": 0.5,
            "lambda": 5,
            "drawnRed": 43,
            "reportedRed": 38,
            "inferredRed": 44,
            "playerTrialScore": -1,
            "oppTrialScore": 0,
            "playerTotalScore": 25,
            "oppTotalScore": -546,
            "waitTime": 7227.825682548395,
            "responseTime": 1678841306375,
            "catchQuestion": "How many <b class=\"r\">red<\/b> marbles did your opponent report drawing? ",
            "catchKey": 38,
            "catchResponse": 38,
            "catchTime": 1678841306375,
            "trialTime": 0
        },
        {
            "exptPart": "trial",
            "trialNumber": 81,
            "roleCurrent": "sender",
            "marblesSampled": 100,
            "probRed": 0.5,
            "lambda": 5,
            "drawnRed": 27,
            "reportedRed": 27,
            "inferredRed": 33,
            "playerTrialScore": 0,
            "oppTrialScore": -6,
            "playerTotalScore": 25,
            "oppTotalScore": -552,
            "waitTime": 2290.270785075653,
            "responseTime": 1678841322469,
            "catchQuestion": "How many <b class=\"r\">red<\/b> marbles did your opponent report drawing? ",
            "catchKey": -1,
            "catchResponse": -1,
            "catchTime": 1678841306375,
            "trialTime": 0
        },
        {
            "exptPart": "trial",
            "trialNumber": 82,
            "roleCurrent": "receiver",
            "marblesSampled": 100,
            "probRed": 0.5,
            "lambda": 5,
            "drawnRed": 30,
            "reportedRed": 27,
            "inferredRed": 50,
            "playerTrialScore": -20,
            "oppTrialScore": 0,
            "playerTotalScore": 5,
            "oppTotalScore": -552,
            "waitTime": 7022.616346710944,
            "responseTime": 1678841342570,
            "catchQuestion": "How many <b class=\"r\">red<\/b> marbles did your opponent report drawing? ",
            "catchKey": -1,
            "catchResponse": -1,
            "catchTime": 1678841306375,
            "trialTime": 0
        },
        {
            "exptPart": "trial",
            "trialNumber": 83,
            "roleCurrent": "sender",
            "marblesSampled": 100,
            "probRed": 0.5,
            "lambda": 5,
            "drawnRed": 24,
            "reportedRed": 12,
            "inferredRed": 20,
            "playerTrialScore": 4,
            "oppTrialScore": -4,
            "playerTotalScore": 9,
            "oppTotalScore": -556,
            "waitTime": 2352.2659655803864,
            "responseTime": 1678841365457,
            "catchQuestion": "How many <b class=\"r\">red<\/b> marbles did your opponent report drawing? ",
            "catchKey": -1,
            "catchResponse": -1,
            "catchTime": 1678841306375,
            "trialTime": 0
        },
        {
            "exptPart": "trial",
            "trialNumber": 84,
            "roleCurrent": "receiver",
            "marblesSampled": 100,
            "probRed": 0.5,
            "lambda": 5,
            "drawnRed": 79,
            "reportedRed": 77,
            "inferredRed": 77,
            "playerTrialScore": -2,
            "oppTrialScore": 2,
            "playerTotalScore": 7,
            "oppTotalScore": -554,
            "waitTime": 7399.25198437719,
            "responseTime": 1678841377869,
            "catchQuestion": "How many <b class=\"r\">red<\/b> marbles did your opponent report drawing? ",
            "catchKey": -1,
            "catchResponse": -1,
            "catchTime": 1678841306375,
            "trialTime": 0
        },
        {
            "exptPart": "trial",
            "trialNumber": 85,
            "roleCurrent": "sender",
            "marblesSampled": 100,
            "probRed": 0.5,
            "lambda": 5,
            "drawnRed": 34,
            "reportedRed": 21,
            "inferredRed": 22,
            "playerTrialScore": 12,
            "oppTrialScore": -12,
            "playerTotalScore": 19,
            "oppTotalScore": -566,
            "waitTime": 2651.069453056935,
            "responseTime": 1678841397254,
            "catchQuestion": "How many <b class=\"r\">red<\/b> marbles did your opponent report drawing? ",
            "catchKey": -1,
            "catchResponse": -1,
            "catchTime": 1678841397254,
            "trialTime": 0
        },
        {
            "exptPart": "trial",
            "trialNumber": 86,
            "roleCurrent": "receiver",
            "marblesSampled": 100,
            "probRed": 0.5,
            "lambda": 5,
            "drawnRed": 15,
            "reportedRed": 9,
            "inferredRed": 77,
            "playerTrialScore": -62,
            "oppTrialScore": 0,
            "playerTotalScore": -43,
            "oppTotalScore": -566,
            "waitTime": 6717.247565734908,
            "responseTime": 1678841413812,
            "catchQuestion": "How many <b class=\"r\">red<\/b> marbles did your opponent report drawing? ",
            "catchKey": -1,
            "catchResponse": -1,
            "catchTime": 1678841397254,
            "trialTime": 0
        },
        {
            "exptPart": "trial",
            "trialNumber": 87,
            "roleCurrent": "sender",
            "marblesSampled": 100,
            "probRed": 0.5,
            "lambda": 5,
            "drawnRed": 39,
            "reportedRed": 32,
            "inferredRed": 37,
            "playerTrialScore": 2,
            "oppTrialScore": -2,
            "playerTotalScore": -41,
            "oppTotalScore": -568,
            "waitTime": 2784.5530933876994,
            "responseTime": 1678841436886,
            "catchQuestion": "How many <b class=\"r\">red<\/b> marbles did your opponent report drawing? ",
            "catchKey": -1,
            "catchResponse": -1,
            "catchTime": 1678841397254,
            "trialTime": 0
        },
        {
            "exptPart": "trial",
            "trialNumber": 88,
            "roleCurrent": "receiver",
            "marblesSampled": 100,
            "probRed": 0.5,
            "lambda": 5,
            "drawnRed": 45,
            "reportedRed": 37,
            "inferredRed": 55,
            "playerTrialScore": -10,
            "oppTrialScore": 0,
            "playerTotalScore": -51,
            "oppTotalScore": -568,
            "waitTime": 6211.79065755422,
            "responseTime": 1678841447712,
            "catchQuestion": "How many <b class=\"r\">red<\/b> marbles did your opponent report drawing? ",
            "catchKey": -1,
            "catchResponse": -1,
            "catchTime": 1678841397254,
            "trialTime": 0
        },
        {
            "exptPart": "trial",
            "trialNumber": 89,
            "roleCurrent": "sender",
            "marblesSampled": 100,
            "probRed": 0.5,
            "lambda": 5,
            "drawnRed": 25,
            "reportedRed": 25,
            "inferredRed": 31,
            "playerTrialScore": 0,
            "oppTrialScore": -6,
            "playerTotalScore": -51,
            "oppTotalScore": -574,
            "waitTime": 2339.644402941014,
            "responseTime": 1678841472425,
            "catchQuestion": "How many <b class=\"r\">red<\/b> marbles did you actually draw (before any changes)? ",
            "catchKey": 25,
            "catchResponse": 25,
            "catchTime": 1678841472425,
            "trialTime": 0
        },
        {
            "exptPart": "trial",
            "trialNumber": 90,
            "roleCurrent": "receiver",
            "marblesSampled": 100,
            "probRed": 0.5,
            "lambda": 5,
            "drawnRed": 31,
            "reportedRed": 23,
            "inferredRed": 65,
            "playerTrialScore": -34,
            "oppTrialScore": 0,
            "playerTotalScore": -85,
            "oppTotalScore": -574,
            "waitTime": 6407.281880833466,
            "responseTime": 1678841489948,
            "catchQuestion": "How many <b class=\"r\">red<\/b> marbles did you actually draw (before any changes)? ",
            "catchKey": -1,
            "catchResponse": -1,
            "catchTime": 1678841489948,
            "trialTime": 0
        },
        {
            "exptPart": "trial",
            "trialNumber": 91,
            "roleCurrent": "sender",
            "marblesSampled": 100,
            "probRed": 0.5,
            "lambda": 5,
            "drawnRed": 77,
            "reportedRed": 31,
            "inferredRed": 37,
            "playerTrialScore": 40,
            "oppTrialScore": -40,
            "playerTotalScore": -45,
            "oppTotalScore": -614,
            "waitTime": 2599.4060119223077,
            "responseTime": 1678841542916,
            "catchQuestion": "How many <b class=\"r\">red<\/b> marbles did you actually draw (before any changes)? ",
            "catchKey": -1,
            "catchResponse": -1,
            "catchTime": 1678841489948,
            "trialTime": 0
        },
        {
            "exptPart": "trial",
            "trialNumber": 92,
            "roleCurrent": "receiver",
            "marblesSampled": 100,
            "probRed": 0.5,
            "lambda": 5,
            "drawnRed": 13,
            "reportedRed": 7,
            "inferredRed": 35,
            "playerTrialScore": -22,
            "oppTrialScore": 0,
            "playerTotalScore": -67,
            "oppTotalScore": -614,
            "waitTime": 7442.304237902036,
            "responseTime": 1678841561355,
            "catchQuestion": "How many <b class=\"r\">red<\/b> marbles did you actually draw (before any changes)? ",
            "catchKey": -1,
            "catchResponse": -1,
            "catchTime": 1678841489948,
            "trialTime": 0
        },
        {
            "exptPart": "trial",
            "trialNumber": 93,
            "roleCurrent": "sender",
            "marblesSampled": 100,
            "probRed": 0.5,
            "lambda": 5,
            "drawnRed": 7,
            "reportedRed": 7,
            "inferredRed": 14,
            "playerTrialScore": 0,
            "oppTrialScore": -7,
            "playerTotalScore": -67,
            "oppTotalScore": -621,
            "waitTime": 2068.046314705686,
            "responseTime": 1678841573760,
            "catchQuestion": "How many <b class=\"r\">red<\/b> marbles did you actually draw (before any changes)? ",
            "catchKey": -1,
            "catchResponse": -1,
            "catchTime": 1678841489948,
            "trialTime": 0
        },
        {
            "exptPart": "trial",
            "trialNumber": 94,
            "roleCurrent": "receiver",
            "marblesSampled": 100,
            "probRed": 0.5,
            "lambda": 5,
            "drawnRed": 40,
            "reportedRed": 34,
            "inferredRed": 45,
            "playerTrialScore": -5,
            "oppTrialScore": 0,
            "playerTotalScore": -72,
            "oppTotalScore": -621,
            "waitTime": 6616.924362799192,
            "responseTime": 1678841584666,
            "catchQuestion": "How many <b class=\"r\">red<\/b> marbles did your opponent report drawing? ",
            "catchKey": 34,
            "catchResponse": 34,
            "catchTime": 1678841584666,
            "trialTime": 0
        },
        {
            "exptPart": "trial",
            "trialNumber": 95,
            "roleCurrent": "sender",
            "marblesSampled": 100,
            "probRed": 0.5,
            "lambda": 5,
            "drawnRed": 51,
            "reportedRed": 24,
            "inferredRed": 26,
            "playerTrialScore": 25,
            "oppTrialScore": -25,
            "playerTotalScore": -47,
            "oppTotalScore": -646,
            "waitTime": 2099.984753078872,
            "responseTime": 1678841613181,
            "catchQuestion": "How many <b class=\"r\">red<\/b> marbles did your opponent report drawing? ",
            "catchKey": -1,
            "catchResponse": -1,
            "catchTime": 1678841613181,
            "trialTime": 0
        },
        {
            "exptPart": "trial",
            "trialNumber": 96,
            "roleCurrent": "receiver",
            "marblesSampled": 100,
            "probRed": 0.5,
            "lambda": 5,
            "drawnRed": 39,
            "reportedRed": 32,
            "inferredRed": 50,
            "playerTrialScore": -11,
            "oppTrialScore": 0,
            "playerTotalScore": -58,
            "oppTotalScore": -646,
            "waitTime": 6353.012306416669,
            "responseTime": 1678841627599,
            "catchQuestion": "How many <b class=\"r\">red<\/b> marbles did your opponent report drawing? ",
            "catchKey": -1,
            "catchResponse": -1,
            "catchTime": 1678841613181,
            "trialTime": 0
        },
        {
            "exptPart": "trial",
            "trialNumber": 97,
            "roleCurrent": "sender",
            "marblesSampled": 100,
            "probRed": 0.5,
            "lambda": 5,
            "drawnRed": 30,
            "reportedRed": 30,
            "inferredRed": 37,
            "playerTrialScore": 0,
            "oppTrialScore": -7,
            "playerTotalScore": -58,
            "oppTotalScore": -653,
            "waitTime": 2231.030924757987,
            "responseTime": 1678841651000,
            "catchQuestion": "How many <b class=\"r\">red<\/b> marbles did your opponent report drawing? ",
            "catchKey": -1,
            "catchResponse": -1,
            "catchTime": 1678841613181,
            "trialTime": 0
        },
        {
            "exptPart": "trial",
            "trialNumber": 98,
            "roleCurrent": "receiver",
            "marblesSampled": 100,
            "probRed": 0.5,
            "lambda": 5,
            "drawnRed": 91,
            "reportedRed": 85,
            "inferredRed": 85,
            "playerTrialScore": -6,
            "oppTrialScore": 6,
            "playerTotalScore": -64,
            "oppTotalScore": -647,
            "waitTime": 5433.321448248593,
            "responseTime": 1678841660841,
            "catchQuestion": "How many <b class=\"r\">red<\/b> marbles did your opponent report drawing? ",
            "catchKey": -1,
            "catchResponse": -1,
            "catchTime": 1678841613181,
            "trialTime": 0
        },
        {
            "exptPart": "trial",
            "trialNumber": 99,
            "roleCurrent": "sender",
            "marblesSampled": 100,
            "probRed": 0.5,
            "lambda": 5,
            "drawnRed": 57,
            "reportedRed": 23,
            "inferredRed": 28,
            "playerTrialScore": 29,
            "oppTrialScore": -29,
            "playerTotalScore": -35,
            "oppTotalScore": -676,
            "waitTime": 2247.732341711878,
            "responseTime": 1678841693224,
            "catchQuestion": "How many <b class=\"r\">red<\/b> marbles did your opponent report drawing? ",
            "catchKey": -1,
            "catchResponse": -1,
            "catchTime": 1678841613181,
            "trialTime": 0
        },
        {
            "exptPart": "trial",
            "trialNumber": 100,
            "roleCurrent": "receiver",
            "marblesSampled": 100,
            "probRed": 0.5,
            "lambda": 5,
            "drawnRed": 22,
            "reportedRed": 18,
            "inferredRed": 36,
            "playerTrialScore": -14,
            "oppTrialScore": 0,
            "playerTotalScore": -49,
            "oppTotalScore": -676,
            "waitTime": 7396.0637128115495,
            "responseTime": 1678841703872,
            "catchQuestion": "How many <b class=\"r\">red<\/b> marbles did your opponent report drawing? ",
            "catchKey": 18,
            "catchResponse": 18,
            "catchTime": 1678841703872,
            "trialTime": 0
        }
    ]
}