{
    "client": {
        "type": "sona",
        "experiment_id": 2228,
        "credit_token": "b315147ae43241ea9c65086cb510cfb7",
        "survey_code": "46460",
        "sid": "sona-46460",
        "window": {
            "width": 1600,
            "height": 635
        },
        "screen": {
            "width": 1600,
            "height": 900
        },
        "userAgent": "Mozilla\/5.0 (Macintosh; Intel Mac OS X 10_15_7) AppleWebKit\/537.36 (KHTML, like Gecko) Chrome\/111.0.0.0 Safari\/537.36",
        "score": 0,
        "bonus": 0
    },
    "expt": {
        "saveURL": "submit.simple.php",
        "trials": 100,
        "practiceTrials": 2,
        "marblesSampled": 100,
        "probRed": 0.5,
        "lambdaAI": 5,
        "roleFirst": "sender",
        "roles": [
            "sender",
            "receiver"
        ],
        "cost": "unif",
        "goal": "under",
        "goalInstructTxt": "above",
        "catchTrials": [
            17,
            38,
            92,
            27,
            35,
            6,
            52,
            11,
            44,
            77
        ],
        "scoreTotal": {
            "player": 85,
            "opp": -775
        },
        "sona": {
            "experiment_id": 2228,
            "credit_token": "b315147ae43241ea9c65086cb510cfb7"
        },
        "pilot": false,
        "debug": false
    },
    "trials": [
        {
            "exptPart": "practice",
            "trialNumber": 1,
            "roleCurrent": "sender",
            "marblesSampled": 100,
            "probRed": 0.5,
            "lambda": 5,
            "drawnRed": 49,
            "reportedRed": 36,
            "inferredRed": 37,
            "playerTrialScore": 12,
            "oppTrialScore": -12,
            "playerTotalScore": 12,
            "oppTotalScore": -12,
            "waitTime": 2482.9829126607547,
            "responseTime": 1678831120535,
            "catchQuestion": "How many <b class=\"r\">red<\/b> marbles did you actually draw (before any changes)? ",
            "catchKey": 49,
            "catchResponse": 57,
            "catchTime": 1678831120536,
            "trialTime": 0
        },
        {
            "exptPart": "practice",
            "trialNumber": 2,
            "roleCurrent": "receiver",
            "marblesSampled": 100,
            "probRed": 0.5,
            "lambda": 5,
            "drawnRed": 39,
            "reportedRed": 33,
            "inferredRed": 49,
            "playerTrialScore": -10,
            "oppTrialScore": 0,
            "playerTotalScore": 2,
            "oppTotalScore": -12,
            "waitTime": 5514.64270479098,
            "responseTime": 1678831199487,
            "catchQuestion": "How many <b class=\"r\">red<\/b> marbles did your opponent report drawing? ",
            "catchKey": 33,
            "catchResponse": 33,
            "catchTime": 1678831199487,
            "trialTime": 0
        },
        {
            "exptPart": "trial",
            "trialNumber": 1,
            "roleCurrent": "sender",
            "marblesSampled": 100,
            "probRed": 0.5,
            "lambda": 5,
            "drawnRed": 23,
            "reportedRed": 23,
            "inferredRed": 29,
            "playerTrialScore": 0,
            "oppTrialScore": -6,
            "playerTotalScore": 0,
            "oppTotalScore": -6,
            "waitTime": 2781.829249849224,
            "responseTime": 1678831266937,
            "catchQuestion": "How many <b class=\"r\">red<\/b> marbles did your opponent report drawing? ",
            "catchKey": -1,
            "catchResponse": -1,
            "catchTime": 1678831199487,
            "trialTime": 0
        },
        {
            "exptPart": "trial",
            "trialNumber": 2,
            "roleCurrent": "receiver",
            "marblesSampled": 100,
            "probRed": 0.5,
            "lambda": 5,
            "drawnRed": 6,
            "reportedRed": 2,
            "inferredRed": 27,
            "playerTrialScore": -21,
            "oppTrialScore": 0,
            "playerTotalScore": -21,
            "oppTotalScore": -6,
            "waitTime": 7418.598060863858,
            "responseTime": 1678831291210,
            "catchQuestion": "How many <b class=\"r\">red<\/b> marbles did your opponent report drawing? ",
            "catchKey": -1,
            "catchResponse": -1,
            "catchTime": 1678831199487,
            "trialTime": 0
        },
        {
            "exptPart": "trial",
            "trialNumber": 3,
            "roleCurrent": "sender",
            "marblesSampled": 100,
            "probRed": 0.5,
            "lambda": 5,
            "drawnRed": 64,
            "reportedRed": 12,
            "inferredRed": 19,
            "playerTrialScore": 45,
            "oppTrialScore": -45,
            "playerTotalScore": 24,
            "oppTotalScore": -51,
            "waitTime": 2603.3415404538214,
            "responseTime": 1678831354692,
            "catchQuestion": "How many <b class=\"r\">red<\/b> marbles did your opponent report drawing? ",
            "catchKey": -1,
            "catchResponse": -1,
            "catchTime": 1678831199487,
            "trialTime": 0
        },
        {
            "exptPart": "trial",
            "trialNumber": 4,
            "roleCurrent": "receiver",
            "marblesSampled": 100,
            "probRed": 0.5,
            "lambda": 5,
            "drawnRed": 36,
            "reportedRed": 28,
            "inferredRed": 37,
            "playerTrialScore": -1,
            "oppTrialScore": 0,
            "playerTotalScore": 23,
            "oppTotalScore": -51,
            "waitTime": 6658.059176303299,
            "responseTime": 1678831380215,
            "catchQuestion": "How many <b class=\"r\">red<\/b> marbles did your opponent report drawing? ",
            "catchKey": -1,
            "catchResponse": -1,
            "catchTime": 1678831199487,
            "trialTime": 0
        },
        {
            "exptPart": "trial",
            "trialNumber": 5,
            "roleCurrent": "sender",
            "marblesSampled": 100,
            "probRed": 0.5,
            "lambda": 5,
            "drawnRed": 49,
            "reportedRed": 70,
            "inferredRed": 75,
            "playerTrialScore": 0,
            "oppTrialScore": -26,
            "playerTotalScore": 23,
            "oppTotalScore": -77,
            "waitTime": 2183.223055992918,
            "responseTime": 1678831494042,
            "catchQuestion": "How many <b class=\"r\">red<\/b> marbles did your opponent report drawing? ",
            "catchKey": -1,
            "catchResponse": -1,
            "catchTime": 1678831494042,
            "trialTime": 0
        },
        {
            "exptPart": "trial",
            "trialNumber": 6,
            "roleCurrent": "receiver",
            "marblesSampled": 100,
            "probRed": 0.5,
            "lambda": 5,
            "drawnRed": 54,
            "reportedRed": 51,
            "inferredRed": 47,
            "playerTrialScore": -7,
            "oppTrialScore": 7,
            "playerTotalScore": 16,
            "oppTotalScore": -70,
            "waitTime": 5815.480253159992,
            "responseTime": 1678831522333,
            "catchQuestion": "How many <b class=\"r\">red<\/b> marbles did your opponent report drawing? ",
            "catchKey": -1,
            "catchResponse": -1,
            "catchTime": 1678831494042,
            "trialTime": 0
        },
        {
            "exptPart": "trial",
            "trialNumber": 7,
            "roleCurrent": "sender",
            "marblesSampled": 100,
            "probRed": 0.5,
            "lambda": 5,
            "drawnRed": 84,
            "reportedRed": 100,
            "inferredRed": 100,
            "playerTrialScore": 0,
            "oppTrialScore": -16,
            "playerTotalScore": 16,
            "oppTotalScore": -86,
            "waitTime": 2866.8801804828054,
            "responseTime": 1678831574762,
            "catchQuestion": "How many <b class=\"r\">red<\/b> marbles did you actually draw (before any changes)? ",
            "catchKey": 84,
            "catchResponse": 84,
            "catchTime": 1678831574762,
            "trialTime": 0
        },
        {
            "exptPart": "trial",
            "trialNumber": 8,
            "roleCurrent": "receiver",
            "marblesSampled": 100,
            "probRed": 0.5,
            "lambda": 5,
            "drawnRed": 35,
            "reportedRed": 30,
            "inferredRed": 37,
            "playerTrialScore": -2,
            "oppTrialScore": 0,
            "playerTotalScore": 14,
            "oppTotalScore": -86,
            "waitTime": 6270.909491214779,
            "responseTime": 1678831604086,
            "catchQuestion": "How many <b class=\"r\">red<\/b> marbles did you actually draw (before any changes)? ",
            "catchKey": -1,
            "catchResponse": -1,
            "catchTime": 1678831574762,
            "trialTime": 0
        },
        {
            "exptPart": "trial",
            "trialNumber": 9,
            "roleCurrent": "sender",
            "marblesSampled": 100,
            "probRed": 0.5,
            "lambda": 5,
            "drawnRed": 24,
            "reportedRed": 51,
            "inferredRed": 54,
            "playerTrialScore": 0,
            "oppTrialScore": -30,
            "playerTotalScore": 14,
            "oppTotalScore": -116,
            "waitTime": 3131.004854508498,
            "responseTime": 1678831676404,
            "catchQuestion": "How many <b class=\"r\">red<\/b> marbles did you actually draw (before any changes)? ",
            "catchKey": -1,
            "catchResponse": -1,
            "catchTime": 1678831574762,
            "trialTime": 0
        },
        {
            "exptPart": "trial",
            "trialNumber": 10,
            "roleCurrent": "receiver",
            "marblesSampled": 100,
            "probRed": 0.5,
            "lambda": 5,
            "drawnRed": 42,
            "reportedRed": 34,
            "inferredRed": 57,
            "playerTrialScore": -15,
            "oppTrialScore": 0,
            "playerTotalScore": -1,
            "oppTotalScore": -116,
            "waitTime": 5683.613085921631,
            "responseTime": 1678831695075,
            "catchQuestion": "How many <b class=\"r\">red<\/b> marbles did you actually draw (before any changes)? ",
            "catchKey": -1,
            "catchResponse": -1,
            "catchTime": 1678831695075,
            "trialTime": 0
        },
        {
            "exptPart": "trial",
            "trialNumber": 11,
            "roleCurrent": "sender",
            "marblesSampled": 100,
            "probRed": 0.5,
            "lambda": 5,
            "drawnRed": 46,
            "reportedRed": 48,
            "inferredRed": 52,
            "playerTrialScore": 0,
            "oppTrialScore": -6,
            "playerTotalScore": -1,
            "oppTotalScore": -122,
            "waitTime": 2481.897819064976,
            "responseTime": 1678831769709,
            "catchQuestion": "How many <b class=\"r\">red<\/b> marbles did you actually draw (before any changes)? ",
            "catchKey": -1,
            "catchResponse": -1,
            "catchTime": 1678831695075,
            "trialTime": 0
        },
        {
            "exptPart": "trial",
            "trialNumber": 12,
            "roleCurrent": "receiver",
            "marblesSampled": 100,
            "probRed": 0.5,
            "lambda": 5,
            "drawnRed": 73,
            "reportedRed": 72,
            "inferredRed": 47,
            "playerTrialScore": -26,
            "oppTrialScore": 26,
            "playerTotalScore": -27,
            "oppTotalScore": -96,
            "waitTime": 6125.197151877791,
            "responseTime": 1678831791398,
            "catchQuestion": "How many <b class=\"r\">red<\/b> marbles did your opponent report drawing? ",
            "catchKey": 72,
            "catchResponse": 54,
            "catchTime": 1678831791398,
            "trialTime": 0
        },
        {
            "exptPart": "trial",
            "trialNumber": 13,
            "roleCurrent": "sender",
            "marblesSampled": 100,
            "probRed": 0.5,
            "lambda": 5,
            "drawnRed": 60,
            "reportedRed": 58,
            "inferredRed": 62,
            "playerTrialScore": 0,
            "oppTrialScore": -2,
            "playerTotalScore": -27,
            "oppTotalScore": -98,
            "waitTime": 3021.5189221151095,
            "responseTime": 1678831827974,
            "catchQuestion": "How many <b class=\"r\">red<\/b> marbles did your opponent report drawing? ",
            "catchKey": -1,
            "catchResponse": -1,
            "catchTime": 1678831791398,
            "trialTime": 0
        },
        {
            "exptPart": "trial",
            "trialNumber": 14,
            "roleCurrent": "receiver",
            "marblesSampled": 100,
            "probRed": 0.5,
            "lambda": 5,
            "drawnRed": 48,
            "reportedRed": 39,
            "inferredRed": 60,
            "playerTrialScore": -12,
            "oppTrialScore": 0,
            "playerTotalScore": -39,
            "oppTotalScore": -98,
            "waitTime": 5257.497733287282,
            "responseTime": 1678831845628,
            "catchQuestion": "How many <b class=\"r\">red<\/b> marbles did your opponent report drawing? ",
            "catchKey": -1,
            "catchResponse": -1,
            "catchTime": 1678831791398,
            "trialTime": 0
        },
        {
            "exptPart": "trial",
            "trialNumber": 15,
            "roleCurrent": "sender",
            "marblesSampled": 100,
            "probRed": 0.5,
            "lambda": 5,
            "drawnRed": 18,
            "reportedRed": 19,
            "inferredRed": 22,
            "playerTrialScore": 0,
            "oppTrialScore": -4,
            "playerTotalScore": -39,
            "oppTotalScore": -102,
            "waitTime": 2477.1222667656884,
            "responseTime": 1678831864166,
            "catchQuestion": "How many <b class=\"r\">red<\/b> marbles did your opponent report drawing? ",
            "catchKey": -1,
            "catchResponse": -1,
            "catchTime": 1678831864166,
            "trialTime": 0
        },
        {
            "exptPart": "trial",
            "trialNumber": 16,
            "roleCurrent": "receiver",
            "marblesSampled": 100,
            "probRed": 0.5,
            "lambda": 5,
            "drawnRed": 70,
            "reportedRed": 64,
            "inferredRed": 57,
            "playerTrialScore": -13,
            "oppTrialScore": 13,
            "playerTotalScore": -52,
            "oppTotalScore": -89,
            "waitTime": 7434.847286180619,
            "responseTime": 1678831886655,
            "catchQuestion": "How many <b class=\"r\">red<\/b> marbles did your opponent report drawing? ",
            "catchKey": -1,
            "catchResponse": -1,
            "catchTime": 1678831864166,
            "trialTime": 0
        },
        {
            "exptPart": "trial",
            "trialNumber": 17,
            "roleCurrent": "sender",
            "marblesSampled": 100,
            "probRed": 0.5,
            "lambda": 5,
            "drawnRed": 51,
            "reportedRed": 39,
            "inferredRed": 41,
            "playerTrialScore": 10,
            "oppTrialScore": -10,
            "playerTotalScore": -42,
            "oppTotalScore": -99,
            "waitTime": 2325.983369175212,
            "responseTime": 1678831909743,
            "catchQuestion": "How many <b class=\"r\">red<\/b> marbles did your opponent report drawing? ",
            "catchKey": -1,
            "catchResponse": -1,
            "catchTime": 1678831864166,
            "trialTime": 0
        },
        {
            "exptPart": "trial",
            "trialNumber": 18,
            "roleCurrent": "receiver",
            "marblesSampled": 100,
            "probRed": 0.5,
            "lambda": 5,
            "drawnRed": 63,
            "reportedRed": 57,
            "inferredRed": 55,
            "playerTrialScore": -8,
            "oppTrialScore": 8,
            "playerTotalScore": -50,
            "oppTotalScore": -91,
            "waitTime": 7006.827356182759,
            "responseTime": 1678831930099,
            "catchQuestion": "How many <b class=\"r\">red<\/b> marbles did your opponent report drawing? ",
            "catchKey": 57,
            "catchResponse": 57,
            "catchTime": 1678831930099,
            "trialTime": 0
        },
        {
            "exptPart": "trial",
            "trialNumber": 19,
            "roleCurrent": "sender",
            "marblesSampled": 100,
            "probRed": 0.5,
            "lambda": 5,
            "drawnRed": 45,
            "reportedRed": 1,
            "inferredRed": 7,
            "playerTrialScore": 38,
            "oppTrialScore": -38,
            "playerTotalScore": -12,
            "oppTotalScore": -129,
            "waitTime": 2096.1233878611024,
            "responseTime": 1678832001700,
            "catchQuestion": "How many <b class=\"r\">red<\/b> marbles did your opponent report drawing? ",
            "catchKey": -1,
            "catchResponse": -1,
            "catchTime": 1678831930099,
            "trialTime": 0
        },
        {
            "exptPart": "trial",
            "trialNumber": 20,
            "roleCurrent": "receiver",
            "marblesSampled": 100,
            "probRed": 0.5,
            "lambda": 5,
            "drawnRed": 40,
            "reportedRed": 37,
            "inferredRed": 47,
            "playerTrialScore": -7,
            "oppTrialScore": 0,
            "playerTotalScore": -19,
            "oppTotalScore": -129,
            "waitTime": 5773.971210892915,
            "responseTime": 1678832019004,
            "catchQuestion": "How many <b class=\"r\">red<\/b> marbles did your opponent report drawing? ",
            "catchKey": -1,
            "catchResponse": -1,
            "catchTime": 1678832019004,
            "trialTime": 0
        },
        {
            "exptPart": "trial",
            "trialNumber": 21,
            "roleCurrent": "sender",
            "marblesSampled": 100,
            "probRed": 0.5,
            "lambda": 5,
            "drawnRed": 88,
            "reportedRed": 100,
            "inferredRed": 100,
            "playerTrialScore": 0,
            "oppTrialScore": -12,
            "playerTotalScore": -19,
            "oppTotalScore": -141,
            "waitTime": 2763.7548231189658,
            "responseTime": 1678832048078,
            "catchQuestion": "How many <b class=\"r\">red<\/b> marbles did your opponent report drawing? ",
            "catchKey": -1,
            "catchResponse": -1,
            "catchTime": 1678832019004,
            "trialTime": 0
        },
        {
            "exptPart": "trial",
            "trialNumber": 22,
            "roleCurrent": "receiver",
            "marblesSampled": 100,
            "probRed": 0.5,
            "lambda": 5,
            "drawnRed": 64,
            "reportedRed": 56,
            "inferredRed": 77,
            "playerTrialScore": -13,
            "oppTrialScore": 0,
            "playerTotalScore": -32,
            "oppTotalScore": -141,
            "waitTime": 6842.054504932922,
            "responseTime": 1678832107742,
            "catchQuestion": "How many <b class=\"r\">red<\/b> marbles did your opponent report drawing? ",
            "catchKey": -1,
            "catchResponse": -1,
            "catchTime": 1678832019004,
            "trialTime": 0
        },
        {
            "exptPart": "trial",
            "trialNumber": 23,
            "roleCurrent": "sender",
            "marblesSampled": 100,
            "probRed": 0.5,
            "lambda": 5,
            "drawnRed": 65,
            "reportedRed": 68,
            "inferredRed": 72,
            "playerTrialScore": 0,
            "oppTrialScore": -7,
            "playerTotalScore": -32,
            "oppTotalScore": -148,
            "waitTime": 2168.7774682263107,
            "responseTime": 1678832122162,
            "catchQuestion": "How many <b class=\"r\">red<\/b> marbles did your opponent report drawing? ",
            "catchKey": -1,
            "catchResponse": -1,
            "catchTime": 1678832019004,
            "trialTime": 0
        },
        {
            "exptPart": "trial",
            "trialNumber": 24,
            "roleCurrent": "receiver",
            "marblesSampled": 100,
            "probRed": 0.5,
            "lambda": 5,
            "drawnRed": 67,
            "reportedRed": 61,
            "inferredRed": 60,
            "playerTrialScore": -7,
            "oppTrialScore": 7,
            "playerTotalScore": -39,
            "oppTotalScore": -141,
            "waitTime": 5760.44143765013,
            "responseTime": 1678832135750,
            "catchQuestion": "How many <b class=\"r\">red<\/b> marbles did your opponent report drawing? ",
            "catchKey": -1,
            "catchResponse": -1,
            "catchTime": 1678832019004,
            "trialTime": 0
        },
        {
            "exptPart": "trial",
            "trialNumber": 25,
            "roleCurrent": "sender",
            "marblesSampled": 100,
            "probRed": 0.5,
            "lambda": 5,
            "drawnRed": 48,
            "reportedRed": 48,
            "inferredRed": 53,
            "playerTrialScore": 0,
            "oppTrialScore": -5,
            "playerTotalScore": -39,
            "oppTotalScore": -146,
            "waitTime": 2394.323007550288,
            "responseTime": 1678832147135,
            "catchQuestion": "How many <b class=\"r\">red<\/b> marbles did your opponent report drawing? ",
            "catchKey": -1,
            "catchResponse": -1,
            "catchTime": 1678832147135,
            "trialTime": 0
        },
        {
            "exptPart": "trial",
            "trialNumber": 26,
            "roleCurrent": "receiver",
            "marblesSampled": 100,
            "probRed": 0.5,
            "lambda": 5,
            "drawnRed": 61,
            "reportedRed": 57,
            "inferredRed": 67,
            "playerTrialScore": -6,
            "oppTrialScore": 0,
            "playerTotalScore": -45,
            "oppTotalScore": -146,
            "waitTime": 5992.047280562466,
            "responseTime": 1678832165122,
            "catchQuestion": "How many <b class=\"r\">red<\/b> marbles did your opponent report drawing? ",
            "catchKey": -1,
            "catchResponse": -1,
            "catchTime": 1678832147135,
            "trialTime": 0
        },
        {
            "exptPart": "trial",
            "trialNumber": 27,
            "roleCurrent": "sender",
            "marblesSampled": 100,
            "probRed": 0.5,
            "lambda": 5,
            "drawnRed": 36,
            "reportedRed": 1,
            "inferredRed": 9,
            "playerTrialScore": 27,
            "oppTrialScore": -27,
            "playerTotalScore": -18,
            "oppTotalScore": -173,
            "waitTime": 3047.5653996496767,
            "responseTime": 1678832207333,
            "catchQuestion": "How many <b class=\"r\">red<\/b> marbles did your opponent report drawing? ",
            "catchKey": -1,
            "catchResponse": -1,
            "catchTime": 1678832147135,
            "trialTime": 0
        },
        {
            "exptPart": "trial",
            "trialNumber": 28,
            "roleCurrent": "receiver",
            "marblesSampled": 100,
            "probRed": 0.5,
            "lambda": 5,
            "drawnRed": 75,
            "reportedRed": 70,
            "inferredRed": 55,
            "playerTrialScore": -20,
            "oppTrialScore": 20,
            "playerTotalScore": -38,
            "oppTotalScore": -153,
            "waitTime": 5995.9027775083505,
            "responseTime": 1678832229771,
            "catchQuestion": "How many <b class=\"r\">red<\/b> marbles did your opponent report drawing? ",
            "catchKey": 70,
            "catchResponse": 70,
            "catchTime": 1678832229771,
            "trialTime": 0
        },
        {
            "exptPart": "trial",
            "trialNumber": 29,
            "roleCurrent": "sender",
            "marblesSampled": 100,
            "probRed": 0.5,
            "lambda": 5,
            "drawnRed": 67,
            "reportedRed": 99,
            "inferredRed": 100,
            "playerTrialScore": 0,
            "oppTrialScore": -33,
            "playerTotalScore": -38,
            "oppTotalScore": -186,
            "waitTime": 2122.2024804395064,
            "responseTime": 1678832270982,
            "catchQuestion": "How many <b class=\"r\">red<\/b> marbles did your opponent report drawing? ",
            "catchKey": -1,
            "catchResponse": -1,
            "catchTime": 1678832229771,
            "trialTime": 0
        },
        {
            "exptPart": "trial",
            "trialNumber": 30,
            "roleCurrent": "receiver",
            "marblesSampled": 100,
            "probRed": 0.5,
            "lambda": 5,
            "drawnRed": 58,
            "reportedRed": 52,
            "inferredRed": 50,
            "playerTrialScore": -8,
            "oppTrialScore": 8,
            "playerTotalScore": -46,
            "oppTotalScore": -178,
            "waitTime": 6017.609018902025,
            "responseTime": 1678832281767,
            "catchQuestion": "How many <b class=\"r\">red<\/b> marbles did your opponent report drawing? ",
            "catchKey": -1,
            "catchResponse": -1,
            "catchTime": 1678832281767,
            "trialTime": 0
        },
        {
            "exptPart": "trial",
            "trialNumber": 31,
            "roleCurrent": "sender",
            "marblesSampled": 100,
            "probRed": 0.5,
            "lambda": 5,
            "drawnRed": 44,
            "reportedRed": 43,
            "inferredRed": 51,
            "playerTrialScore": 0,
            "oppTrialScore": -7,
            "playerTotalScore": -46,
            "oppTotalScore": -185,
            "waitTime": 2112.88762516596,
            "responseTime": 1678832293321,
            "catchQuestion": "How many <b class=\"r\">red<\/b> marbles did your opponent report drawing? ",
            "catchKey": -1,
            "catchResponse": -1,
            "catchTime": 1678832281767,
            "trialTime": 0
        },
        {
            "exptPart": "trial",
            "trialNumber": 32,
            "roleCurrent": "receiver",
            "marblesSampled": 100,
            "probRed": 0.5,
            "lambda": 5,
            "drawnRed": 27,
            "reportedRed": 25,
            "inferredRed": 55,
            "playerTrialScore": -28,
            "oppTrialScore": 0,
            "playerTotalScore": -74,
            "oppTotalScore": -185,
            "waitTime": 5706.453081148595,
            "responseTime": 1678832311759,
            "catchQuestion": "How many <b class=\"r\">red<\/b> marbles did your opponent report drawing? ",
            "catchKey": -1,
            "catchResponse": -1,
            "catchTime": 1678832281767,
            "trialTime": 0
        },
        {
            "exptPart": "trial",
            "trialNumber": 33,
            "roleCurrent": "sender",
            "marblesSampled": 100,
            "probRed": 0.5,
            "lambda": 5,
            "drawnRed": 23,
            "reportedRed": 22,
            "inferredRed": 26,
            "playerTrialScore": 0,
            "oppTrialScore": -3,
            "playerTotalScore": -74,
            "oppTotalScore": -188,
            "waitTime": 2186.12708550158,
            "responseTime": 1678832332780,
            "catchQuestion": "How many <b class=\"r\">red<\/b> marbles did your opponent report drawing? ",
            "catchKey": -1,
            "catchResponse": -1,
            "catchTime": 1678832281767,
            "trialTime": 0
        },
        {
            "exptPart": "trial",
            "trialNumber": 34,
            "roleCurrent": "receiver",
            "marblesSampled": 100,
            "probRed": 0.5,
            "lambda": 5,
            "drawnRed": 32,
            "reportedRed": 28,
            "inferredRed": 50,
            "playerTrialScore": -18,
            "oppTrialScore": 0,
            "playerTotalScore": -92,
            "oppTotalScore": -188,
            "waitTime": 5782.476854853225,
            "responseTime": 1678832346384,
            "catchQuestion": "How many <b class=\"r\">red<\/b> marbles did your opponent report drawing? ",
            "catchKey": -1,
            "catchResponse": -1,
            "catchTime": 1678832281767,
            "trialTime": 0
        },
        {
            "exptPart": "trial",
            "trialNumber": 35,
            "roleCurrent": "sender",
            "marblesSampled": 100,
            "probRed": 0.5,
            "lambda": 5,
            "drawnRed": 50,
            "reportedRed": 50,
            "inferredRed": 50,
            "playerTrialScore": 0,
            "oppTrialScore": 0,
            "playerTotalScore": -92,
            "oppTotalScore": -188,
            "waitTime": 2383.2335171495197,
            "responseTime": 1678832357736,
            "catchQuestion": "How many <b class=\"r\">red<\/b> marbles did your opponent report drawing? ",
            "catchKey": -1,
            "catchResponse": -1,
            "catchTime": 1678832357736,
            "trialTime": 0
        },
        {
            "exptPart": "trial",
            "trialNumber": 36,
            "roleCurrent": "receiver",
            "marblesSampled": 100,
            "probRed": 0.5,
            "lambda": 5,
            "drawnRed": 21,
            "reportedRed": 13,
            "inferredRed": 57,
            "playerTrialScore": -36,
            "oppTrialScore": 0,
            "playerTotalScore": -128,
            "oppTotalScore": -188,
            "waitTime": 6142.549200166594,
            "responseTime": 1678832379958,
            "catchQuestion": "How many <b class=\"r\">red<\/b> marbles did your opponent report drawing? ",
            "catchKey": 13,
            "catchResponse": 13,
            "catchTime": 1678832379958,
            "trialTime": 0
        },
        {
            "exptPart": "trial",
            "trialNumber": 37,
            "roleCurrent": "sender",
            "marblesSampled": 100,
            "probRed": 0.5,
            "lambda": 5,
            "drawnRed": 61,
            "reportedRed": 60,
            "inferredRed": 66,
            "playerTrialScore": 0,
            "oppTrialScore": -5,
            "playerTotalScore": -128,
            "oppTotalScore": -193,
            "waitTime": 2892.576483486643,
            "responseTime": 1678832393428,
            "catchQuestion": "How many <b class=\"r\">red<\/b> marbles did your opponent report drawing? ",
            "catchKey": -1,
            "catchResponse": -1,
            "catchTime": 1678832379958,
            "trialTime": 0
        },
        {
            "exptPart": "trial",
            "trialNumber": 38,
            "roleCurrent": "receiver",
            "marblesSampled": 100,
            "probRed": 0.5,
            "lambda": 5,
            "drawnRed": 70,
            "reportedRed": 68,
            "inferredRed": 55,
            "playerTrialScore": -15,
            "oppTrialScore": 15,
            "playerTotalScore": -143,
            "oppTotalScore": -178,
            "waitTime": 5878.273184571243,
            "responseTime": 1678832402531,
            "catchQuestion": "How many <b class=\"r\">red<\/b> marbles did your opponent report drawing? ",
            "catchKey": -1,
            "catchResponse": -1,
            "catchTime": 1678832379958,
            "trialTime": 0
        },
        {
            "exptPart": "trial",
            "trialNumber": 39,
            "roleCurrent": "sender",
            "marblesSampled": 100,
            "probRed": 0.5,
            "lambda": 5,
            "drawnRed": 62,
            "reportedRed": 61,
            "inferredRed": 64,
            "playerTrialScore": 0,
            "oppTrialScore": -2,
            "playerTotalScore": -143,
            "oppTotalScore": -180,
            "waitTime": 2648.4179109019697,
            "responseTime": 1678832413933,
            "catchQuestion": "How many <b class=\"r\">red<\/b> marbles did you actually draw (before any changes)? ",
            "catchKey": 62,
            "catchResponse": 64,
            "catchTime": 1678832413933,
            "trialTime": 0
        },
        {
            "exptPart": "trial",
            "trialNumber": 40,
            "roleCurrent": "receiver",
            "marblesSampled": 100,
            "probRed": 0.5,
            "lambda": 5,
            "drawnRed": 44,
            "reportedRed": 35,
            "inferredRed": 55,
            "playerTrialScore": -11,
            "oppTrialScore": 0,
            "playerTotalScore": -154,
            "oppTotalScore": -180,
            "waitTime": 5450.143802836201,
            "responseTime": 1678832431238,
            "catchQuestion": "How many <b class=\"r\">red<\/b> marbles did you actually draw (before any changes)? ",
            "catchKey": -1,
            "catchResponse": -1,
            "catchTime": 1678832431238,
            "trialTime": 0
        },
        {
            "exptPart": "trial",
            "trialNumber": 41,
            "roleCurrent": "sender",
            "marblesSampled": 100,
            "probRed": 0.5,
            "lambda": 5,
            "drawnRed": 48,
            "reportedRed": 26,
            "inferredRed": 32,
            "playerTrialScore": 16,
            "oppTrialScore": -16,
            "playerTotalScore": -138,
            "oppTotalScore": -196,
            "waitTime": 2607.8726718560706,
            "responseTime": 1678832451610,
            "catchQuestion": "How many <b class=\"r\">red<\/b> marbles did you actually draw (before any changes)? ",
            "catchKey": -1,
            "catchResponse": -1,
            "catchTime": 1678832431238,
            "trialTime": 0
        },
        {
            "exptPart": "trial",
            "trialNumber": 42,
            "roleCurrent": "receiver",
            "marblesSampled": 100,
            "probRed": 0.5,
            "lambda": 5,
            "drawnRed": 41,
            "reportedRed": 37,
            "inferredRed": 57,
            "playerTrialScore": -16,
            "oppTrialScore": 0,
            "playerTotalScore": -154,
            "oppTotalScore": -196,
            "waitTime": 5884.379771909327,
            "responseTime": 1678832461062,
            "catchQuestion": "How many <b class=\"r\">red<\/b> marbles did you actually draw (before any changes)? ",
            "catchKey": -1,
            "catchResponse": -1,
            "catchTime": 1678832431238,
            "trialTime": 0
        },
        {
            "exptPart": "trial",
            "trialNumber": 43,
            "roleCurrent": "sender",
            "marblesSampled": 100,
            "probRed": 0.5,
            "lambda": 5,
            "drawnRed": 19,
            "reportedRed": 1,
            "inferredRed": 9,
            "playerTrialScore": 10,
            "oppTrialScore": -10,
            "playerTotalScore": -144,
            "oppTotalScore": -206,
            "waitTime": 2758.883751002816,
            "responseTime": 1678832489002,
            "catchQuestion": "How many <b class=\"r\">red<\/b> marbles did you actually draw (before any changes)? ",
            "catchKey": -1,
            "catchResponse": -1,
            "catchTime": 1678832431238,
            "trialTime": 0
        },
        {
            "exptPart": "trial",
            "trialNumber": 44,
            "roleCurrent": "receiver",
            "marblesSampled": 100,
            "probRed": 0.5,
            "lambda": 5,
            "drawnRed": 56,
            "reportedRed": 52,
            "inferredRed": 52,
            "playerTrialScore": -4,
            "oppTrialScore": 4,
            "playerTotalScore": -148,
            "oppTotalScore": -202,
            "waitTime": 6574.263221472305,
            "responseTime": 1678832502543,
            "catchQuestion": "How many <b class=\"r\">red<\/b> marbles did you actually draw (before any changes)? ",
            "catchKey": -1,
            "catchResponse": -1,
            "catchTime": 1678832431238,
            "trialTime": 0
        },
        {
            "exptPart": "trial",
            "trialNumber": 45,
            "roleCurrent": "sender",
            "marblesSampled": 100,
            "probRed": 0.5,
            "lambda": 5,
            "drawnRed": 65,
            "reportedRed": 65,
            "inferredRed": 70,
            "playerTrialScore": 0,
            "oppTrialScore": -5,
            "playerTotalScore": -148,
            "oppTotalScore": -207,
            "waitTime": 2943.4698813094437,
            "responseTime": 1678832514546,
            "catchQuestion": "How many <b class=\"r\">red<\/b> marbles did you actually draw (before any changes)? ",
            "catchKey": 65,
            "catchResponse": 65,
            "catchTime": 1678832514546,
            "trialTime": 0
        },
        {
            "exptPart": "trial",
            "trialNumber": 46,
            "roleCurrent": "receiver",
            "marblesSampled": 100,
            "probRed": 0.5,
            "lambda": 5,
            "drawnRed": 38,
            "reportedRed": 37,
            "inferredRed": 55,
            "playerTrialScore": -17,
            "oppTrialScore": 0,
            "playerTotalScore": -165,
            "oppTotalScore": -207,
            "waitTime": 5712.069037001891,
            "responseTime": 1678832530467,
            "catchQuestion": "How many <b class=\"r\">red<\/b> marbles did you actually draw (before any changes)? ",
            "catchKey": -1,
            "catchResponse": -1,
            "catchTime": 1678832514546,
            "trialTime": 0
        },
        {
            "exptPart": "trial",
            "trialNumber": 47,
            "roleCurrent": "sender",
            "marblesSampled": 100,
            "probRed": 0.5,
            "lambda": 5,
            "drawnRed": 42,
            "reportedRed": 40,
            "inferredRed": 49,
            "playerTrialScore": 0,
            "oppTrialScore": -7,
            "playerTotalScore": -165,
            "oppTotalScore": -214,
            "waitTime": 2125.271300472424,
            "responseTime": 1678832544237,
            "catchQuestion": "How many <b class=\"r\">red<\/b> marbles did you actually draw (before any changes)? ",
            "catchKey": -1,
            "catchResponse": -1,
            "catchTime": 1678832514546,
            "trialTime": 0
        },
        {
            "exptPart": "trial",
            "trialNumber": 48,
            "roleCurrent": "receiver",
            "marblesSampled": 100,
            "probRed": 0.5,
            "lambda": 5,
            "drawnRed": 36,
            "reportedRed": 34,
            "inferredRed": 50,
            "playerTrialScore": -14,
            "oppTrialScore": 0,
            "playerTotalScore": -179,
            "oppTotalScore": -214,
            "waitTime": 6900.461924543574,
            "responseTime": 1678832561458,
            "catchQuestion": "How many <b class=\"r\">red<\/b> marbles did you actually draw (before any changes)? ",
            "catchKey": -1,
            "catchResponse": -1,
            "catchTime": 1678832514546,
            "trialTime": 0
        },
        {
            "exptPart": "trial",
            "trialNumber": 49,
            "roleCurrent": "sender",
            "marblesSampled": 100,
            "probRed": 0.5,
            "lambda": 5,
            "drawnRed": 57,
            "reportedRed": 4,
            "inferredRed": 9,
            "playerTrialScore": 48,
            "oppTrialScore": -48,
            "playerTotalScore": -131,
            "oppTotalScore": -262,
            "waitTime": 2361.710157584564,
            "responseTime": 1678832604918,
            "catchQuestion": "How many <b class=\"r\">red<\/b> marbles did you actually draw (before any changes)? ",
            "catchKey": -1,
            "catchResponse": -1,
            "catchTime": 1678832514546,
            "trialTime": 0
        },
        {
            "exptPart": "trial",
            "trialNumber": 50,
            "roleCurrent": "receiver",
            "marblesSampled": 100,
            "probRed": 0.5,
            "lambda": 5,
            "drawnRed": 34,
            "reportedRed": 31,
            "inferredRed": 50,
            "playerTrialScore": -16,
            "oppTrialScore": 0,
            "playerTotalScore": -147,
            "oppTotalScore": -262,
            "waitTime": 6406.517845685035,
            "responseTime": 1678832618272,
            "catchQuestion": "How many <b class=\"r\">red<\/b> marbles did you actually draw (before any changes)? ",
            "catchKey": -1,
            "catchResponse": -1,
            "catchTime": 1678832618272,
            "trialTime": 0
        },
        {
            "exptPart": "trial",
            "trialNumber": 51,
            "roleCurrent": "sender",
            "marblesSampled": 100,
            "probRed": 0.5,
            "lambda": 5,
            "drawnRed": 58,
            "reportedRed": 58,
            "inferredRed": 61,
            "playerTrialScore": 0,
            "oppTrialScore": -3,
            "playerTotalScore": -147,
            "oppTotalScore": -265,
            "waitTime": 2503.276691469928,
            "responseTime": 1678832632442,
            "catchQuestion": "How many <b class=\"r\">red<\/b> marbles did you actually draw (before any changes)? ",
            "catchKey": -1,
            "catchResponse": -1,
            "catchTime": 1678832618272,
            "trialTime": 0
        },
        {
            "exptPart": "trial",
            "trialNumber": 52,
            "roleCurrent": "receiver",
            "marblesSampled": 100,
            "probRed": 0.5,
            "lambda": 5,
            "drawnRed": 31,
            "reportedRed": 26,
            "inferredRed": 50,
            "playerTrialScore": -19,
            "oppTrialScore": 0,
            "playerTotalScore": -166,
            "oppTotalScore": -265,
            "waitTime": 7395.149395936935,
            "responseTime": 1678832644745,
            "catchQuestion": "How many <b class=\"r\">red<\/b> marbles did you actually draw (before any changes)? ",
            "catchKey": -1,
            "catchResponse": -1,
            "catchTime": 1678832618272,
            "trialTime": 0
        },
        {
            "exptPart": "trial",
            "trialNumber": 53,
            "roleCurrent": "sender",
            "marblesSampled": 100,
            "probRed": 0.5,
            "lambda": 5,
            "drawnRed": 69,
            "reportedRed": 70,
            "inferredRed": 74,
            "playerTrialScore": 0,
            "oppTrialScore": -5,
            "playerTotalScore": -166,
            "oppTotalScore": -270,
            "waitTime": 2624.417383215118,
            "responseTime": 1678832654897,
            "catchQuestion": "How many <b class=\"r\">red<\/b> marbles did you actually draw (before any changes)? ",
            "catchKey": 69,
            "catchResponse": 69,
            "catchTime": 1678832654897,
            "trialTime": 0
        },
        {
            "exptPart": "trial",
            "trialNumber": 54,
            "roleCurrent": "receiver",
            "marblesSampled": 100,
            "probRed": 0.5,
            "lambda": 5,
            "drawnRed": 19,
            "reportedRed": 13,
            "inferredRed": 50,
            "playerTrialScore": -31,
            "oppTrialScore": 0,
            "playerTotalScore": -197,
            "oppTotalScore": -270,
            "waitTime": 6089.1307467624265,
            "responseTime": 1678832673552,
            "catchQuestion": "How many <b class=\"r\">red<\/b> marbles did you actually draw (before any changes)? ",
            "catchKey": -1,
            "catchResponse": -1,
            "catchTime": 1678832654897,
            "trialTime": 0
        },
        {
            "exptPart": "trial",
            "trialNumber": 55,
            "roleCurrent": "sender",
            "marblesSampled": 100,
            "probRed": 0.5,
            "lambda": 5,
            "drawnRed": 66,
            "reportedRed": 65,
            "inferredRed": 69,
            "playerTrialScore": 0,
            "oppTrialScore": -3,
            "playerTotalScore": -197,
            "oppTotalScore": -273,
            "waitTime": 2917.5851000093003,
            "responseTime": 1678832685005,
            "catchQuestion": "How many <b class=\"r\">red<\/b> marbles did you actually draw (before any changes)? ",
            "catchKey": -1,
            "catchResponse": -1,
            "catchTime": 1678832685005,
            "trialTime": 0
        },
        {
            "exptPart": "trial",
            "trialNumber": 56,
            "roleCurrent": "receiver",
            "marblesSampled": 100,
            "probRed": 0.5,
            "lambda": 5,
            "drawnRed": 20,
            "reportedRed": 15,
            "inferredRed": 50,
            "playerTrialScore": -30,
            "oppTrialScore": 0,
            "playerTotalScore": -227,
            "oppTotalScore": -273,
            "waitTime": 7258.52485538346,
            "responseTime": 1678832703709,
            "catchQuestion": "How many <b class=\"r\">red<\/b> marbles did you actually draw (before any changes)? ",
            "catchKey": -1,
            "catchResponse": -1,
            "catchTime": 1678832685005,
            "trialTime": 0
        },
        {
            "exptPart": "trial",
            "trialNumber": 57,
            "roleCurrent": "sender",
            "marblesSampled": 100,
            "probRed": 0.5,
            "lambda": 5,
            "drawnRed": 41,
            "reportedRed": 1,
            "inferredRed": 6,
            "playerTrialScore": 35,
            "oppTrialScore": -35,
            "playerTotalScore": -192,
            "oppTotalScore": -308,
            "waitTime": 2707.72728509643,
            "responseTime": 1678832743386,
            "catchQuestion": "How many <b class=\"r\">red<\/b> marbles did you actually draw (before any changes)? ",
            "catchKey": -1,
            "catchResponse": -1,
            "catchTime": 1678832685005,
            "trialTime": 0
        },
        {
            "exptPart": "trial",
            "trialNumber": 58,
            "roleCurrent": "receiver",
            "marblesSampled": 100,
            "probRed": 0.5,
            "lambda": 5,
            "drawnRed": 72,
            "reportedRed": 68,
            "inferredRed": 55,
            "playerTrialScore": -17,
            "oppTrialScore": 17,
            "playerTotalScore": -209,
            "oppTotalScore": -291,
            "waitTime": 7314.419962541132,
            "responseTime": 1678832755105,
            "catchQuestion": "How many <b class=\"r\">red<\/b> marbles did you actually draw (before any changes)? ",
            "catchKey": -1,
            "catchResponse": -1,
            "catchTime": 1678832685005,
            "trialTime": 0
        },
        {
            "exptPart": "trial",
            "trialNumber": 59,
            "roleCurrent": "sender",
            "marblesSampled": 100,
            "probRed": 0.5,
            "lambda": 5,
            "drawnRed": 35,
            "reportedRed": 34,
            "inferredRed": 43,
            "playerTrialScore": 0,
            "oppTrialScore": -8,
            "playerTotalScore": -209,
            "oppTotalScore": -299,
            "waitTime": 2394.602661045545,
            "responseTime": 1678832766042,
            "catchQuestion": "How many <b class=\"r\">red<\/b> marbles did you actually draw (before any changes)? ",
            "catchKey": -1,
            "catchResponse": -1,
            "catchTime": 1678832685005,
            "trialTime": 0
        },
        {
            "exptPart": "trial",
            "trialNumber": 60,
            "roleCurrent": "receiver",
            "marblesSampled": 100,
            "probRed": 0.5,
            "lambda": 5,
            "drawnRed": 33,
            "reportedRed": 29,
            "inferredRed": 50,
            "playerTrialScore": -17,
            "oppTrialScore": 0,
            "playerTotalScore": -226,
            "oppTotalScore": -299,
            "waitTime": 7138.307755459164,
            "responseTime": 1678832777745,
            "catchQuestion": "How many <b class=\"r\">red<\/b> marbles did you actually draw (before any changes)? ",
            "catchKey": -1,
            "catchResponse": -1,
            "catchTime": 1678832777745,
            "trialTime": 0
        },
        {
            "exptPart": "trial",
            "trialNumber": 61,
            "roleCurrent": "sender",
            "marblesSampled": 100,
            "probRed": 0.5,
            "lambda": 5,
            "drawnRed": 69,
            "reportedRed": 68,
            "inferredRed": 76,
            "playerTrialScore": 0,
            "oppTrialScore": -7,
            "playerTotalScore": -226,
            "oppTotalScore": -306,
            "waitTime": 2717.756803343852,
            "responseTime": 1678832799666,
            "catchQuestion": "How many <b class=\"r\">red<\/b> marbles did you actually draw (before any changes)? ",
            "catchKey": -1,
            "catchResponse": -1,
            "catchTime": 1678832777745,
            "trialTime": 0
        },
        {
            "exptPart": "trial",
            "trialNumber": 62,
            "roleCurrent": "receiver",
            "marblesSampled": 100,
            "probRed": 0.5,
            "lambda": 5,
            "drawnRed": 49,
            "reportedRed": 44,
            "inferredRed": 50,
            "playerTrialScore": -1,
            "oppTrialScore": 0,
            "playerTotalScore": -227,
            "oppTotalScore": -306,
            "waitTime": 7497.927861195043,
            "responseTime": 1678832812086,
            "catchQuestion": "How many <b class=\"r\">red<\/b> marbles did you actually draw (before any changes)? ",
            "catchKey": -1,
            "catchResponse": -1,
            "catchTime": 1678832777745,
            "trialTime": 0
        },
        {
            "exptPart": "trial",
            "trialNumber": 63,
            "roleCurrent": "sender",
            "marblesSampled": 100,
            "probRed": 0.5,
            "lambda": 5,
            "drawnRed": 34,
            "reportedRed": 3,
            "inferredRed": 4,
            "playerTrialScore": 30,
            "oppTrialScore": -30,
            "playerTotalScore": -197,
            "oppTotalScore": -336,
            "waitTime": 2141.5939936672467,
            "responseTime": 1678832843544,
            "catchQuestion": "How many <b class=\"r\">red<\/b> marbles did you actually draw (before any changes)? ",
            "catchKey": -1,
            "catchResponse": -1,
            "catchTime": 1678832777745,
            "trialTime": 0
        },
        {
            "exptPart": "trial",
            "trialNumber": 64,
            "roleCurrent": "receiver",
            "marblesSampled": 100,
            "probRed": 0.5,
            "lambda": 5,
            "drawnRed": 54,
            "reportedRed": 48,
            "inferredRed": 50,
            "playerTrialScore": -4,
            "oppTrialScore": 4,
            "playerTotalScore": -201,
            "oppTotalScore": -332,
            "waitTime": 7431.9718701275015,
            "responseTime": 1678832855497,
            "catchQuestion": "How many <b class=\"r\">red<\/b> marbles did you actually draw (before any changes)? ",
            "catchKey": -1,
            "catchResponse": -1,
            "catchTime": 1678832777745,
            "trialTime": 0
        },
        {
            "exptPart": "trial",
            "trialNumber": 65,
            "roleCurrent": "sender",
            "marblesSampled": 100,
            "probRed": 0.5,
            "lambda": 5,
            "drawnRed": 37,
            "reportedRed": 2,
            "inferredRed": 5,
            "playerTrialScore": 32,
            "oppTrialScore": -32,
            "playerTotalScore": -169,
            "oppTotalScore": -364,
            "waitTime": 2449.94444942792,
            "responseTime": 1678832884254,
            "catchQuestion": "How many <b class=\"r\">red<\/b> marbles did you actually draw (before any changes)? ",
            "catchKey": -1,
            "catchResponse": -1,
            "catchTime": 1678832884254,
            "trialTime": 0
        },
        {
            "exptPart": "trial",
            "trialNumber": 66,
            "roleCurrent": "receiver",
            "marblesSampled": 100,
            "probRed": 0.5,
            "lambda": 5,
            "drawnRed": 69,
            "reportedRed": 64,
            "inferredRed": 50,
            "playerTrialScore": -19,
            "oppTrialScore": 19,
            "playerTotalScore": -188,
            "oppTotalScore": -345,
            "waitTime": 6915.9729392539675,
            "responseTime": 1678832897407,
            "catchQuestion": "How many <b class=\"r\">red<\/b> marbles did you actually draw (before any changes)? ",
            "catchKey": -1,
            "catchResponse": -1,
            "catchTime": 1678832884254,
            "trialTime": 0
        },
        {
            "exptPart": "trial",
            "trialNumber": 67,
            "roleCurrent": "sender",
            "marblesSampled": 100,
            "probRed": 0.5,
            "lambda": 5,
            "drawnRed": 29,
            "reportedRed": 3,
            "inferredRed": 9,
            "playerTrialScore": 20,
            "oppTrialScore": -20,
            "playerTotalScore": -168,
            "oppTotalScore": -365,
            "waitTime": 2423.4821636816414,
            "responseTime": 1678832925097,
            "catchQuestion": "How many <b class=\"r\">red<\/b> marbles did you actually draw (before any changes)? ",
            "catchKey": -1,
            "catchResponse": -1,
            "catchTime": 1678832884254,
            "trialTime": 0
        },
        {
            "exptPart": "trial",
            "trialNumber": 68,
            "roleCurrent": "receiver",
            "marblesSampled": 100,
            "probRed": 0.5,
            "lambda": 5,
            "drawnRed": 39,
            "reportedRed": 31,
            "inferredRed": 50,
            "playerTrialScore": -11,
            "oppTrialScore": 0,
            "playerTotalScore": -179,
            "oppTotalScore": -365,
            "waitTime": 5808.190835426938,
            "responseTime": 1678832937650,
            "catchQuestion": "How many <b class=\"r\">red<\/b> marbles did you actually draw (before any changes)? ",
            "catchKey": -1,
            "catchResponse": -1,
            "catchTime": 1678832884254,
            "trialTime": 0
        },
        {
            "exptPart": "trial",
            "trialNumber": 69,
            "roleCurrent": "sender",
            "marblesSampled": 100,
            "probRed": 0.5,
            "lambda": 5,
            "drawnRed": 36,
            "reportedRed": 2,
            "inferredRed": 5,
            "playerTrialScore": 31,
            "oppTrialScore": -31,
            "playerTotalScore": -148,
            "oppTotalScore": -396,
            "waitTime": 2760.546814357023,
            "responseTime": 1678832965725,
            "catchQuestion": "How many <b class=\"r\">red<\/b> marbles did you actually draw (before any changes)? ",
            "catchKey": -1,
            "catchResponse": -1,
            "catchTime": 1678832884254,
            "trialTime": 0
        },
        {
            "exptPart": "trial",
            "trialNumber": 70,
            "roleCurrent": "receiver",
            "marblesSampled": 100,
            "probRed": 0.5,
            "lambda": 5,
            "drawnRed": 87,
            "reportedRed": 85,
            "inferredRed": 55,
            "playerTrialScore": -32,
            "oppTrialScore": 32,
            "playerTotalScore": -180,
            "oppTotalScore": -364,
            "waitTime": 6226.381274509487,
            "responseTime": 1678832982095,
            "catchQuestion": "How many <b class=\"r\">red<\/b> marbles did you actually draw (before any changes)? ",
            "catchKey": -1,
            "catchResponse": -1,
            "catchTime": 1678832982095,
            "trialTime": 0
        },
        {
            "exptPart": "trial",
            "trialNumber": 71,
            "roleCurrent": "sender",
            "marblesSampled": 100,
            "probRed": 0.5,
            "lambda": 5,
            "drawnRed": 53,
            "reportedRed": 1,
            "inferredRed": 4,
            "playerTrialScore": 49,
            "oppTrialScore": -49,
            "playerTotalScore": -131,
            "oppTotalScore": -413,
            "waitTime": 2494.734182555216,
            "responseTime": 1678833022655,
            "catchQuestion": "How many <b class=\"r\">red<\/b> marbles did you actually draw (before any changes)? ",
            "catchKey": -1,
            "catchResponse": -1,
            "catchTime": 1678832982095,
            "trialTime": 0
        },
        {
            "exptPart": "trial",
            "trialNumber": 72,
            "roleCurrent": "receiver",
            "marblesSampled": 100,
            "probRed": 0.5,
            "lambda": 5,
            "drawnRed": 56,
            "reportedRed": 49,
            "inferredRed": 50,
            "playerTrialScore": -6,
            "oppTrialScore": 6,
            "playerTotalScore": -137,
            "oppTotalScore": -407,
            "waitTime": 6213.945019317924,
            "responseTime": 1678833033441,
            "catchQuestion": "How many <b class=\"r\">red<\/b> marbles did you actually draw (before any changes)? ",
            "catchKey": -1,
            "catchResponse": -1,
            "catchTime": 1678832982095,
            "trialTime": 0
        },
        {
            "exptPart": "trial",
            "trialNumber": 73,
            "roleCurrent": "sender",
            "marblesSampled": 100,
            "probRed": 0.5,
            "lambda": 5,
            "drawnRed": 42,
            "reportedRed": 3,
            "inferredRed": 11,
            "playerTrialScore": 31,
            "oppTrialScore": -31,
            "playerTotalScore": -106,
            "oppTotalScore": -438,
            "waitTime": 2539.7167436402133,
            "responseTime": 1678833062098,
            "catchQuestion": "How many <b class=\"r\">red<\/b> marbles did you actually draw (before any changes)? ",
            "catchKey": -1,
            "catchResponse": -1,
            "catchTime": 1678832982095,
            "trialTime": 0
        },
        {
            "exptPart": "trial",
            "trialNumber": 74,
            "roleCurrent": "receiver",
            "marblesSampled": 100,
            "probRed": 0.5,
            "lambda": 5,
            "drawnRed": 54,
            "reportedRed": 48,
            "inferredRed": 50,
            "playerTrialScore": -4,
            "oppTrialScore": 4,
            "playerTotalScore": -110,
            "oppTotalScore": -434,
            "waitTime": 5577.696418144508,
            "responseTime": 1678833071984,
            "catchQuestion": "How many <b class=\"r\">red<\/b> marbles did you actually draw (before any changes)? ",
            "catchKey": -1,
            "catchResponse": -1,
            "catchTime": 1678832982095,
            "trialTime": 0
        },
        {
            "exptPart": "trial",
            "trialNumber": 75,
            "roleCurrent": "sender",
            "marblesSampled": 100,
            "probRed": 0.5,
            "lambda": 5,
            "drawnRed": 15,
            "reportedRed": 1,
            "inferredRed": 11,
            "playerTrialScore": 4,
            "oppTrialScore": -4,
            "playerTotalScore": -106,
            "oppTotalScore": -438,
            "waitTime": 2290.9798269805724,
            "responseTime": 1678833088705,
            "catchQuestion": "How many <b class=\"r\">red<\/b> marbles did you actually draw (before any changes)? ",
            "catchKey": -1,
            "catchResponse": -1,
            "catchTime": 1678833088705,
            "trialTime": 0
        },
        {
            "exptPart": "trial",
            "trialNumber": 76,
            "roleCurrent": "receiver",
            "marblesSampled": 100,
            "probRed": 0.5,
            "lambda": 5,
            "drawnRed": 70,
            "reportedRed": 65,
            "inferredRed": 55,
            "playerTrialScore": -15,
            "oppTrialScore": 15,
            "playerTotalScore": -121,
            "oppTotalScore": -423,
            "waitTime": 5657.709210327093,
            "responseTime": 1678833099557,
            "catchQuestion": "How many <b class=\"r\">red<\/b> marbles did you actually draw (before any changes)? ",
            "catchKey": -1,
            "catchResponse": -1,
            "catchTime": 1678833088705,
            "trialTime": 0
        },
        {
            "exptPart": "trial",
            "trialNumber": 77,
            "roleCurrent": "sender",
            "marblesSampled": 100,
            "probRed": 0.5,
            "lambda": 5,
            "drawnRed": 40,
            "reportedRed": 1,
            "inferredRed": 4,
            "playerTrialScore": 36,
            "oppTrialScore": -36,
            "playerTotalScore": -85,
            "oppTotalScore": -459,
            "waitTime": 2491.366004907843,
            "responseTime": 1678833126698,
            "catchQuestion": "How many <b class=\"r\">red<\/b> marbles did you actually draw (before any changes)? ",
            "catchKey": -1,
            "catchResponse": -1,
            "catchTime": 1678833088705,
            "trialTime": 0
        },
        {
            "exptPart": "trial",
            "trialNumber": 78,
            "roleCurrent": "receiver",
            "marblesSampled": 100,
            "probRed": 0.5,
            "lambda": 5,
            "drawnRed": 22,
            "reportedRed": 17,
            "inferredRed": 37,
            "playerTrialScore": -15,
            "oppTrialScore": 0,
            "playerTotalScore": -100,
            "oppTotalScore": -459,
            "waitTime": 5844.291116216239,
            "responseTime": 1678833138566,
            "catchQuestion": "How many <b class=\"r\">red<\/b> marbles did your opponent report drawing? ",
            "catchKey": 17,
            "catchResponse": 37,
            "catchTime": 1678833138566,
            "trialTime": 0
        },
        {
            "exptPart": "trial",
            "trialNumber": 79,
            "roleCurrent": "sender",
            "marblesSampled": 100,
            "probRed": 0.5,
            "lambda": 5,
            "drawnRed": 66,
            "reportedRed": 100,
            "inferredRed": 100,
            "playerTrialScore": 0,
            "oppTrialScore": -34,
            "playerTotalScore": -100,
            "oppTotalScore": -493,
            "waitTime": 2833.436144887722,
            "responseTime": 1678833176160,
            "catchQuestion": "How many <b class=\"r\">red<\/b> marbles did your opponent report drawing? ",
            "catchKey": -1,
            "catchResponse": -1,
            "catchTime": 1678833138566,
            "trialTime": 0
        },
        {
            "exptPart": "trial",
            "trialNumber": 80,
            "roleCurrent": "receiver",
            "marblesSampled": 100,
            "probRed": 0.5,
            "lambda": 5,
            "drawnRed": 32,
            "reportedRed": 25,
            "inferredRed": 50,
            "playerTrialScore": -18,
            "oppTrialScore": 0,
            "playerTotalScore": -118,
            "oppTotalScore": -493,
            "waitTime": 7021.863686969254,
            "responseTime": 1678833238558,
            "catchQuestion": "How many <b class=\"r\">red<\/b> marbles did your opponent report drawing? ",
            "catchKey": -1,
            "catchResponse": -1,
            "catchTime": 1678833238558,
            "trialTime": 0
        },
        {
            "exptPart": "trial",
            "trialNumber": 81,
            "roleCurrent": "sender",
            "marblesSampled": 100,
            "probRed": 0.5,
            "lambda": 5,
            "drawnRed": 29,
            "reportedRed": 1,
            "inferredRed": 10,
            "playerTrialScore": 19,
            "oppTrialScore": -19,
            "playerTotalScore": -99,
            "oppTotalScore": -512,
            "waitTime": 3088.9989292507485,
            "responseTime": 1678833269682,
            "catchQuestion": "How many <b class=\"r\">red<\/b> marbles did your opponent report drawing? ",
            "catchKey": -1,
            "catchResponse": -1,
            "catchTime": 1678833238558,
            "trialTime": 0
        },
        {
            "exptPart": "trial",
            "trialNumber": 82,
            "roleCurrent": "receiver",
            "marblesSampled": 100,
            "probRed": 0.5,
            "lambda": 5,
            "drawnRed": 46,
            "reportedRed": 40,
            "inferredRed": 40,
            "playerTrialScore": -6,
            "oppTrialScore": 6,
            "playerTotalScore": -105,
            "oppTotalScore": -506,
            "waitTime": 6498.7990609951175,
            "responseTime": 1678833281136,
            "catchQuestion": "How many <b class=\"r\">red<\/b> marbles did your opponent report drawing? ",
            "catchKey": -1,
            "catchResponse": -1,
            "catchTime": 1678833238558,
            "trialTime": 0
        },
        {
            "exptPart": "trial",
            "trialNumber": 83,
            "roleCurrent": "sender",
            "marblesSampled": 100,
            "probRed": 0.5,
            "lambda": 5,
            "drawnRed": 58,
            "reportedRed": 58,
            "inferredRed": 62,
            "playerTrialScore": 0,
            "oppTrialScore": -4,
            "playerTotalScore": -105,
            "oppTotalScore": -510,
            "waitTime": 2794.1490063103233,
            "responseTime": 1678833290154,
            "catchQuestion": "How many <b class=\"r\">red<\/b> marbles did your opponent report drawing? ",
            "catchKey": -1,
            "catchResponse": -1,
            "catchTime": 1678833238558,
            "trialTime": 0
        },
        {
            "exptPart": "trial",
            "trialNumber": 84,
            "roleCurrent": "receiver",
            "marblesSampled": 100,
            "probRed": 0.5,
            "lambda": 5,
            "drawnRed": 48,
            "reportedRed": 45,
            "inferredRed": 50,
            "playerTrialScore": -2,
            "oppTrialScore": 0,
            "playerTotalScore": -107,
            "oppTotalScore": -510,
            "waitTime": 5849.9247206502005,
            "responseTime": 1678833299090,
            "catchQuestion": "How many <b class=\"r\">red<\/b> marbles did your opponent report drawing? ",
            "catchKey": -1,
            "catchResponse": -1,
            "catchTime": 1678833238558,
            "trialTime": 0
        },
        {
            "exptPart": "trial",
            "trialNumber": 85,
            "roleCurrent": "sender",
            "marblesSampled": 100,
            "probRed": 0.5,
            "lambda": 5,
            "drawnRed": 81,
            "reportedRed": 100,
            "inferredRed": 100,
            "playerTrialScore": 0,
            "oppTrialScore": -19,
            "playerTotalScore": -107,
            "oppTotalScore": -529,
            "waitTime": 2472.5884771779,
            "responseTime": 1678833317961,
            "catchQuestion": "How many <b class=\"r\">red<\/b> marbles did your opponent report drawing? ",
            "catchKey": -1,
            "catchResponse": -1,
            "catchTime": 1678833317961,
            "trialTime": 0
        },
        {
            "exptPart": "trial",
            "trialNumber": 86,
            "roleCurrent": "receiver",
            "marblesSampled": 100,
            "probRed": 0.5,
            "lambda": 5,
            "drawnRed": 53,
            "reportedRed": 49,
            "inferredRed": 55,
            "playerTrialScore": -2,
            "oppTrialScore": 0,
            "playerTotalScore": -109,
            "oppTotalScore": -529,
            "waitTime": 5673.963741004096,
            "responseTime": 1678833328280,
            "catchQuestion": "How many <b class=\"r\">red<\/b> marbles did your opponent report drawing? ",
            "catchKey": -1,
            "catchResponse": -1,
            "catchTime": 1678833317961,
            "trialTime": 0
        },
        {
            "exptPart": "trial",
            "trialNumber": 87,
            "roleCurrent": "sender",
            "marblesSampled": 100,
            "probRed": 0.5,
            "lambda": 5,
            "drawnRed": 80,
            "reportedRed": 99,
            "inferredRed": 100,
            "playerTrialScore": 0,
            "oppTrialScore": -20,
            "playerTotalScore": -109,
            "oppTotalScore": -549,
            "waitTime": 3205.875769053339,
            "responseTime": 1678833351936,
            "catchQuestion": "How many <b class=\"r\">red<\/b> marbles did your opponent report drawing? ",
            "catchKey": -1,
            "catchResponse": -1,
            "catchTime": 1678833317961,
            "trialTime": 0
        },
        {
            "exptPart": "trial",
            "trialNumber": 88,
            "roleCurrent": "receiver",
            "marblesSampled": 100,
            "probRed": 0.5,
            "lambda": 5,
            "drawnRed": 54,
            "reportedRed": 50,
            "inferredRed": 55,
            "playerTrialScore": -1,
            "oppTrialScore": 0,
            "playerTotalScore": -110,
            "oppTotalScore": -549,
            "waitTime": 5546.108307291906,
            "responseTime": 1678833363256,
            "catchQuestion": "How many <b class=\"r\">red<\/b> marbles did your opponent report drawing? ",
            "catchKey": -1,
            "catchResponse": -1,
            "catchTime": 1678833317961,
            "trialTime": 0
        },
        {
            "exptPart": "trial",
            "trialNumber": 89,
            "roleCurrent": "sender",
            "marblesSampled": 100,
            "probRed": 0.5,
            "lambda": 5,
            "drawnRed": 51,
            "reportedRed": 0,
            "inferredRed": 11,
            "playerTrialScore": 40,
            "oppTrialScore": -40,
            "playerTotalScore": -70,
            "oppTotalScore": -589,
            "waitTime": 3132.94261727159,
            "responseTime": 1678833436407,
            "catchQuestion": "How many <b class=\"r\">red<\/b> marbles did your opponent report drawing? ",
            "catchKey": -1,
            "catchResponse": -1,
            "catchTime": 1678833317961,
            "trialTime": 0
        },
        {
            "exptPart": "trial",
            "trialNumber": 90,
            "roleCurrent": "receiver",
            "marblesSampled": 100,
            "probRed": 0.5,
            "lambda": 5,
            "drawnRed": 43,
            "reportedRed": 38,
            "inferredRed": 50,
            "playerTrialScore": -7,
            "oppTrialScore": 0,
            "playerTotalScore": -77,
            "oppTotalScore": -589,
            "waitTime": 6033.410552999352,
            "responseTime": 1678833450410,
            "catchQuestion": "How many <b class=\"r\">red<\/b> marbles did your opponent report drawing? ",
            "catchKey": -1,
            "catchResponse": -1,
            "catchTime": 1678833450410,
            "trialTime": 0
        },
        {
            "exptPart": "trial",
            "trialNumber": 91,
            "roleCurrent": "sender",
            "marblesSampled": 100,
            "probRed": 0.5,
            "lambda": 5,
            "drawnRed": 35,
            "reportedRed": 1,
            "inferredRed": 4,
            "playerTrialScore": 31,
            "oppTrialScore": -31,
            "playerTotalScore": -46,
            "oppTotalScore": -620,
            "waitTime": 2123.333204189075,
            "responseTime": 1678833475266,
            "catchQuestion": "How many <b class=\"r\">red<\/b> marbles did your opponent report drawing? ",
            "catchKey": -1,
            "catchResponse": -1,
            "catchTime": 1678833450410,
            "trialTime": 0
        },
        {
            "exptPart": "trial",
            "trialNumber": 92,
            "roleCurrent": "receiver",
            "marblesSampled": 100,
            "probRed": 0.5,
            "lambda": 5,
            "drawnRed": 43,
            "reportedRed": 37,
            "inferredRed": 50,
            "playerTrialScore": -7,
            "oppTrialScore": 0,
            "playerTotalScore": -53,
            "oppTotalScore": -620,
            "waitTime": 6491.66602150407,
            "responseTime": 1678833485419,
            "catchQuestion": "How many <b class=\"r\">red<\/b> marbles did your opponent report drawing? ",
            "catchKey": -1,
            "catchResponse": -1,
            "catchTime": 1678833450410,
            "trialTime": 0
        },
        {
            "exptPart": "trial",
            "trialNumber": 93,
            "roleCurrent": "sender",
            "marblesSampled": 100,
            "probRed": 0.5,
            "lambda": 5,
            "drawnRed": 45,
            "reportedRed": 1,
            "inferredRed": 7,
            "playerTrialScore": 38,
            "oppTrialScore": -38,
            "playerTotalScore": -15,
            "oppTotalScore": -658,
            "waitTime": 2851.453867742918,
            "responseTime": 1678833616452,
            "catchQuestion": "How many <b class=\"r\">red<\/b> marbles did you actually draw (before any changes)? ",
            "catchKey": 45,
            "catchResponse": 45,
            "catchTime": 1678833616452,
            "trialTime": 0
        },
        {
            "exptPart": "trial",
            "trialNumber": 94,
            "roleCurrent": "receiver",
            "marblesSampled": 100,
            "probRed": 0.5,
            "lambda": 5,
            "drawnRed": 18,
            "reportedRed": 14,
            "inferredRed": 35,
            "playerTrialScore": -17,
            "oppTrialScore": 0,
            "playerTotalScore": -32,
            "oppTotalScore": -658,
            "waitTime": 5631.304741527098,
            "responseTime": 1678833631672,
            "catchQuestion": "How many <b class=\"r\">red<\/b> marbles did you actually draw (before any changes)? ",
            "catchKey": -1,
            "catchResponse": -1,
            "catchTime": 1678833616452,
            "trialTime": 0
        },
        {
            "exptPart": "trial",
            "trialNumber": 95,
            "roleCurrent": "sender",
            "marblesSampled": 100,
            "probRed": 0.5,
            "lambda": 5,
            "drawnRed": 50,
            "reportedRed": 1,
            "inferredRed": 8,
            "playerTrialScore": 42,
            "oppTrialScore": -42,
            "playerTotalScore": 10,
            "oppTotalScore": -700,
            "waitTime": 2282.349481667979,
            "responseTime": 1678833732030,
            "catchQuestion": "How many <b class=\"r\">red<\/b> marbles did you actually draw (before any changes)? ",
            "catchKey": -1,
            "catchResponse": -1,
            "catchTime": 1678833732030,
            "trialTime": 0
        },
        {
            "exptPart": "trial",
            "trialNumber": 96,
            "roleCurrent": "receiver",
            "marblesSampled": 100,
            "probRed": 0.5,
            "lambda": 5,
            "drawnRed": 53,
            "reportedRed": 50,
            "inferredRed": 50,
            "playerTrialScore": -3,
            "oppTrialScore": 3,
            "playerTotalScore": 7,
            "oppTotalScore": -697,
            "waitTime": 7392.48448265313,
            "responseTime": 1678833835138,
            "catchQuestion": "How many <b class=\"r\">red<\/b> marbles did you actually draw (before any changes)? ",
            "catchKey": -1,
            "catchResponse": -1,
            "catchTime": 1678833732030,
            "trialTime": 0
        },
        {
            "exptPart": "trial",
            "trialNumber": 97,
            "roleCurrent": "sender",
            "marblesSampled": 100,
            "probRed": 0.5,
            "lambda": 5,
            "drawnRed": 59,
            "reportedRed": 2,
            "inferredRed": 6,
            "playerTrialScore": 53,
            "oppTrialScore": -53,
            "playerTotalScore": 60,
            "oppTotalScore": -750,
            "waitTime": 2541.3086544221296,
            "responseTime": 1678833890668,
            "catchQuestion": "How many <b class=\"r\">red<\/b> marbles did you actually draw (before any changes)? ",
            "catchKey": -1,
            "catchResponse": -1,
            "catchTime": 1678833732030,
            "trialTime": 0
        },
        {
            "exptPart": "trial",
            "trialNumber": 98,
            "roleCurrent": "receiver",
            "marblesSampled": 100,
            "probRed": 0.5,
            "lambda": 5,
            "drawnRed": 57,
            "reportedRed": 55,
            "inferredRed": 50,
            "playerTrialScore": -7,
            "oppTrialScore": 7,
            "playerTotalScore": 53,
            "oppTotalScore": -743,
            "waitTime": 6438.078225641169,
            "responseTime": 1678833903739,
            "catchQuestion": "How many <b class=\"r\">red<\/b> marbles did you actually draw (before any changes)? ",
            "catchKey": -1,
            "catchResponse": -1,
            "catchTime": 1678833732030,
            "trialTime": 0
        },
        {
            "exptPart": "trial",
            "trialNumber": 99,
            "roleCurrent": "sender",
            "marblesSampled": 100,
            "probRed": 0.5,
            "lambda": 5,
            "drawnRed": 54,
            "reportedRed": 1,
            "inferredRed": 5,
            "playerTrialScore": 49,
            "oppTrialScore": -49,
            "playerTotalScore": 102,
            "oppTotalScore": -792,
            "waitTime": 3021.7885046084525,
            "responseTime": 1678833944765,
            "catchQuestion": "How many <b class=\"r\">red<\/b> marbles did you actually draw (before any changes)? ",
            "catchKey": -1,
            "catchResponse": -1,
            "catchTime": 1678833732030,
            "trialTime": 0
        },
        {
            "exptPart": "trial",
            "trialNumber": 100,
            "roleCurrent": "receiver",
            "marblesSampled": 100,
            "probRed": 0.5,
            "lambda": 5,
            "drawnRed": 67,
            "reportedRed": 63,
            "inferredRed": 50,
            "playerTrialScore": -17,
            "oppTrialScore": 17,
            "playerTotalScore": 85,
            "oppTotalScore": -775,
            "waitTime": 6208.283351945476,
            "responseTime": 1678833959219,
            "catchQuestion": "How many <b class=\"r\">red<\/b> marbles did you actually draw (before any changes)? ",
            "catchKey": -1,
            "catchResponse": -1,
            "catchTime": 1678833959219,
            "trialTime": 0
        }
    ]
}