{
    "client": {
        "type": "sona",
        "experiment_id": 2228,
        "credit_token": "b315147ae43241ea9c65086cb510cfb7",
        "survey_code": "43004",
        "sid": "sona-43004",
        "window": {
            "width": 1470,
            "height": 840
        },
        "screen": {
            "width": 1470,
            "height": 956
        },
        "userAgent": "Mozilla\/5.0 (Macintosh; Intel Mac OS X 10_15_7) AppleWebKit\/605.1.15 (KHTML, like Gecko) Version\/16.3 Safari\/605.1.15",
        "score": 0,
        "bonus": 0
    },
    "expt": {
        "saveURL": "submit.simple.php",
        "trials": 100,
        "practiceTrials": 2,
        "marblesSampled": 100,
        "probRed": 0.5,
        "lambdaAI": 5,
        "roleFirst": "sender",
        "roles": [
            "sender",
            "receiver"
        ],
        "cost": "unif",
        "goal": "under",
        "goalInstructTxt": "above",
        "catchTrials": [
            78,
            12,
            29,
            22,
            19,
            89,
            83,
            2,
            50,
            23
        ],
        "scoreTotal": {
            "player": -303,
            "opp": -846
        },
        "sona": {
            "experiment_id": 2228,
            "credit_token": "b315147ae43241ea9c65086cb510cfb7"
        },
        "pilot": false,
        "debug": false
    },
    "trials": [
        {
            "exptPart": "practice",
            "trialNumber": 1,
            "roleCurrent": "sender",
            "marblesSampled": 100,
            "probRed": 0.5,
            "lambda": 5,
            "drawnRed": 51,
            "reportedRed": 56,
            "inferredRed": 60,
            "playerTrialScore": 0,
            "oppTrialScore": -9,
            "playerTotalScore": 0,
            "oppTotalScore": -9,
            "waitTime": 2104.203872569229,
            "responseTime": 1678843997313,
            "catchQuestion": "How many <b class=\"r\">red<\/b> marbles did you actually draw (before any changes)? ",
            "catchKey": 51,
            "catchResponse": 51,
            "catchTime": 1678843997313,
            "trialTime": 0
        },
        {
            "exptPart": "practice",
            "trialNumber": 2,
            "roleCurrent": "receiver",
            "marblesSampled": 100,
            "probRed": 0.5,
            "lambda": 5,
            "drawnRed": 13,
            "reportedRed": 9,
            "inferredRed": 17,
            "playerTrialScore": -4,
            "oppTrialScore": 0,
            "playerTotalScore": -4,
            "oppTotalScore": -9,
            "waitTime": 6616.400033413443,
            "responseTime": 1678844028791,
            "catchQuestion": "How many <b class=\"r\">red<\/b> marbles did your opponent report drawing? ",
            "catchKey": 9,
            "catchResponse": 9,
            "catchTime": 1678844028791,
            "trialTime": 0
        },
        {
            "exptPart": "trial",
            "trialNumber": 1,
            "roleCurrent": "sender",
            "marblesSampled": 100,
            "probRed": 0.5,
            "lambda": 5,
            "drawnRed": 69,
            "reportedRed": 70,
            "inferredRed": 74,
            "playerTrialScore": 0,
            "oppTrialScore": -5,
            "playerTotalScore": 0,
            "oppTotalScore": -5,
            "waitTime": 2575.0046880745476,
            "responseTime": 1678844063026,
            "catchQuestion": "How many <b class=\"r\">red<\/b> marbles did your opponent report drawing? ",
            "catchKey": -1,
            "catchResponse": -1,
            "catchTime": 1678844028791,
            "trialTime": 0
        },
        {
            "exptPart": "trial",
            "trialNumber": 2,
            "roleCurrent": "receiver",
            "marblesSampled": 100,
            "probRed": 0.5,
            "lambda": 5,
            "drawnRed": 63,
            "reportedRed": 60,
            "inferredRed": 54,
            "playerTrialScore": -9,
            "oppTrialScore": 9,
            "playerTotalScore": -9,
            "oppTotalScore": 4,
            "waitTime": 6942.6629845202315,
            "responseTime": 1678844079989,
            "catchQuestion": "How many <b class=\"r\">red<\/b> marbles did your opponent report drawing? ",
            "catchKey": -1,
            "catchResponse": -1,
            "catchTime": 1678844028791,
            "trialTime": 0
        },
        {
            "exptPart": "trial",
            "trialNumber": 3,
            "roleCurrent": "sender",
            "marblesSampled": 100,
            "probRed": 0.5,
            "lambda": 5,
            "drawnRed": 79,
            "reportedRed": 79,
            "inferredRed": 84,
            "playerTrialScore": 0,
            "oppTrialScore": -5,
            "playerTotalScore": -9,
            "oppTotalScore": -1,
            "waitTime": 2419.1912517348533,
            "responseTime": 1678844099094,
            "catchQuestion": "How many <b class=\"r\">red<\/b> marbles did you actually draw (before any changes)? ",
            "catchKey": 79,
            "catchResponse": 79,
            "catchTime": 1678844099094,
            "trialTime": 0
        },
        {
            "exptPart": "trial",
            "trialNumber": 4,
            "roleCurrent": "receiver",
            "marblesSampled": 100,
            "probRed": 0.5,
            "lambda": 5,
            "drawnRed": 68,
            "reportedRed": 64,
            "inferredRed": 68,
            "playerTrialScore": 0,
            "oppTrialScore": 0,
            "playerTotalScore": -9,
            "oppTotalScore": -1,
            "waitTime": 6241.407992701974,
            "responseTime": 1678844127158,
            "catchQuestion": "How many <b class=\"r\">red<\/b> marbles did you actually draw (before any changes)? ",
            "catchKey": -1,
            "catchResponse": -1,
            "catchTime": 1678844099094,
            "trialTime": 0
        },
        {
            "exptPart": "trial",
            "trialNumber": 5,
            "roleCurrent": "sender",
            "marblesSampled": 100,
            "probRed": 0.5,
            "lambda": 5,
            "drawnRed": 53,
            "reportedRed": 43,
            "inferredRed": 50,
            "playerTrialScore": 3,
            "oppTrialScore": -3,
            "playerTotalScore": -6,
            "oppTotalScore": -4,
            "waitTime": 2073.600935166277,
            "responseTime": 1678844166670,
            "catchQuestion": "How many <b class=\"r\">red<\/b> marbles did you actually draw (before any changes)? ",
            "catchKey": -1,
            "catchResponse": -1,
            "catchTime": 1678844166670,
            "trialTime": 0
        },
        {
            "exptPart": "trial",
            "trialNumber": 6,
            "roleCurrent": "receiver",
            "marblesSampled": 100,
            "probRed": 0.5,
            "lambda": 5,
            "drawnRed": 46,
            "reportedRed": 42,
            "inferredRed": 45,
            "playerTrialScore": -1,
            "oppTrialScore": 1,
            "playerTotalScore": -7,
            "oppTotalScore": -3,
            "waitTime": 5505.343324394178,
            "responseTime": 1678844192169,
            "catchQuestion": "How many <b class=\"r\">red<\/b> marbles did you actually draw (before any changes)? ",
            "catchKey": -1,
            "catchResponse": -1,
            "catchTime": 1678844166670,
            "trialTime": 0
        },
        {
            "exptPart": "trial",
            "trialNumber": 7,
            "roleCurrent": "sender",
            "marblesSampled": 100,
            "probRed": 0.5,
            "lambda": 5,
            "drawnRed": 55,
            "reportedRed": 52,
            "inferredRed": 60,
            "playerTrialScore": 0,
            "oppTrialScore": -5,
            "playerTotalScore": -7,
            "oppTotalScore": -8,
            "waitTime": 2587.7331584649546,
            "responseTime": 1678844243036,
            "catchQuestion": "How many <b class=\"r\">red<\/b> marbles did you actually draw (before any changes)? ",
            "catchKey": -1,
            "catchResponse": -1,
            "catchTime": 1678844166670,
            "trialTime": 0
        },
        {
            "exptPart": "trial",
            "trialNumber": 8,
            "roleCurrent": "receiver",
            "marblesSampled": 100,
            "probRed": 0.5,
            "lambda": 5,
            "drawnRed": 17,
            "reportedRed": 10,
            "inferredRed": 12,
            "playerTrialScore": -5,
            "oppTrialScore": 5,
            "playerTotalScore": -12,
            "oppTotalScore": -3,
            "waitTime": 6041.960546489022,
            "responseTime": 1678844257498,
            "catchQuestion": "How many <b class=\"r\">red<\/b> marbles did you actually draw (before any changes)? ",
            "catchKey": -1,
            "catchResponse": -1,
            "catchTime": 1678844166670,
            "trialTime": 0
        },
        {
            "exptPart": "trial",
            "trialNumber": 9,
            "roleCurrent": "sender",
            "marblesSampled": 100,
            "probRed": 0.5,
            "lambda": 5,
            "drawnRed": 82,
            "reportedRed": 69,
            "inferredRed": 73,
            "playerTrialScore": 9,
            "oppTrialScore": -9,
            "playerTotalScore": -3,
            "oppTotalScore": -12,
            "waitTime": 2189.366865125603,
            "responseTime": 1678844298504,
            "catchQuestion": "How many <b class=\"r\">red<\/b> marbles did you actually draw (before any changes)? ",
            "catchKey": -1,
            "catchResponse": -1,
            "catchTime": 1678844166670,
            "trialTime": 0
        },
        {
            "exptPart": "trial",
            "trialNumber": 10,
            "roleCurrent": "receiver",
            "marblesSampled": 100,
            "probRed": 0.5,
            "lambda": 5,
            "drawnRed": 16,
            "reportedRed": 12,
            "inferredRed": 23,
            "playerTrialScore": -7,
            "oppTrialScore": 0,
            "playerTotalScore": -10,
            "oppTotalScore": -12,
            "waitTime": 6574.245198224571,
            "responseTime": 1678844324084,
            "catchQuestion": "How many <b class=\"r\">red<\/b> marbles did you actually draw (before any changes)? ",
            "catchKey": -1,
            "catchResponse": -1,
            "catchTime": 1678844324084,
            "trialTime": 0
        },
        {
            "exptPart": "trial",
            "trialNumber": 11,
            "roleCurrent": "sender",
            "marblesSampled": 100,
            "probRed": 0.5,
            "lambda": 5,
            "drawnRed": 63,
            "reportedRed": 49,
            "inferredRed": 52,
            "playerTrialScore": 11,
            "oppTrialScore": -11,
            "playerTotalScore": 1,
            "oppTotalScore": -23,
            "waitTime": 3209.7550825084495,
            "responseTime": 1678844359061,
            "catchQuestion": "How many <b class=\"r\">red<\/b> marbles did you actually draw (before any changes)? ",
            "catchKey": -1,
            "catchResponse": -1,
            "catchTime": 1678844324084,
            "trialTime": 0
        },
        {
            "exptPart": "trial",
            "trialNumber": 12,
            "roleCurrent": "receiver",
            "marblesSampled": 100,
            "probRed": 0.5,
            "lambda": 5,
            "drawnRed": 33,
            "reportedRed": 26,
            "inferredRed": 34,
            "playerTrialScore": -1,
            "oppTrialScore": 0,
            "playerTotalScore": 0,
            "oppTotalScore": -23,
            "waitTime": 5779.270960506598,
            "responseTime": 1678844370983,
            "catchQuestion": "How many <b class=\"r\">red<\/b> marbles did you actually draw (before any changes)? ",
            "catchKey": -1,
            "catchResponse": -1,
            "catchTime": 1678844324084,
            "trialTime": 0
        },
        {
            "exptPart": "trial",
            "trialNumber": 13,
            "roleCurrent": "sender",
            "marblesSampled": 100,
            "probRed": 0.5,
            "lambda": 5,
            "drawnRed": 56,
            "reportedRed": 42,
            "inferredRed": 46,
            "playerTrialScore": 10,
            "oppTrialScore": -10,
            "playerTotalScore": 10,
            "oppTotalScore": -33,
            "waitTime": 2150.1916241718927,
            "responseTime": 1678844415934,
            "catchQuestion": "How many <b class=\"r\">red<\/b> marbles did you actually draw (before any changes)? ",
            "catchKey": 56,
            "catchResponse": 56,
            "catchTime": 1678844415934,
            "trialTime": 0
        },
        {
            "exptPart": "trial",
            "trialNumber": 14,
            "roleCurrent": "receiver",
            "marblesSampled": 100,
            "probRed": 0.5,
            "lambda": 5,
            "drawnRed": 63,
            "reportedRed": 60,
            "inferredRed": 67,
            "playerTrialScore": -4,
            "oppTrialScore": 0,
            "playerTotalScore": 6,
            "oppTotalScore": -33,
            "waitTime": 7120.727748887476,
            "responseTime": 1678844441152,
            "catchQuestion": "How many <b class=\"r\">red<\/b> marbles did you actually draw (before any changes)? ",
            "catchKey": -1,
            "catchResponse": -1,
            "catchTime": 1678844415934,
            "trialTime": 0
        },
        {
            "exptPart": "trial",
            "trialNumber": 15,
            "roleCurrent": "sender",
            "marblesSampled": 100,
            "probRed": 0.5,
            "lambda": 5,
            "drawnRed": 48,
            "reportedRed": 38,
            "inferredRed": 42,
            "playerTrialScore": 6,
            "oppTrialScore": -6,
            "playerTotalScore": 12,
            "oppTotalScore": -39,
            "waitTime": 2476.028027450963,
            "responseTime": 1678844467557,
            "catchQuestion": "How many <b class=\"r\">red<\/b> marbles did you actually draw (before any changes)? ",
            "catchKey": -1,
            "catchResponse": -1,
            "catchTime": 1678844467557,
            "trialTime": 0
        },
        {
            "exptPart": "trial",
            "trialNumber": 16,
            "roleCurrent": "receiver",
            "marblesSampled": 100,
            "probRed": 0.5,
            "lambda": 5,
            "drawnRed": 32,
            "reportedRed": 29,
            "inferredRed": 37,
            "playerTrialScore": -5,
            "oppTrialScore": 0,
            "playerTotalScore": 7,
            "oppTotalScore": -39,
            "waitTime": 6387.513157682166,
            "responseTime": 1678844486172,
            "catchQuestion": "How many <b class=\"r\">red<\/b> marbles did you actually draw (before any changes)? ",
            "catchKey": -1,
            "catchResponse": -1,
            "catchTime": 1678844467557,
            "trialTime": 0
        },
        {
            "exptPart": "trial",
            "trialNumber": 17,
            "roleCurrent": "sender",
            "marblesSampled": 100,
            "probRed": 0.5,
            "lambda": 5,
            "drawnRed": 82,
            "reportedRed": 62,
            "inferredRed": 64,
            "playerTrialScore": 18,
            "oppTrialScore": -18,
            "playerTotalScore": 25,
            "oppTotalScore": -57,
            "waitTime": 2969.1830932866033,
            "responseTime": 1678844515957,
            "catchQuestion": "How many <b class=\"r\">red<\/b> marbles did you actually draw (before any changes)? ",
            "catchKey": -1,
            "catchResponse": -1,
            "catchTime": 1678844467557,
            "trialTime": 0
        },
        {
            "exptPart": "trial",
            "trialNumber": 18,
            "roleCurrent": "receiver",
            "marblesSampled": 100,
            "probRed": 0.5,
            "lambda": 5,
            "drawnRed": 36,
            "reportedRed": 32,
            "inferredRed": 65,
            "playerTrialScore": -29,
            "oppTrialScore": 0,
            "playerTotalScore": -4,
            "oppTotalScore": -57,
            "waitTime": 6870.963159576099,
            "responseTime": 1678844530409,
            "catchQuestion": "How many <b class=\"r\">red<\/b> marbles did you actually draw (before any changes)? ",
            "catchKey": -1,
            "catchResponse": -1,
            "catchTime": 1678844467557,
            "trialTime": 0
        },
        {
            "exptPart": "trial",
            "trialNumber": 19,
            "roleCurrent": "sender",
            "marblesSampled": 100,
            "probRed": 0.5,
            "lambda": 5,
            "drawnRed": 43,
            "reportedRed": 26,
            "inferredRed": 28,
            "playerTrialScore": 15,
            "oppTrialScore": -15,
            "playerTotalScore": 11,
            "oppTotalScore": -72,
            "waitTime": 2430.5377136840543,
            "responseTime": 1678844561142,
            "catchQuestion": "How many <b class=\"r\">red<\/b> marbles did you actually draw (before any changes)? ",
            "catchKey": -1,
            "catchResponse": -1,
            "catchTime": 1678844467557,
            "trialTime": 0
        },
        {
            "exptPart": "trial",
            "trialNumber": 20,
            "roleCurrent": "receiver",
            "marblesSampled": 100,
            "probRed": 0.5,
            "lambda": 5,
            "drawnRed": 70,
            "reportedRed": 64,
            "inferredRed": 87,
            "playerTrialScore": -17,
            "oppTrialScore": 0,
            "playerTotalScore": -6,
            "oppTotalScore": -72,
            "waitTime": 6477.839513472398,
            "responseTime": 1678844573092,
            "catchQuestion": "How many <b class=\"r\">red<\/b> marbles did your opponent report drawing? ",
            "catchKey": 64,
            "catchResponse": 64,
            "catchTime": 1678844573092,
            "trialTime": 0
        },
        {
            "exptPart": "trial",
            "trialNumber": 21,
            "roleCurrent": "sender",
            "marblesSampled": 100,
            "probRed": 0.5,
            "lambda": 5,
            "drawnRed": 22,
            "reportedRed": 5,
            "inferredRed": 9,
            "playerTrialScore": 13,
            "oppTrialScore": -13,
            "playerTotalScore": 7,
            "oppTotalScore": -85,
            "waitTime": 2220.422066718846,
            "responseTime": 1678844631116,
            "catchQuestion": "How many <b class=\"r\">red<\/b> marbles did your opponent report drawing? ",
            "catchKey": -1,
            "catchResponse": -1,
            "catchTime": 1678844573092,
            "trialTime": 0
        },
        {
            "exptPart": "trial",
            "trialNumber": 22,
            "roleCurrent": "receiver",
            "marblesSampled": 100,
            "probRed": 0.5,
            "lambda": 5,
            "drawnRed": 34,
            "reportedRed": 24,
            "inferredRed": 48,
            "playerTrialScore": -14,
            "oppTrialScore": 0,
            "playerTotalScore": -7,
            "oppTotalScore": -85,
            "waitTime": 6164.013243958929,
            "responseTime": 1678844648217,
            "catchQuestion": "How many <b class=\"r\">red<\/b> marbles did your opponent report drawing? ",
            "catchKey": -1,
            "catchResponse": -1,
            "catchTime": 1678844573092,
            "trialTime": 0
        },
        {
            "exptPart": "trial",
            "trialNumber": 23,
            "roleCurrent": "sender",
            "marblesSampled": 100,
            "probRed": 0.5,
            "lambda": 5,
            "drawnRed": 16,
            "reportedRed": 2,
            "inferredRed": 4,
            "playerTrialScore": 12,
            "oppTrialScore": -12,
            "playerTotalScore": 5,
            "oppTotalScore": -97,
            "waitTime": 2065.2469441969733,
            "responseTime": 1678844691952,
            "catchQuestion": "How many <b class=\"r\">red<\/b> marbles did you actually draw (before any changes)? ",
            "catchKey": 16,
            "catchResponse": 16,
            "catchTime": 1678844691952,
            "trialTime": 0
        },
        {
            "exptPart": "trial",
            "trialNumber": 24,
            "roleCurrent": "receiver",
            "marblesSampled": 100,
            "probRed": 0.5,
            "lambda": 5,
            "drawnRed": 26,
            "reportedRed": 23,
            "inferredRed": 100,
            "playerTrialScore": -74,
            "oppTrialScore": 0,
            "playerTotalScore": -69,
            "oppTotalScore": -97,
            "waitTime": 5930.674748141368,
            "responseTime": 1678844737242,
            "catchQuestion": "How many <b class=\"r\">red<\/b> marbles did your opponent report drawing? ",
            "catchKey": 23,
            "catchResponse": 24,
            "catchTime": 1678844737242,
            "trialTime": 0
        },
        {
            "exptPart": "trial",
            "trialNumber": 25,
            "roleCurrent": "sender",
            "marblesSampled": 100,
            "probRed": 0.5,
            "lambda": 5,
            "drawnRed": 61,
            "reportedRed": 38,
            "inferredRed": 44,
            "playerTrialScore": 17,
            "oppTrialScore": -17,
            "playerTotalScore": -52,
            "oppTotalScore": -114,
            "waitTime": 2135.8904490181703,
            "responseTime": 1678844803724,
            "catchQuestion": "How many <b class=\"r\">red<\/b> marbles did your opponent report drawing? ",
            "catchKey": -1,
            "catchResponse": -1,
            "catchTime": 1678844803724,
            "trialTime": 0
        },
        {
            "exptPart": "trial",
            "trialNumber": 26,
            "roleCurrent": "receiver",
            "marblesSampled": 100,
            "probRed": 0.5,
            "lambda": 5,
            "drawnRed": 56,
            "reportedRed": 54,
            "inferredRed": 100,
            "playerTrialScore": -44,
            "oppTrialScore": 0,
            "playerTotalScore": -96,
            "oppTotalScore": -114,
            "waitTime": 6433.039989313815,
            "responseTime": 1678844853496,
            "catchQuestion": "How many <b class=\"r\">red<\/b> marbles did your opponent report drawing? ",
            "catchKey": -1,
            "catchResponse": -1,
            "catchTime": 1678844803724,
            "trialTime": 0
        },
        {
            "exptPart": "trial",
            "trialNumber": 27,
            "roleCurrent": "sender",
            "marblesSampled": 100,
            "probRed": 0.5,
            "lambda": 5,
            "drawnRed": 92,
            "reportedRed": 79,
            "inferredRed": 82,
            "playerTrialScore": 10,
            "oppTrialScore": -10,
            "playerTotalScore": -86,
            "oppTotalScore": -124,
            "waitTime": 2277.5059096008563,
            "responseTime": 1678844876162,
            "catchQuestion": "How many <b class=\"r\">red<\/b> marbles did your opponent report drawing? ",
            "catchKey": -1,
            "catchResponse": -1,
            "catchTime": 1678844803724,
            "trialTime": 0
        },
        {
            "exptPart": "trial",
            "trialNumber": 28,
            "roleCurrent": "receiver",
            "marblesSampled": 100,
            "probRed": 0.5,
            "lambda": 5,
            "drawnRed": 77,
            "reportedRed": 70,
            "inferredRed": 97,
            "playerTrialScore": -20,
            "oppTrialScore": 0,
            "playerTotalScore": -106,
            "oppTotalScore": -124,
            "waitTime": 5235.78873839544,
            "responseTime": 1678844911077,
            "catchQuestion": "How many <b class=\"r\">red<\/b> marbles did your opponent report drawing? ",
            "catchKey": -1,
            "catchResponse": -1,
            "catchTime": 1678844803724,
            "trialTime": 0
        },
        {
            "exptPart": "trial",
            "trialNumber": 29,
            "roleCurrent": "sender",
            "marblesSampled": 100,
            "probRed": 0.5,
            "lambda": 5,
            "drawnRed": 46,
            "reportedRed": 30,
            "inferredRed": 33,
            "playerTrialScore": 13,
            "oppTrialScore": -13,
            "playerTotalScore": -93,
            "oppTotalScore": -137,
            "waitTime": 2319.5954397156793,
            "responseTime": 1678844938865,
            "catchQuestion": "How many <b class=\"r\">red<\/b> marbles did your opponent report drawing? ",
            "catchKey": -1,
            "catchResponse": -1,
            "catchTime": 1678844803724,
            "trialTime": 0
        },
        {
            "exptPart": "trial",
            "trialNumber": 30,
            "roleCurrent": "receiver",
            "marblesSampled": 100,
            "probRed": 0.5,
            "lambda": 5,
            "drawnRed": 58,
            "reportedRed": 52,
            "inferredRed": 76,
            "playerTrialScore": -18,
            "oppTrialScore": 0,
            "playerTotalScore": -111,
            "oppTotalScore": -137,
            "waitTime": 6343.58797858603,
            "responseTime": 1678844949505,
            "catchQuestion": "How many <b class=\"r\">red<\/b> marbles did your opponent report drawing? ",
            "catchKey": 52,
            "catchResponse": 56,
            "catchTime": 1678844949505,
            "trialTime": 0
        },
        {
            "exptPart": "trial",
            "trialNumber": 31,
            "roleCurrent": "sender",
            "marblesSampled": 100,
            "probRed": 0.5,
            "lambda": 5,
            "drawnRed": 54,
            "reportedRed": 23,
            "inferredRed": 26,
            "playerTrialScore": 28,
            "oppTrialScore": -28,
            "playerTotalScore": -83,
            "oppTotalScore": -165,
            "waitTime": 2364.480155762877,
            "responseTime": 1678844998218,
            "catchQuestion": "How many <b class=\"r\">red<\/b> marbles did your opponent report drawing? ",
            "catchKey": -1,
            "catchResponse": -1,
            "catchTime": 1678844949505,
            "trialTime": 0
        },
        {
            "exptPart": "trial",
            "trialNumber": 32,
            "roleCurrent": "receiver",
            "marblesSampled": 100,
            "probRed": 0.5,
            "lambda": 5,
            "drawnRed": 41,
            "reportedRed": 32,
            "inferredRed": 66,
            "playerTrialScore": -25,
            "oppTrialScore": 0,
            "playerTotalScore": -108,
            "oppTotalScore": -165,
            "waitTime": 5151.252046735133,
            "responseTime": 1678845044161,
            "catchQuestion": "How many <b class=\"r\">red<\/b> marbles did your opponent report drawing? ",
            "catchKey": -1,
            "catchResponse": -1,
            "catchTime": 1678844949505,
            "trialTime": 0
        },
        {
            "exptPart": "trial",
            "trialNumber": 33,
            "roleCurrent": "sender",
            "marblesSampled": 100,
            "probRed": 0.5,
            "lambda": 5,
            "drawnRed": 67,
            "reportedRed": 37,
            "inferredRed": 44,
            "playerTrialScore": 23,
            "oppTrialScore": -23,
            "playerTotalScore": -85,
            "oppTotalScore": -188,
            "waitTime": 3180.7406310293195,
            "responseTime": 1678845095722,
            "catchQuestion": "How many <b class=\"r\">red<\/b> marbles did your opponent report drawing? ",
            "catchKey": -1,
            "catchResponse": -1,
            "catchTime": 1678844949505,
            "trialTime": 0
        },
        {
            "exptPart": "trial",
            "trialNumber": 34,
            "roleCurrent": "receiver",
            "marblesSampled": 100,
            "probRed": 0.5,
            "lambda": 5,
            "drawnRed": 54,
            "reportedRed": 48,
            "inferredRed": 78,
            "playerTrialScore": -24,
            "oppTrialScore": 0,
            "playerTotalScore": -109,
            "oppTotalScore": -188,
            "waitTime": 7248.564201221984,
            "responseTime": 1678845115765,
            "catchQuestion": "How many <b class=\"r\">red<\/b> marbles did your opponent report drawing? ",
            "catchKey": -1,
            "catchResponse": -1,
            "catchTime": 1678844949505,
            "trialTime": 0
        },
        {
            "exptPart": "trial",
            "trialNumber": 35,
            "roleCurrent": "sender",
            "marblesSampled": 100,
            "probRed": 0.5,
            "lambda": 5,
            "drawnRed": 48,
            "reportedRed": 27,
            "inferredRed": 28,
            "playerTrialScore": 20,
            "oppTrialScore": -20,
            "playerTotalScore": -89,
            "oppTotalScore": -208,
            "waitTime": 2234.5757280735234,
            "responseTime": 1678845142866,
            "catchQuestion": "How many <b class=\"r\">red<\/b> marbles did your opponent report drawing? ",
            "catchKey": -1,
            "catchResponse": -1,
            "catchTime": 1678845142867,
            "trialTime": 0
        },
        {
            "exptPart": "trial",
            "trialNumber": 36,
            "roleCurrent": "receiver",
            "marblesSampled": 100,
            "probRed": 0.5,
            "lambda": 5,
            "drawnRed": 35,
            "reportedRed": 31,
            "inferredRed": 71,
            "playerTrialScore": -36,
            "oppTrialScore": 0,
            "playerTotalScore": -125,
            "oppTotalScore": -208,
            "waitTime": 6780.084297022606,
            "responseTime": 1678845242834,
            "catchQuestion": "How many <b class=\"r\">red<\/b> marbles did your opponent report drawing? ",
            "catchKey": -1,
            "catchResponse": -1,
            "catchTime": 1678845142867,
            "trialTime": 0
        },
        {
            "exptPart": "trial",
            "trialNumber": 37,
            "roleCurrent": "sender",
            "marblesSampled": 100,
            "probRed": 0.5,
            "lambda": 5,
            "drawnRed": 60,
            "reportedRed": 36,
            "inferredRed": 40,
            "playerTrialScore": 20,
            "oppTrialScore": -20,
            "playerTotalScore": -105,
            "oppTotalScore": -228,
            "waitTime": 2801.013943328834,
            "responseTime": 1678845277797,
            "catchQuestion": "How many <b class=\"r\">red<\/b> marbles did your opponent report drawing? ",
            "catchKey": -1,
            "catchResponse": -1,
            "catchTime": 1678845142867,
            "trialTime": 0
        },
        {
            "exptPart": "trial",
            "trialNumber": 38,
            "roleCurrent": "receiver",
            "marblesSampled": 100,
            "probRed": 0.5,
            "lambda": 5,
            "drawnRed": 16,
            "reportedRed": 12,
            "inferredRed": 52,
            "playerTrialScore": -36,
            "oppTrialScore": 0,
            "playerTotalScore": -141,
            "oppTotalScore": -228,
            "waitTime": 7260.202450964317,
            "responseTime": 1678845290141,
            "catchQuestion": "How many <b class=\"r\">red<\/b> marbles did your opponent report drawing? ",
            "catchKey": -1,
            "catchResponse": -1,
            "catchTime": 1678845142867,
            "trialTime": 0
        },
        {
            "exptPart": "trial",
            "trialNumber": 39,
            "roleCurrent": "sender",
            "marblesSampled": 100,
            "probRed": 0.5,
            "lambda": 5,
            "drawnRed": 32,
            "reportedRed": 11,
            "inferredRed": 17,
            "playerTrialScore": 15,
            "oppTrialScore": -15,
            "playerTotalScore": -126,
            "oppTotalScore": -243,
            "waitTime": 3134.851112166119,
            "responseTime": 1678845320838,
            "catchQuestion": "How many <b class=\"r\">red<\/b> marbles did your opponent report drawing? ",
            "catchKey": -1,
            "catchResponse": -1,
            "catchTime": 1678845142867,
            "trialTime": 0
        },
        {
            "exptPart": "trial",
            "trialNumber": 40,
            "roleCurrent": "receiver",
            "marblesSampled": 100,
            "probRed": 0.5,
            "lambda": 5,
            "drawnRed": 42,
            "reportedRed": 36,
            "inferredRed": 100,
            "playerTrialScore": -58,
            "oppTrialScore": 0,
            "playerTotalScore": -184,
            "oppTotalScore": -243,
            "waitTime": 6000.889518449632,
            "responseTime": 1678845331524,
            "catchQuestion": "How many <b class=\"r\">red<\/b> marbles did your opponent report drawing? ",
            "catchKey": -1,
            "catchResponse": -1,
            "catchTime": 1678845331524,
            "trialTime": 0
        },
        {
            "exptPart": "trial",
            "trialNumber": 41,
            "roleCurrent": "sender",
            "marblesSampled": 100,
            "probRed": 0.5,
            "lambda": 5,
            "drawnRed": 68,
            "reportedRed": 40,
            "inferredRed": 49,
            "playerTrialScore": 19,
            "oppTrialScore": -19,
            "playerTotalScore": -165,
            "oppTotalScore": -262,
            "waitTime": 3048.496182768306,
            "responseTime": 1678845368165,
            "catchQuestion": "How many <b class=\"r\">red<\/b> marbles did your opponent report drawing? ",
            "catchKey": -1,
            "catchResponse": -1,
            "catchTime": 1678845331524,
            "trialTime": 0
        },
        {
            "exptPart": "trial",
            "trialNumber": 42,
            "roleCurrent": "receiver",
            "marblesSampled": 100,
            "probRed": 0.5,
            "lambda": 5,
            "drawnRed": 62,
            "reportedRed": 58,
            "inferredRed": 78,
            "playerTrialScore": -16,
            "oppTrialScore": 0,
            "playerTotalScore": -181,
            "oppTotalScore": -262,
            "waitTime": 6242.99276149994,
            "responseTime": 1678845380080,
            "catchQuestion": "How many <b class=\"r\">red<\/b> marbles did your opponent report drawing? ",
            "catchKey": -1,
            "catchResponse": -1,
            "catchTime": 1678845331524,
            "trialTime": 0
        },
        {
            "exptPart": "trial",
            "trialNumber": 43,
            "roleCurrent": "sender",
            "marblesSampled": 100,
            "probRed": 0.5,
            "lambda": 5,
            "drawnRed": 11,
            "reportedRed": 3,
            "inferredRed": 7,
            "playerTrialScore": 4,
            "oppTrialScore": -4,
            "playerTotalScore": -177,
            "oppTotalScore": -266,
            "waitTime": 2171.445742685123,
            "responseTime": 1678845404850,
            "catchQuestion": "How many <b class=\"r\">red<\/b> marbles did your opponent report drawing? ",
            "catchKey": -1,
            "catchResponse": -1,
            "catchTime": 1678845331524,
            "trialTime": 0
        },
        {
            "exptPart": "trial",
            "trialNumber": 44,
            "roleCurrent": "receiver",
            "marblesSampled": 100,
            "probRed": 0.5,
            "lambda": 5,
            "drawnRed": 41,
            "reportedRed": 35,
            "inferredRed": 65,
            "playerTrialScore": -24,
            "oppTrialScore": 0,
            "playerTotalScore": -201,
            "oppTotalScore": -266,
            "waitTime": 5538.092510866887,
            "responseTime": 1678845421838,
            "catchQuestion": "How many <b class=\"r\">red<\/b> marbles did your opponent report drawing? ",
            "catchKey": -1,
            "catchResponse": -1,
            "catchTime": 1678845331524,
            "trialTime": 0
        },
        {
            "exptPart": "trial",
            "trialNumber": 45,
            "roleCurrent": "sender",
            "marblesSampled": 100,
            "probRed": 0.5,
            "lambda": 5,
            "drawnRed": 24,
            "reportedRed": 14,
            "inferredRed": 21,
            "playerTrialScore": 3,
            "oppTrialScore": -3,
            "playerTotalScore": -198,
            "oppTotalScore": -269,
            "waitTime": 2939.717858272349,
            "responseTime": 1678845449906,
            "catchQuestion": "How many <b class=\"r\">red<\/b> marbles did your opponent report drawing? ",
            "catchKey": -1,
            "catchResponse": -1,
            "catchTime": 1678845449906,
            "trialTime": 0
        },
        {
            "exptPart": "trial",
            "trialNumber": 46,
            "roleCurrent": "receiver",
            "marblesSampled": 100,
            "probRed": 0.5,
            "lambda": 5,
            "drawnRed": 50,
            "reportedRed": 46,
            "inferredRed": 86,
            "playerTrialScore": -36,
            "oppTrialScore": 0,
            "playerTotalScore": -234,
            "oppTotalScore": -269,
            "waitTime": 7299.160570980608,
            "responseTime": 1678845528030,
            "catchQuestion": "How many <b class=\"r\">red<\/b> marbles did your opponent report drawing? ",
            "catchKey": -1,
            "catchResponse": -1,
            "catchTime": 1678845449906,
            "trialTime": 0
        },
        {
            "exptPart": "trial",
            "trialNumber": 47,
            "roleCurrent": "sender",
            "marblesSampled": 100,
            "probRed": 0.5,
            "lambda": 5,
            "drawnRed": 50,
            "reportedRed": 32,
            "inferredRed": 34,
            "playerTrialScore": 16,
            "oppTrialScore": -16,
            "playerTotalScore": -218,
            "oppTotalScore": -285,
            "waitTime": 2914.2832199802147,
            "responseTime": 1678845554923,
            "catchQuestion": "How many <b class=\"r\">red<\/b> marbles did your opponent report drawing? ",
            "catchKey": -1,
            "catchResponse": -1,
            "catchTime": 1678845449906,
            "trialTime": 0
        },
        {
            "exptPart": "trial",
            "trialNumber": 48,
            "roleCurrent": "receiver",
            "marblesSampled": 100,
            "probRed": 0.5,
            "lambda": 5,
            "drawnRed": 34,
            "reportedRed": 25,
            "inferredRed": 45,
            "playerTrialScore": -11,
            "oppTrialScore": 0,
            "playerTotalScore": -229,
            "oppTotalScore": -285,
            "waitTime": 5338.739039600473,
            "responseTime": 1678845581788,
            "catchQuestion": "How many <b class=\"r\">red<\/b> marbles did your opponent report drawing? ",
            "catchKey": -1,
            "catchResponse": -1,
            "catchTime": 1678845449906,
            "trialTime": 0
        },
        {
            "exptPart": "trial",
            "trialNumber": 49,
            "roleCurrent": "sender",
            "marblesSampled": 100,
            "probRed": 0.5,
            "lambda": 5,
            "drawnRed": 81,
            "reportedRed": 35,
            "inferredRed": 39,
            "playerTrialScore": 42,
            "oppTrialScore": -42,
            "playerTotalScore": -187,
            "oppTotalScore": -327,
            "waitTime": 2488.172019292929,
            "responseTime": 1678845691935,
            "catchQuestion": "How many <b class=\"r\">red<\/b> marbles did your opponent report drawing? ",
            "catchKey": -1,
            "catchResponse": -1,
            "catchTime": 1678845449906,
            "trialTime": 0
        },
        {
            "exptPart": "trial",
            "trialNumber": 50,
            "roleCurrent": "receiver",
            "marblesSampled": 100,
            "probRed": 0.5,
            "lambda": 5,
            "drawnRed": 58,
            "reportedRed": 55,
            "inferredRed": 58,
            "playerTrialScore": 0,
            "oppTrialScore": 0,
            "playerTotalScore": -187,
            "oppTotalScore": -327,
            "waitTime": 7442.956530755795,
            "responseTime": 1678845709587,
            "catchQuestion": "How many <b class=\"r\">red<\/b> marbles did your opponent report drawing? ",
            "catchKey": -1,
            "catchResponse": -1,
            "catchTime": 1678845709588,
            "trialTime": 0
        },
        {
            "exptPart": "trial",
            "trialNumber": 51,
            "roleCurrent": "sender",
            "marblesSampled": 100,
            "probRed": 0.5,
            "lambda": 5,
            "drawnRed": 50,
            "reportedRed": 35,
            "inferredRed": 42,
            "playerTrialScore": 8,
            "oppTrialScore": -8,
            "playerTotalScore": -179,
            "oppTotalScore": -335,
            "waitTime": 2151.679297122866,
            "responseTime": 1678845733517,
            "catchQuestion": "How many <b class=\"r\">red<\/b> marbles did you actually draw (before any changes)? ",
            "catchKey": 50,
            "catchResponse": 50,
            "catchTime": 1678845733517,
            "trialTime": 0
        },
        {
            "exptPart": "trial",
            "trialNumber": 52,
            "roleCurrent": "receiver",
            "marblesSampled": 100,
            "probRed": 0.5,
            "lambda": 5,
            "drawnRed": 65,
            "reportedRed": 61,
            "inferredRed": 67,
            "playerTrialScore": -2,
            "oppTrialScore": 0,
            "playerTotalScore": -181,
            "oppTotalScore": -335,
            "waitTime": 5311.24684718703,
            "responseTime": 1678845751663,
            "catchQuestion": "How many <b class=\"r\">red<\/b> marbles did you actually draw (before any changes)? ",
            "catchKey": -1,
            "catchResponse": -1,
            "catchTime": 1678845733517,
            "trialTime": 0
        },
        {
            "exptPart": "trial",
            "trialNumber": 53,
            "roleCurrent": "sender",
            "marblesSampled": 100,
            "probRed": 0.5,
            "lambda": 5,
            "drawnRed": 57,
            "reportedRed": 49,
            "inferredRed": 56,
            "playerTrialScore": 1,
            "oppTrialScore": -1,
            "playerTotalScore": -180,
            "oppTotalScore": -336,
            "waitTime": 2811.4513763185514,
            "responseTime": 1678845767960,
            "catchQuestion": "How many <b class=\"r\">red<\/b> marbles did you actually draw (before any changes)? ",
            "catchKey": -1,
            "catchResponse": -1,
            "catchTime": 1678845733517,
            "trialTime": 0
        },
        {
            "exptPart": "trial",
            "trialNumber": 54,
            "roleCurrent": "receiver",
            "marblesSampled": 100,
            "probRed": 0.5,
            "lambda": 5,
            "drawnRed": 74,
            "reportedRed": 69,
            "inferredRed": 76,
            "playerTrialScore": -2,
            "oppTrialScore": 0,
            "playerTotalScore": -182,
            "oppTotalScore": -336,
            "waitTime": 6344.948821186565,
            "responseTime": 1678845777979,
            "catchQuestion": "How many <b class=\"r\">red<\/b> marbles did you actually draw (before any changes)? ",
            "catchKey": -1,
            "catchResponse": -1,
            "catchTime": 1678845733517,
            "trialTime": 0
        },
        {
            "exptPart": "trial",
            "trialNumber": 55,
            "roleCurrent": "sender",
            "marblesSampled": 100,
            "probRed": 0.5,
            "lambda": 5,
            "drawnRed": 55,
            "reportedRed": 44,
            "inferredRed": 50,
            "playerTrialScore": 5,
            "oppTrialScore": -5,
            "playerTotalScore": -177,
            "oppTotalScore": -341,
            "waitTime": 3044.1899783405324,
            "responseTime": 1678845797993,
            "catchQuestion": "How many <b class=\"r\">red<\/b> marbles did you actually draw (before any changes)? ",
            "catchKey": -1,
            "catchResponse": -1,
            "catchTime": 1678845797993,
            "trialTime": 0
        },
        {
            "exptPart": "trial",
            "trialNumber": 56,
            "roleCurrent": "receiver",
            "marblesSampled": 100,
            "probRed": 0.5,
            "lambda": 5,
            "drawnRed": 75,
            "reportedRed": 71,
            "inferredRed": 78,
            "playerTrialScore": -3,
            "oppTrialScore": 0,
            "playerTotalScore": -180,
            "oppTotalScore": -341,
            "waitTime": 6621.931512732968,
            "responseTime": 1678845811937,
            "catchQuestion": "How many <b class=\"r\">red<\/b> marbles did you actually draw (before any changes)? ",
            "catchKey": -1,
            "catchResponse": -1,
            "catchTime": 1678845797993,
            "trialTime": 0
        },
        {
            "exptPart": "trial",
            "trialNumber": 57,
            "roleCurrent": "sender",
            "marblesSampled": 100,
            "probRed": 0.5,
            "lambda": 5,
            "drawnRed": 41,
            "reportedRed": 32,
            "inferredRed": 41,
            "playerTrialScore": 0,
            "oppTrialScore": 0,
            "playerTotalScore": -180,
            "oppTotalScore": -341,
            "waitTime": 2119.50569473809,
            "responseTime": 1678845829535,
            "catchQuestion": "How many <b class=\"r\">red<\/b> marbles did you actually draw (before any changes)? ",
            "catchKey": -1,
            "catchResponse": -1,
            "catchTime": 1678845797993,
            "trialTime": 0
        },
        {
            "exptPart": "trial",
            "trialNumber": 58,
            "roleCurrent": "receiver",
            "marblesSampled": 100,
            "probRed": 0.5,
            "lambda": 5,
            "drawnRed": 34,
            "reportedRed": 28,
            "inferredRed": 37,
            "playerTrialScore": -3,
            "oppTrialScore": 0,
            "playerTotalScore": -183,
            "oppTotalScore": -341,
            "waitTime": 5771.702273887598,
            "responseTime": 1678845853770,
            "catchQuestion": "How many <b class=\"r\">red<\/b> marbles did you actually draw (before any changes)? ",
            "catchKey": -1,
            "catchResponse": -1,
            "catchTime": 1678845797993,
            "trialTime": 0
        },
        {
            "exptPart": "trial",
            "trialNumber": 59,
            "roleCurrent": "sender",
            "marblesSampled": 100,
            "probRed": 0.5,
            "lambda": 5,
            "drawnRed": 57,
            "reportedRed": 41,
            "inferredRed": 42,
            "playerTrialScore": 15,
            "oppTrialScore": -15,
            "playerTotalScore": -168,
            "oppTotalScore": -356,
            "waitTime": 3116.965170993984,
            "responseTime": 1678845878887,
            "catchQuestion": "How many <b class=\"r\">red<\/b> marbles did you actually draw (before any changes)? ",
            "catchKey": -1,
            "catchResponse": -1,
            "catchTime": 1678845797993,
            "trialTime": 0
        },
        {
            "exptPart": "trial",
            "trialNumber": 60,
            "roleCurrent": "receiver",
            "marblesSampled": 100,
            "probRed": 0.5,
            "lambda": 5,
            "drawnRed": 82,
            "reportedRed": 75,
            "inferredRed": 82,
            "playerTrialScore": 0,
            "oppTrialScore": 0,
            "playerTotalScore": -168,
            "oppTotalScore": -356,
            "waitTime": 6941.387029886368,
            "responseTime": 1678845892289,
            "catchQuestion": "How many <b class=\"r\">red<\/b> marbles did you actually draw (before any changes)? ",
            "catchKey": -1,
            "catchResponse": -1,
            "catchTime": 1678845892290,
            "trialTime": 0
        },
        {
            "exptPart": "trial",
            "trialNumber": 61,
            "roleCurrent": "sender",
            "marblesSampled": 100,
            "probRed": 0.5,
            "lambda": 5,
            "drawnRed": 45,
            "reportedRed": 27,
            "inferredRed": 33,
            "playerTrialScore": 12,
            "oppTrialScore": -12,
            "playerTotalScore": -156,
            "oppTotalScore": -368,
            "waitTime": 2500.716070674892,
            "responseTime": 1678845923330,
            "catchQuestion": "How many <b class=\"r\">red<\/b> marbles did you actually draw (before any changes)? ",
            "catchKey": -1,
            "catchResponse": -1,
            "catchTime": 1678845892290,
            "trialTime": 0
        },
        {
            "exptPart": "trial",
            "trialNumber": 62,
            "roleCurrent": "receiver",
            "marblesSampled": 100,
            "probRed": 0.5,
            "lambda": 5,
            "drawnRed": 70,
            "reportedRed": 67,
            "inferredRed": 78,
            "playerTrialScore": -8,
            "oppTrialScore": 0,
            "playerTotalScore": -164,
            "oppTotalScore": -368,
            "waitTime": 6594.521407550179,
            "responseTime": 1678845934837,
            "catchQuestion": "How many <b class=\"r\">red<\/b> marbles did you actually draw (before any changes)? ",
            "catchKey": -1,
            "catchResponse": -1,
            "catchTime": 1678845892290,
            "trialTime": 0
        },
        {
            "exptPart": "trial",
            "trialNumber": 63,
            "roleCurrent": "sender",
            "marblesSampled": 100,
            "probRed": 0.5,
            "lambda": 5,
            "drawnRed": 72,
            "reportedRed": 51,
            "inferredRed": 57,
            "playerTrialScore": 15,
            "oppTrialScore": -15,
            "playerTotalScore": -149,
            "oppTotalScore": -383,
            "waitTime": 3078.642806790228,
            "responseTime": 1678845962862,
            "catchQuestion": "How many <b class=\"r\">red<\/b> marbles did you actually draw (before any changes)? ",
            "catchKey": -1,
            "catchResponse": -1,
            "catchTime": 1678845892290,
            "trialTime": 0
        },
        {
            "exptPart": "trial",
            "trialNumber": 64,
            "roleCurrent": "receiver",
            "marblesSampled": 100,
            "probRed": 0.5,
            "lambda": 5,
            "drawnRed": 70,
            "reportedRed": 69,
            "inferredRed": 81,
            "playerTrialScore": -11,
            "oppTrialScore": 0,
            "playerTotalScore": -160,
            "oppTotalScore": -383,
            "waitTime": 7362.147066275943,
            "responseTime": 1678845974357,
            "catchQuestion": "How many <b class=\"r\">red<\/b> marbles did you actually draw (before any changes)? ",
            "catchKey": -1,
            "catchResponse": -1,
            "catchTime": 1678845892290,
            "trialTime": 0
        },
        {
            "exptPart": "trial",
            "trialNumber": 65,
            "roleCurrent": "sender",
            "marblesSampled": 100,
            "probRed": 0.5,
            "lambda": 5,
            "drawnRed": 30,
            "reportedRed": 18,
            "inferredRed": 21,
            "playerTrialScore": 9,
            "oppTrialScore": -9,
            "playerTotalScore": -151,
            "oppTotalScore": -392,
            "waitTime": 3026.7942847271497,
            "responseTime": 1678845994992,
            "catchQuestion": "How many <b class=\"r\">red<\/b> marbles did you actually draw (before any changes)? ",
            "catchKey": -1,
            "catchResponse": -1,
            "catchTime": 1678845994992,
            "trialTime": 0
        },
        {
            "exptPart": "trial",
            "trialNumber": 66,
            "roleCurrent": "receiver",
            "marblesSampled": 100,
            "probRed": 0.5,
            "lambda": 5,
            "drawnRed": 86,
            "reportedRed": 80,
            "inferredRed": 93,
            "playerTrialScore": -7,
            "oppTrialScore": 0,
            "playerTotalScore": -158,
            "oppTotalScore": -392,
            "waitTime": 5289.793216373046,
            "responseTime": 1678846019346,
            "catchQuestion": "How many <b class=\"r\">red<\/b> marbles did you actually draw (before any changes)? ",
            "catchKey": -1,
            "catchResponse": -1,
            "catchTime": 1678845994992,
            "trialTime": 0
        },
        {
            "exptPart": "trial",
            "trialNumber": 67,
            "roleCurrent": "sender",
            "marblesSampled": 100,
            "probRed": 0.5,
            "lambda": 5,
            "drawnRed": 41,
            "reportedRed": 25,
            "inferredRed": 32,
            "playerTrialScore": 9,
            "oppTrialScore": -9,
            "playerTotalScore": -149,
            "oppTotalScore": -401,
            "waitTime": 2718.398964170853,
            "responseTime": 1678846042244,
            "catchQuestion": "How many <b class=\"r\">red<\/b> marbles did you actually draw (before any changes)? ",
            "catchKey": -1,
            "catchResponse": -1,
            "catchTime": 1678845994992,
            "trialTime": 0
        },
        {
            "exptPart": "trial",
            "trialNumber": 68,
            "roleCurrent": "receiver",
            "marblesSampled": 100,
            "probRed": 0.5,
            "lambda": 5,
            "drawnRed": 82,
            "reportedRed": 77,
            "inferredRed": 86,
            "playerTrialScore": -4,
            "oppTrialScore": 0,
            "playerTotalScore": -153,
            "oppTotalScore": -401,
            "waitTime": 5648.994503020506,
            "responseTime": 1678846052300,
            "catchQuestion": "How many <b class=\"r\">red<\/b> marbles did you actually draw (before any changes)? ",
            "catchKey": -1,
            "catchResponse": -1,
            "catchTime": 1678845994992,
            "trialTime": 0
        },
        {
            "exptPart": "trial",
            "trialNumber": 69,
            "roleCurrent": "sender",
            "marblesSampled": 100,
            "probRed": 0.5,
            "lambda": 5,
            "drawnRed": 41,
            "reportedRed": 26,
            "inferredRed": 31,
            "playerTrialScore": 10,
            "oppTrialScore": -10,
            "playerTotalScore": -143,
            "oppTotalScore": -411,
            "waitTime": 2350.3677671355163,
            "responseTime": 1678846081412,
            "catchQuestion": "How many <b class=\"r\">red<\/b> marbles did you actually draw (before any changes)? ",
            "catchKey": -1,
            "catchResponse": -1,
            "catchTime": 1678845994992,
            "trialTime": 0
        },
        {
            "exptPart": "trial",
            "trialNumber": 70,
            "roleCurrent": "receiver",
            "marblesSampled": 100,
            "probRed": 0.5,
            "lambda": 5,
            "drawnRed": 51,
            "reportedRed": 50,
            "inferredRed": 64,
            "playerTrialScore": -13,
            "oppTrialScore": 0,
            "playerTotalScore": -156,
            "oppTotalScore": -411,
            "waitTime": 7238.073815213171,
            "responseTime": 1678846095661,
            "catchQuestion": "How many <b class=\"r\">red<\/b> marbles did you actually draw (before any changes)? ",
            "catchKey": -1,
            "catchResponse": -1,
            "catchTime": 1678846095661,
            "trialTime": 0
        },
        {
            "exptPart": "trial",
            "trialNumber": 71,
            "roleCurrent": "sender",
            "marblesSampled": 100,
            "probRed": 0.5,
            "lambda": 5,
            "drawnRed": 68,
            "reportedRed": 34,
            "inferredRed": 39,
            "playerTrialScore": 29,
            "oppTrialScore": -29,
            "playerTotalScore": -127,
            "oppTotalScore": -440,
            "waitTime": 3135.578944596284,
            "responseTime": 1678846139416,
            "catchQuestion": "How many <b class=\"r\">red<\/b> marbles did you actually draw (before any changes)? ",
            "catchKey": -1,
            "catchResponse": -1,
            "catchTime": 1678846095661,
            "trialTime": 0
        },
        {
            "exptPart": "trial",
            "trialNumber": 72,
            "roleCurrent": "receiver",
            "marblesSampled": 100,
            "probRed": 0.5,
            "lambda": 5,
            "drawnRed": 40,
            "reportedRed": 35,
            "inferredRed": 79,
            "playerTrialScore": -39,
            "oppTrialScore": 0,
            "playerTotalScore": -166,
            "oppTotalScore": -440,
            "waitTime": 6361.472738941772,
            "responseTime": 1678846159013,
            "catchQuestion": "How many <b class=\"r\">red<\/b> marbles did you actually draw (before any changes)? ",
            "catchKey": -1,
            "catchResponse": -1,
            "catchTime": 1678846095661,
            "trialTime": 0
        },
        {
            "exptPart": "trial",
            "trialNumber": 73,
            "roleCurrent": "sender",
            "marblesSampled": 100,
            "probRed": 0.5,
            "lambda": 5,
            "drawnRed": 81,
            "reportedRed": 45,
            "inferredRed": 49,
            "playerTrialScore": 32,
            "oppTrialScore": -32,
            "playerTotalScore": -134,
            "oppTotalScore": -472,
            "waitTime": 2225.403920554757,
            "responseTime": 1678846202878,
            "catchQuestion": "How many <b class=\"r\">red<\/b> marbles did you actually draw (before any changes)? ",
            "catchKey": -1,
            "catchResponse": -1,
            "catchTime": 1678846095661,
            "trialTime": 0
        },
        {
            "exptPart": "trial",
            "trialNumber": 74,
            "roleCurrent": "receiver",
            "marblesSampled": 100,
            "probRed": 0.5,
            "lambda": 5,
            "drawnRed": 32,
            "reportedRed": 26,
            "inferredRed": 57,
            "playerTrialScore": -25,
            "oppTrialScore": 0,
            "playerTotalScore": -159,
            "oppTotalScore": -472,
            "waitTime": 5175.463458939814,
            "responseTime": 1678846214325,
            "catchQuestion": "How many <b class=\"r\">red<\/b> marbles did you actually draw (before any changes)? ",
            "catchKey": -1,
            "catchResponse": -1,
            "catchTime": 1678846095661,
            "trialTime": 0
        },
        {
            "exptPart": "trial",
            "trialNumber": 75,
            "roleCurrent": "sender",
            "marblesSampled": 100,
            "probRed": 0.5,
            "lambda": 5,
            "drawnRed": 74,
            "reportedRed": 45,
            "inferredRed": 49,
            "playerTrialScore": 25,
            "oppTrialScore": -25,
            "playerTotalScore": -134,
            "oppTotalScore": -497,
            "waitTime": 2287.7504059708044,
            "responseTime": 1678846245466,
            "catchQuestion": "How many <b class=\"r\">red<\/b> marbles did you actually draw (before any changes)? ",
            "catchKey": -1,
            "catchResponse": -1,
            "catchTime": 1678846245466,
            "trialTime": 0
        },
        {
            "exptPart": "trial",
            "trialNumber": 76,
            "roleCurrent": "receiver",
            "marblesSampled": 100,
            "probRed": 0.5,
            "lambda": 5,
            "drawnRed": 60,
            "reportedRed": 58,
            "inferredRed": 97,
            "playerTrialScore": -37,
            "oppTrialScore": 0,
            "playerTotalScore": -171,
            "oppTotalScore": -497,
            "waitTime": 5561.567433369272,
            "responseTime": 1678846260227,
            "catchQuestion": "How many <b class=\"r\">red<\/b> marbles did you actually draw (before any changes)? ",
            "catchKey": -1,
            "catchResponse": -1,
            "catchTime": 1678846245466,
            "trialTime": 0
        },
        {
            "exptPart": "trial",
            "trialNumber": 77,
            "roleCurrent": "sender",
            "marblesSampled": 100,
            "probRed": 0.5,
            "lambda": 5,
            "drawnRed": 18,
            "reportedRed": 9,
            "inferredRed": 15,
            "playerTrialScore": 3,
            "oppTrialScore": -3,
            "playerTotalScore": -168,
            "oppTotalScore": -500,
            "waitTime": 2721.1537024370164,
            "responseTime": 1678846280794,
            "catchQuestion": "How many <b class=\"r\">red<\/b> marbles did you actually draw (before any changes)? ",
            "catchKey": -1,
            "catchResponse": -1,
            "catchTime": 1678846245466,
            "trialTime": 0
        },
        {
            "exptPart": "trial",
            "trialNumber": 78,
            "roleCurrent": "receiver",
            "marblesSampled": 100,
            "probRed": 0.5,
            "lambda": 5,
            "drawnRed": 71,
            "reportedRed": 64,
            "inferredRed": 97,
            "playerTrialScore": -26,
            "oppTrialScore": 0,
            "playerTotalScore": -194,
            "oppTotalScore": -500,
            "waitTime": 5252.718965651047,
            "responseTime": 1678846291025,
            "catchQuestion": "How many <b class=\"r\">red<\/b> marbles did you actually draw (before any changes)? ",
            "catchKey": -1,
            "catchResponse": -1,
            "catchTime": 1678846245466,
            "trialTime": 0
        },
        {
            "exptPart": "trial",
            "trialNumber": 79,
            "roleCurrent": "sender",
            "marblesSampled": 100,
            "probRed": 0.5,
            "lambda": 5,
            "drawnRed": 64,
            "reportedRed": 40,
            "inferredRed": 48,
            "playerTrialScore": 16,
            "oppTrialScore": -16,
            "playerTotalScore": -178,
            "oppTotalScore": -516,
            "waitTime": 2343.115758336267,
            "responseTime": 1678846323266,
            "catchQuestion": "How many <b class=\"r\">red<\/b> marbles did you actually draw (before any changes)? ",
            "catchKey": 64,
            "catchResponse": 79,
            "catchTime": 1678846323266,
            "trialTime": 0
        },
        {
            "exptPart": "trial",
            "trialNumber": 80,
            "roleCurrent": "receiver",
            "marblesSampled": 100,
            "probRed": 0.5,
            "lambda": 5,
            "drawnRed": 46,
            "reportedRed": 41,
            "inferredRed": 67,
            "playerTrialScore": -21,
            "oppTrialScore": 0,
            "playerTotalScore": -199,
            "oppTotalScore": -516,
            "waitTime": 7346.519496620245,
            "responseTime": 1678846346841,
            "catchQuestion": "How many <b class=\"r\">red<\/b> marbles did you actually draw (before any changes)? ",
            "catchKey": -1,
            "catchResponse": -1,
            "catchTime": 1678846346841,
            "trialTime": 0
        },
        {
            "exptPart": "trial",
            "trialNumber": 81,
            "roleCurrent": "sender",
            "marblesSampled": 100,
            "probRed": 0.5,
            "lambda": 5,
            "drawnRed": 84,
            "reportedRed": 37,
            "inferredRed": 42,
            "playerTrialScore": 42,
            "oppTrialScore": -42,
            "playerTotalScore": -157,
            "oppTotalScore": -558,
            "waitTime": 2644.987902510605,
            "responseTime": 1678846401015,
            "catchQuestion": "How many <b class=\"r\">red<\/b> marbles did you actually draw (before any changes)? ",
            "catchKey": -1,
            "catchResponse": -1,
            "catchTime": 1678846346841,
            "trialTime": 0
        },
        {
            "exptPart": "trial",
            "trialNumber": 82,
            "roleCurrent": "receiver",
            "marblesSampled": 100,
            "probRed": 0.5,
            "lambda": 5,
            "drawnRed": 14,
            "reportedRed": 11,
            "inferredRed": 74,
            "playerTrialScore": -60,
            "oppTrialScore": 0,
            "playerTotalScore": -217,
            "oppTotalScore": -558,
            "waitTime": 5746.4816050484005,
            "responseTime": 1678846413270,
            "catchQuestion": "How many <b class=\"r\">red<\/b> marbles did you actually draw (before any changes)? ",
            "catchKey": -1,
            "catchResponse": -1,
            "catchTime": 1678846346841,
            "trialTime": 0
        },
        {
            "exptPart": "trial",
            "trialNumber": 83,
            "roleCurrent": "sender",
            "marblesSampled": 100,
            "probRed": 0.5,
            "lambda": 5,
            "drawnRed": 19,
            "reportedRed": 10,
            "inferredRed": 16,
            "playerTrialScore": 3,
            "oppTrialScore": -3,
            "playerTotalScore": -214,
            "oppTotalScore": -561,
            "waitTime": 2249.236353638312,
            "responseTime": 1678846432017,
            "catchQuestion": "How many <b class=\"r\">red<\/b> marbles did you actually draw (before any changes)? ",
            "catchKey": -1,
            "catchResponse": -1,
            "catchTime": 1678846346841,
            "trialTime": 0
        },
        {
            "exptPart": "trial",
            "trialNumber": 84,
            "roleCurrent": "receiver",
            "marblesSampled": 100,
            "probRed": 0.5,
            "lambda": 5,
            "drawnRed": 19,
            "reportedRed": 17,
            "inferredRed": 64,
            "playerTrialScore": -45,
            "oppTrialScore": 0,
            "playerTotalScore": -259,
            "oppTotalScore": -561,
            "waitTime": 6076.740147425768,
            "responseTime": 1678846442582,
            "catchQuestion": "How many <b class=\"r\">red<\/b> marbles did your opponent report drawing? ",
            "catchKey": 17,
            "catchResponse": 17,
            "catchTime": 1678846442582,
            "trialTime": 0
        },
        {
            "exptPart": "trial",
            "trialNumber": 85,
            "roleCurrent": "sender",
            "marblesSampled": 100,
            "probRed": 0.5,
            "lambda": 5,
            "drawnRed": 38,
            "reportedRed": 21,
            "inferredRed": 24,
            "playerTrialScore": 14,
            "oppTrialScore": -14,
            "playerTotalScore": -245,
            "oppTotalScore": -575,
            "waitTime": 2393.5525907099436,
            "responseTime": 1678846471377,
            "catchQuestion": "How many <b class=\"r\">red<\/b> marbles did your opponent report drawing? ",
            "catchKey": -1,
            "catchResponse": -1,
            "catchTime": 1678846471377,
            "trialTime": 0
        },
        {
            "exptPart": "trial",
            "trialNumber": 86,
            "roleCurrent": "receiver",
            "marblesSampled": 100,
            "probRed": 0.5,
            "lambda": 5,
            "drawnRed": 76,
            "reportedRed": 74,
            "inferredRed": 98,
            "playerTrialScore": -22,
            "oppTrialScore": 0,
            "playerTotalScore": -267,
            "oppTotalScore": -575,
            "waitTime": 6090.375247455041,
            "responseTime": 1678846488512,
            "catchQuestion": "How many <b class=\"r\">red<\/b> marbles did your opponent report drawing? ",
            "catchKey": -1,
            "catchResponse": -1,
            "catchTime": 1678846471377,
            "trialTime": 0
        },
        {
            "exptPart": "trial",
            "trialNumber": 87,
            "roleCurrent": "sender",
            "marblesSampled": 100,
            "probRed": 0.5,
            "lambda": 5,
            "drawnRed": 36,
            "reportedRed": 1,
            "inferredRed": 7,
            "playerTrialScore": 29,
            "oppTrialScore": -29,
            "playerTotalScore": -238,
            "oppTotalScore": -604,
            "waitTime": 2095.791835223591,
            "responseTime": 1678846528488,
            "catchQuestion": "How many <b class=\"r\">red<\/b> marbles did your opponent report drawing? ",
            "catchKey": -1,
            "catchResponse": -1,
            "catchTime": 1678846471377,
            "trialTime": 0
        },
        {
            "exptPart": "trial",
            "trialNumber": 88,
            "roleCurrent": "receiver",
            "marblesSampled": 100,
            "probRed": 0.5,
            "lambda": 5,
            "drawnRed": 30,
            "reportedRed": 24,
            "inferredRed": 89,
            "playerTrialScore": -59,
            "oppTrialScore": 0,
            "playerTotalScore": -297,
            "oppTotalScore": -604,
            "waitTime": 6283.111022160332,
            "responseTime": 1678846538879,
            "catchQuestion": "How many <b class=\"r\">red<\/b> marbles did your opponent report drawing? ",
            "catchKey": -1,
            "catchResponse": -1,
            "catchTime": 1678846471377,
            "trialTime": 0
        },
        {
            "exptPart": "trial",
            "trialNumber": 89,
            "roleCurrent": "sender",
            "marblesSampled": 100,
            "probRed": 0.5,
            "lambda": 5,
            "drawnRed": 64,
            "reportedRed": 4,
            "inferredRed": 6,
            "playerTrialScore": 58,
            "oppTrialScore": -58,
            "playerTotalScore": -239,
            "oppTotalScore": -662,
            "waitTime": 2101.270942412645,
            "responseTime": 1678846597843,
            "catchQuestion": "How many <b class=\"r\">red<\/b> marbles did your opponent report drawing? ",
            "catchKey": -1,
            "catchResponse": -1,
            "catchTime": 1678846471377,
            "trialTime": 0
        },
        {
            "exptPart": "trial",
            "trialNumber": 90,
            "roleCurrent": "receiver",
            "marblesSampled": 100,
            "probRed": 0.5,
            "lambda": 5,
            "drawnRed": 73,
            "reportedRed": 66,
            "inferredRed": 99,
            "playerTrialScore": -26,
            "oppTrialScore": 0,
            "playerTotalScore": -265,
            "oppTotalScore": -662,
            "waitTime": 5402.382959069334,
            "responseTime": 1678846606984,
            "catchQuestion": "How many <b class=\"r\">red<\/b> marbles did your opponent report drawing? ",
            "catchKey": 66,
            "catchResponse": 66,
            "catchTime": 1678846606984,
            "trialTime": 0
        },
        {
            "exptPart": "trial",
            "trialNumber": 91,
            "roleCurrent": "sender",
            "marblesSampled": 100,
            "probRed": 0.5,
            "lambda": 5,
            "drawnRed": 79,
            "reportedRed": 21,
            "inferredRed": 27,
            "playerTrialScore": 52,
            "oppTrialScore": -52,
            "playerTotalScore": -213,
            "oppTotalScore": -714,
            "waitTime": 2888.9784011526017,
            "responseTime": 1678846675690,
            "catchQuestion": "How many <b class=\"r\">red<\/b> marbles did your opponent report drawing? ",
            "catchKey": -1,
            "catchResponse": -1,
            "catchTime": 1678846606984,
            "trialTime": 0
        },
        {
            "exptPart": "trial",
            "trialNumber": 92,
            "roleCurrent": "receiver",
            "marblesSampled": 100,
            "probRed": 0.5,
            "lambda": 5,
            "drawnRed": 46,
            "reportedRed": 44,
            "inferredRed": 88,
            "playerTrialScore": -42,
            "oppTrialScore": 0,
            "playerTotalScore": -255,
            "oppTotalScore": -714,
            "waitTime": 7218.651130895791,
            "responseTime": 1678846693542,
            "catchQuestion": "How many <b class=\"r\">red<\/b> marbles did your opponent report drawing? ",
            "catchKey": -1,
            "catchResponse": -1,
            "catchTime": 1678846606984,
            "trialTime": 0
        },
        {
            "exptPart": "trial",
            "trialNumber": 93,
            "roleCurrent": "sender",
            "marblesSampled": 100,
            "probRed": 0.5,
            "lambda": 5,
            "drawnRed": 46,
            "reportedRed": 8,
            "inferredRed": 10,
            "playerTrialScore": 36,
            "oppTrialScore": -36,
            "playerTotalScore": -219,
            "oppTotalScore": -750,
            "waitTime": 2167.071312216953,
            "responseTime": 1678846740846,
            "catchQuestion": "How many <b class=\"r\">red<\/b> marbles did your opponent report drawing? ",
            "catchKey": -1,
            "catchResponse": -1,
            "catchTime": 1678846606984,
            "trialTime": 0
        },
        {
            "exptPart": "trial",
            "trialNumber": 94,
            "roleCurrent": "receiver",
            "marblesSampled": 100,
            "probRed": 0.5,
            "lambda": 5,
            "drawnRed": 43,
            "reportedRed": 37,
            "inferredRed": 78,
            "playerTrialScore": -35,
            "oppTrialScore": 0,
            "playerTotalScore": -254,
            "oppTotalScore": -750,
            "waitTime": 5295.6235238707295,
            "responseTime": 1678846750470,
            "catchQuestion": "How many <b class=\"r\">red<\/b> marbles did your opponent report drawing? ",
            "catchKey": -1,
            "catchResponse": -1,
            "catchTime": 1678846606984,
            "trialTime": 0
        },
        {
            "exptPart": "trial",
            "trialNumber": 95,
            "roleCurrent": "sender",
            "marblesSampled": 100,
            "probRed": 0.5,
            "lambda": 5,
            "drawnRed": 59,
            "reportedRed": 2,
            "inferredRed": 7,
            "playerTrialScore": 52,
            "oppTrialScore": -52,
            "playerTotalScore": -202,
            "oppTotalScore": -802,
            "waitTime": 2858.2972303943143,
            "responseTime": 1678846806424,
            "catchQuestion": "How many <b class=\"r\">red<\/b> marbles did your opponent report drawing? ",
            "catchKey": -1,
            "catchResponse": -1,
            "catchTime": 1678846806424,
            "trialTime": 0
        },
        {
            "exptPart": "trial",
            "trialNumber": 96,
            "roleCurrent": "receiver",
            "marblesSampled": 100,
            "probRed": 0.5,
            "lambda": 5,
            "drawnRed": 50,
            "reportedRed": 41,
            "inferredRed": 99,
            "playerTrialScore": -49,
            "oppTrialScore": 0,
            "playerTotalScore": -251,
            "oppTotalScore": -802,
            "waitTime": 5700.859039872112,
            "responseTime": 1678846820457,
            "catchQuestion": "How many <b class=\"r\">red<\/b> marbles did your opponent report drawing? ",
            "catchKey": -1,
            "catchResponse": -1,
            "catchTime": 1678846806424,
            "trialTime": 0
        },
        {
            "exptPart": "trial",
            "trialNumber": 97,
            "roleCurrent": "sender",
            "marblesSampled": 100,
            "probRed": 0.5,
            "lambda": 5,
            "drawnRed": 60,
            "reportedRed": 12,
            "inferredRed": 17,
            "playerTrialScore": 43,
            "oppTrialScore": -43,
            "playerTotalScore": -208,
            "oppTotalScore": -845,
            "waitTime": 2293.787743366911,
            "responseTime": 1678846867267,
            "catchQuestion": "How many <b class=\"r\">red<\/b> marbles did your opponent report drawing? ",
            "catchKey": -1,
            "catchResponse": -1,
            "catchTime": 1678846806424,
            "trialTime": 0
        },
        {
            "exptPart": "trial",
            "trialNumber": 98,
            "roleCurrent": "receiver",
            "marblesSampled": 100,
            "probRed": 0.5,
            "lambda": 5,
            "drawnRed": 97,
            "reportedRed": 92,
            "inferredRed": 100,
            "playerTrialScore": -3,
            "oppTrialScore": 0,
            "playerTotalScore": -211,
            "oppTotalScore": -845,
            "waitTime": 6856.514871314892,
            "responseTime": 1678846879409,
            "catchQuestion": "How many <b class=\"r\">red<\/b> marbles did your opponent report drawing? ",
            "catchKey": -1,
            "catchResponse": -1,
            "catchTime": 1678846806424,
            "trialTime": 0
        },
        {
            "exptPart": "trial",
            "trialNumber": 99,
            "roleCurrent": "sender",
            "marblesSampled": 100,
            "probRed": 0.5,
            "lambda": 5,
            "drawnRed": 42,
            "reportedRed": 35,
            "inferredRed": 41,
            "playerTrialScore": 1,
            "oppTrialScore": -1,
            "playerTotalScore": -210,
            "oppTotalScore": -846,
            "waitTime": 2659.570965950386,
            "responseTime": 1678846934118,
            "catchQuestion": "How many <b class=\"r\">red<\/b> marbles did your opponent report drawing? ",
            "catchKey": -1,
            "catchResponse": -1,
            "catchTime": 1678846806424,
            "trialTime": 0
        },
        {
            "exptPart": "trial",
            "trialNumber": 100,
            "roleCurrent": "receiver",
            "marblesSampled": 100,
            "probRed": 0.5,
            "lambda": 5,
            "drawnRed": 5,
            "reportedRed": 0,
            "inferredRed": 98,
            "playerTrialScore": -93,
            "oppTrialScore": 0,
            "playerTotalScore": -303,
            "oppTotalScore": -846,
            "waitTime": 5589.135668375013,
            "responseTime": 1678846947345,
            "catchQuestion": "How many <b class=\"r\">red<\/b> marbles did your opponent report drawing? ",
            "catchKey": -1,
            "catchResponse": -1,
            "catchTime": 1678846947345,
            "trialTime": 0
        }
    ]
}