{
    "client": {
        "type": "sona",
        "experiment_id": 2228,
        "credit_token": "b315147ae43241ea9c65086cb510cfb7",
        "survey_code": "40360",
        "sid": "sona-40360",
        "window": {
            "width": 1536,
            "height": 688
        },
        "screen": {
            "width": 1536,
            "height": 864
        },
        "userAgent": "Mozilla\/5.0 (Windows NT 10.0; Win64; x64) AppleWebKit\/537.36 (KHTML, like Gecko) Chrome\/111.0.0.0 Safari\/537.36",
        "score": 0,
        "bonus": 0
    },
    "expt": {
        "saveURL": "submit.simple.php",
        "trials": 100,
        "practiceTrials": 2,
        "marblesSampled": 100,
        "probRed": 0.5,
        "lambdaAI": 5,
        "roleFirst": "sender",
        "roles": [
            "sender",
            "receiver"
        ],
        "cost": "unif",
        "goal": "under",
        "goalInstructTxt": "above",
        "catchTrials": [
            11,
            2,
            17,
            40,
            75,
            31,
            61,
            76,
            26,
            52
        ],
        "scoreTotal": {
            "player": 488,
            "opp": -781
        },
        "sona": {
            "experiment_id": 2228,
            "credit_token": "b315147ae43241ea9c65086cb510cfb7"
        },
        "pilot": false,
        "debug": false
    },
    "trials": [
        {
            "exptPart": "practice",
            "trialNumber": 1,
            "roleCurrent": "sender",
            "marblesSampled": 100,
            "probRed": 0.5,
            "lambda": 5,
            "drawnRed": 54,
            "reportedRed": 67,
            "inferredRed": 70,
            "playerTrialScore": 0,
            "oppTrialScore": -16,
            "playerTotalScore": 0,
            "oppTotalScore": -16,
            "waitTime": 2256.8684956156585,
            "responseTime": 1680637161037,
            "catchQuestion": "How many <b class=\"r\">red<\/b> marbles did you actually draw (before any changes)? ",
            "catchKey": 54,
            "catchResponse": 56,
            "catchTime": 1680637161037,
            "trialTime": 0
        },
        {
            "exptPart": "practice",
            "trialNumber": 2,
            "roleCurrent": "receiver",
            "marblesSampled": 100,
            "probRed": 0.5,
            "lambda": 5,
            "drawnRed": 75,
            "reportedRed": 69,
            "inferredRed": 71,
            "playerTrialScore": -4,
            "oppTrialScore": 4,
            "playerTotalScore": -4,
            "oppTotalScore": -12,
            "waitTime": 6035.093317226992,
            "responseTime": 1680637214596,
            "catchQuestion": "How many <b class=\"r\">red<\/b> marbles did your opponent report drawing? ",
            "catchKey": 69,
            "catchResponse": 69,
            "catchTime": 1680637214596,
            "trialTime": 0
        },
        {
            "exptPart": "trial",
            "trialNumber": 1,
            "roleCurrent": "sender",
            "marblesSampled": 100,
            "probRed": 0.5,
            "lambda": 5,
            "drawnRed": 19,
            "reportedRed": 47,
            "inferredRed": 51,
            "playerTrialScore": 0,
            "oppTrialScore": -32,
            "playerTotalScore": 0,
            "oppTotalScore": -32,
            "waitTime": 2718.982746097974,
            "responseTime": 1680637271828,
            "catchQuestion": "How many <b class=\"r\">red<\/b> marbles did your opponent report drawing? ",
            "catchKey": -1,
            "catchResponse": -1,
            "catchTime": 1680637214596,
            "trialTime": 0
        },
        {
            "exptPart": "trial",
            "trialNumber": 2,
            "roleCurrent": "receiver",
            "marblesSampled": 100,
            "probRed": 0.5,
            "lambda": 5,
            "drawnRed": 52,
            "reportedRed": 44,
            "inferredRed": 50,
            "playerTrialScore": -2,
            "oppTrialScore": 2,
            "playerTotalScore": -2,
            "oppTotalScore": -30,
            "waitTime": 6530.55728315578,
            "responseTime": 1680637293404,
            "catchQuestion": "How many <b class=\"r\">red<\/b> marbles did your opponent report drawing? ",
            "catchKey": -1,
            "catchResponse": -1,
            "catchTime": 1680637214596,
            "trialTime": 0
        },
        {
            "exptPart": "trial",
            "trialNumber": 3,
            "roleCurrent": "sender",
            "marblesSampled": 100,
            "probRed": 0.5,
            "lambda": 5,
            "drawnRed": 25,
            "reportedRed": 32,
            "inferredRed": 41,
            "playerTrialScore": 0,
            "oppTrialScore": -16,
            "playerTotalScore": -2,
            "oppTotalScore": -46,
            "waitTime": 2854.614493311841,
            "responseTime": 1680637312243,
            "catchQuestion": "How many <b class=\"r\">red<\/b> marbles did you actually draw (before any changes)? ",
            "catchKey": 25,
            "catchResponse": 25,
            "catchTime": 1680637312243,
            "trialTime": 0
        },
        {
            "exptPart": "trial",
            "trialNumber": 4,
            "roleCurrent": "receiver",
            "marblesSampled": 100,
            "probRed": 0.5,
            "lambda": 5,
            "drawnRed": 63,
            "reportedRed": 59,
            "inferredRed": 60,
            "playerTrialScore": -3,
            "oppTrialScore": 3,
            "playerTotalScore": -5,
            "oppTotalScore": -43,
            "waitTime": 5675.307885395613,
            "responseTime": 1680637342223,
            "catchQuestion": "How many <b class=\"r\">red<\/b> marbles did you actually draw (before any changes)? ",
            "catchKey": -1,
            "catchResponse": -1,
            "catchTime": 1680637312243,
            "trialTime": 0
        },
        {
            "exptPart": "trial",
            "trialNumber": 5,
            "roleCurrent": "sender",
            "marblesSampled": 100,
            "probRed": 0.5,
            "lambda": 5,
            "drawnRed": 42,
            "reportedRed": 47,
            "inferredRed": 53,
            "playerTrialScore": 0,
            "oppTrialScore": -11,
            "playerTotalScore": -5,
            "oppTotalScore": -54,
            "waitTime": 2267.9317556374176,
            "responseTime": 1680637372324,
            "catchQuestion": "How many <b class=\"r\">red<\/b> marbles did you actually draw (before any changes)? ",
            "catchKey": -1,
            "catchResponse": -1,
            "catchTime": 1680637372324,
            "trialTime": 0
        },
        {
            "exptPart": "trial",
            "trialNumber": 6,
            "roleCurrent": "receiver",
            "marblesSampled": 100,
            "probRed": 0.5,
            "lambda": 5,
            "drawnRed": 57,
            "reportedRed": 53,
            "inferredRed": 56,
            "playerTrialScore": -1,
            "oppTrialScore": 1,
            "playerTotalScore": -6,
            "oppTotalScore": -53,
            "waitTime": 6282.9288446202745,
            "responseTime": 1680637395260,
            "catchQuestion": "How many <b class=\"r\">red<\/b> marbles did you actually draw (before any changes)? ",
            "catchKey": -1,
            "catchResponse": -1,
            "catchTime": 1680637372324,
            "trialTime": 0
        },
        {
            "exptPart": "trial",
            "trialNumber": 7,
            "roleCurrent": "sender",
            "marblesSampled": 100,
            "probRed": 0.5,
            "lambda": 5,
            "drawnRed": 49,
            "reportedRed": 54,
            "inferredRed": 58,
            "playerTrialScore": 0,
            "oppTrialScore": -9,
            "playerTotalScore": -6,
            "oppTotalScore": -62,
            "waitTime": 2097.252196612153,
            "responseTime": 1680637409482,
            "catchQuestion": "How many <b class=\"r\">red<\/b> marbles did you actually draw (before any changes)? ",
            "catchKey": -1,
            "catchResponse": -1,
            "catchTime": 1680637372324,
            "trialTime": 0
        },
        {
            "exptPart": "trial",
            "trialNumber": 8,
            "roleCurrent": "receiver",
            "marblesSampled": 100,
            "probRed": 0.5,
            "lambda": 5,
            "drawnRed": 83,
            "reportedRed": 79,
            "inferredRed": 70,
            "playerTrialScore": -13,
            "oppTrialScore": 13,
            "playerTotalScore": -19,
            "oppTotalScore": -49,
            "waitTime": 7389.817895543888,
            "responseTime": 1680637423434,
            "catchQuestion": "How many <b class=\"r\">red<\/b> marbles did you actually draw (before any changes)? ",
            "catchKey": -1,
            "catchResponse": -1,
            "catchTime": 1680637372324,
            "trialTime": 0
        },
        {
            "exptPart": "trial",
            "trialNumber": 9,
            "roleCurrent": "sender",
            "marblesSampled": 100,
            "probRed": 0.5,
            "lambda": 5,
            "drawnRed": 29,
            "reportedRed": 29,
            "inferredRed": 30,
            "playerTrialScore": 0,
            "oppTrialScore": -1,
            "playerTotalScore": -19,
            "oppTotalScore": -50,
            "waitTime": 2773.1110156236664,
            "responseTime": 1680637434043,
            "catchQuestion": "How many <b class=\"r\">red<\/b> marbles did you actually draw (before any changes)? ",
            "catchKey": -1,
            "catchResponse": -1,
            "catchTime": 1680637372324,
            "trialTime": 0
        },
        {
            "exptPart": "trial",
            "trialNumber": 10,
            "roleCurrent": "receiver",
            "marblesSampled": 100,
            "probRed": 0.5,
            "lambda": 5,
            "drawnRed": 62,
            "reportedRed": 55,
            "inferredRed": 56,
            "playerTrialScore": -6,
            "oppTrialScore": 6,
            "playerTotalScore": -25,
            "oppTotalScore": -44,
            "waitTime": 5314.33709587488,
            "responseTime": 1680637444485,
            "catchQuestion": "How many <b class=\"r\">red<\/b> marbles did you actually draw (before any changes)? ",
            "catchKey": -1,
            "catchResponse": -1,
            "catchTime": 1680637444485,
            "trialTime": 0
        },
        {
            "exptPart": "trial",
            "trialNumber": 11,
            "roleCurrent": "sender",
            "marblesSampled": 100,
            "probRed": 0.5,
            "lambda": 5,
            "drawnRed": 54,
            "reportedRed": 63,
            "inferredRed": 69,
            "playerTrialScore": 0,
            "oppTrialScore": -15,
            "playerTotalScore": -25,
            "oppTotalScore": -59,
            "waitTime": 2281.8030972777105,
            "responseTime": 1680637471323,
            "catchQuestion": "How many <b class=\"r\">red<\/b> marbles did you actually draw (before any changes)? ",
            "catchKey": -1,
            "catchResponse": -1,
            "catchTime": 1680637444485,
            "trialTime": 0
        },
        {
            "exptPart": "trial",
            "trialNumber": 12,
            "roleCurrent": "receiver",
            "marblesSampled": 100,
            "probRed": 0.5,
            "lambda": 5,
            "drawnRed": 34,
            "reportedRed": 26,
            "inferredRed": 32,
            "playerTrialScore": -2,
            "oppTrialScore": 2,
            "playerTotalScore": -27,
            "oppTotalScore": -57,
            "waitTime": 6400.1034181595915,
            "responseTime": 1680637488928,
            "catchQuestion": "How many <b class=\"r\">red<\/b> marbles did your opponent report drawing? ",
            "catchKey": 26,
            "catchResponse": 26,
            "catchTime": 1680637488928,
            "trialTime": 0
        },
        {
            "exptPart": "trial",
            "trialNumber": 13,
            "roleCurrent": "sender",
            "marblesSampled": 100,
            "probRed": 0.5,
            "lambda": 5,
            "drawnRed": 75,
            "reportedRed": 75,
            "inferredRed": 83,
            "playerTrialScore": 0,
            "oppTrialScore": -8,
            "playerTotalScore": -27,
            "oppTotalScore": -65,
            "waitTime": 2514.4032527168592,
            "responseTime": 1680637522645,
            "catchQuestion": "How many <b class=\"r\">red<\/b> marbles did your opponent report drawing? ",
            "catchKey": -1,
            "catchResponse": -1,
            "catchTime": 1680637488928,
            "trialTime": 0
        },
        {
            "exptPart": "trial",
            "trialNumber": 14,
            "roleCurrent": "receiver",
            "marblesSampled": 100,
            "probRed": 0.5,
            "lambda": 5,
            "drawnRed": 79,
            "reportedRed": 75,
            "inferredRed": 75,
            "playerTrialScore": -4,
            "oppTrialScore": 4,
            "playerTotalScore": -31,
            "oppTotalScore": -61,
            "waitTime": 5464.519318447345,
            "responseTime": 1680637532843,
            "catchQuestion": "How many <b class=\"r\">red<\/b> marbles did your opponent report drawing? ",
            "catchKey": -1,
            "catchResponse": -1,
            "catchTime": 1680637488928,
            "trialTime": 0
        },
        {
            "exptPart": "trial",
            "trialNumber": 15,
            "roleCurrent": "sender",
            "marblesSampled": 100,
            "probRed": 0.5,
            "lambda": 5,
            "drawnRed": 74,
            "reportedRed": 74,
            "inferredRed": 77,
            "playerTrialScore": 0,
            "oppTrialScore": -3,
            "playerTotalScore": -31,
            "oppTotalScore": -64,
            "waitTime": 2918.1973443854836,
            "responseTime": 1680637552922,
            "catchQuestion": "How many <b class=\"r\">red<\/b> marbles did your opponent report drawing? ",
            "catchKey": -1,
            "catchResponse": -1,
            "catchTime": 1680637552922,
            "trialTime": 0
        },
        {
            "exptPart": "trial",
            "trialNumber": 16,
            "roleCurrent": "receiver",
            "marblesSampled": 100,
            "probRed": 0.5,
            "lambda": 5,
            "drawnRed": 58,
            "reportedRed": 54,
            "inferredRed": 56,
            "playerTrialScore": -2,
            "oppTrialScore": 2,
            "playerTotalScore": -33,
            "oppTotalScore": -62,
            "waitTime": 5352.167923264507,
            "responseTime": 1680637571297,
            "catchQuestion": "How many <b class=\"r\">red<\/b> marbles did your opponent report drawing? ",
            "catchKey": -1,
            "catchResponse": -1,
            "catchTime": 1680637552922,
            "trialTime": 0
        },
        {
            "exptPart": "trial",
            "trialNumber": 17,
            "roleCurrent": "sender",
            "marblesSampled": 100,
            "probRed": 0.5,
            "lambda": 5,
            "drawnRed": 70,
            "reportedRed": 76,
            "inferredRed": 84,
            "playerTrialScore": 0,
            "oppTrialScore": -14,
            "playerTotalScore": -33,
            "oppTotalScore": -76,
            "waitTime": 2525.439463064764,
            "responseTime": 1680637583632,
            "catchQuestion": "How many <b class=\"r\">red<\/b> marbles did your opponent report drawing? ",
            "catchKey": -1,
            "catchResponse": -1,
            "catchTime": 1680637552922,
            "trialTime": 0
        },
        {
            "exptPart": "trial",
            "trialNumber": 18,
            "roleCurrent": "receiver",
            "marblesSampled": 100,
            "probRed": 0.5,
            "lambda": 5,
            "drawnRed": 33,
            "reportedRed": 26,
            "inferredRed": 30,
            "playerTrialScore": -3,
            "oppTrialScore": 3,
            "playerTotalScore": -36,
            "oppTotalScore": -73,
            "waitTime": 5426.178297514354,
            "responseTime": 1680637597792,
            "catchQuestion": "How many <b class=\"r\">red<\/b> marbles did your opponent report drawing? ",
            "catchKey": 26,
            "catchResponse": 26,
            "catchTime": 1680637597793,
            "trialTime": 0
        },
        {
            "exptPart": "trial",
            "trialNumber": 19,
            "roleCurrent": "sender",
            "marblesSampled": 100,
            "probRed": 0.5,
            "lambda": 5,
            "drawnRed": 31,
            "reportedRed": 8,
            "inferredRed": 15,
            "playerTrialScore": 16,
            "oppTrialScore": -16,
            "playerTotalScore": -20,
            "oppTotalScore": -89,
            "waitTime": 2188.4328583782435,
            "responseTime": 1680637637521,
            "catchQuestion": "How many <b class=\"r\">red<\/b> marbles did your opponent report drawing? ",
            "catchKey": -1,
            "catchResponse": -1,
            "catchTime": 1680637597793,
            "trialTime": 0
        },
        {
            "exptPart": "trial",
            "trialNumber": 20,
            "roleCurrent": "receiver",
            "marblesSampled": 100,
            "probRed": 0.5,
            "lambda": 5,
            "drawnRed": 47,
            "reportedRed": 42,
            "inferredRed": 45,
            "playerTrialScore": -2,
            "oppTrialScore": 2,
            "playerTotalScore": -22,
            "oppTotalScore": -87,
            "waitTime": 5235.639340128668,
            "responseTime": 1680637646544,
            "catchQuestion": "How many <b class=\"r\">red<\/b> marbles did your opponent report drawing? ",
            "catchKey": -1,
            "catchResponse": -1,
            "catchTime": 1680637646544,
            "trialTime": 0
        },
        {
            "exptPart": "trial",
            "trialNumber": 21,
            "roleCurrent": "sender",
            "marblesSampled": 100,
            "probRed": 0.5,
            "lambda": 5,
            "drawnRed": 58,
            "reportedRed": 67,
            "inferredRed": 73,
            "playerTrialScore": 0,
            "oppTrialScore": -15,
            "playerTotalScore": -22,
            "oppTotalScore": -102,
            "waitTime": 3074.1066631434087,
            "responseTime": 1680637672374,
            "catchQuestion": "How many <b class=\"r\">red<\/b> marbles did your opponent report drawing? ",
            "catchKey": -1,
            "catchResponse": -1,
            "catchTime": 1680637646544,
            "trialTime": 0
        },
        {
            "exptPart": "trial",
            "trialNumber": 22,
            "roleCurrent": "receiver",
            "marblesSampled": 100,
            "probRed": 0.5,
            "lambda": 5,
            "drawnRed": 15,
            "reportedRed": 11,
            "inferredRed": 25,
            "playerTrialScore": -10,
            "oppTrialScore": 0,
            "playerTotalScore": -32,
            "oppTotalScore": -102,
            "waitTime": 7070.7810255347995,
            "responseTime": 1680637695495,
            "catchQuestion": "How many <b class=\"r\">red<\/b> marbles did your opponent report drawing? ",
            "catchKey": -1,
            "catchResponse": -1,
            "catchTime": 1680637646544,
            "trialTime": 0
        },
        {
            "exptPart": "trial",
            "trialNumber": 23,
            "roleCurrent": "sender",
            "marblesSampled": 100,
            "probRed": 0.5,
            "lambda": 5,
            "drawnRed": 49,
            "reportedRed": 49,
            "inferredRed": 56,
            "playerTrialScore": 0,
            "oppTrialScore": -7,
            "playerTotalScore": -32,
            "oppTotalScore": -109,
            "waitTime": 2784.0693856491716,
            "responseTime": 1680637705271,
            "catchQuestion": "How many <b class=\"r\">red<\/b> marbles did your opponent report drawing? ",
            "catchKey": -1,
            "catchResponse": -1,
            "catchTime": 1680637646544,
            "trialTime": 0
        },
        {
            "exptPart": "trial",
            "trialNumber": 24,
            "roleCurrent": "receiver",
            "marblesSampled": 100,
            "probRed": 0.5,
            "lambda": 5,
            "drawnRed": 56,
            "reportedRed": 50,
            "inferredRed": 51,
            "playerTrialScore": -5,
            "oppTrialScore": 5,
            "playerTotalScore": -37,
            "oppTotalScore": -104,
            "waitTime": 7464.345168826725,
            "responseTime": 1680637718279,
            "catchQuestion": "How many <b class=\"r\">red<\/b> marbles did your opponent report drawing? ",
            "catchKey": -1,
            "catchResponse": -1,
            "catchTime": 1680637646544,
            "trialTime": 0
        },
        {
            "exptPart": "trial",
            "trialNumber": 25,
            "roleCurrent": "sender",
            "marblesSampled": 100,
            "probRed": 0.5,
            "lambda": 5,
            "drawnRed": 78,
            "reportedRed": 81,
            "inferredRed": 87,
            "playerTrialScore": 0,
            "oppTrialScore": -9,
            "playerTotalScore": -37,
            "oppTotalScore": -113,
            "waitTime": 2181.8654326428496,
            "responseTime": 1680637733013,
            "catchQuestion": "How many <b class=\"r\">red<\/b> marbles did your opponent report drawing? ",
            "catchKey": -1,
            "catchResponse": -1,
            "catchTime": 1680637733013,
            "trialTime": 0
        },
        {
            "exptPart": "trial",
            "trialNumber": 26,
            "roleCurrent": "receiver",
            "marblesSampled": 100,
            "probRed": 0.5,
            "lambda": 5,
            "drawnRed": 47,
            "reportedRed": 44,
            "inferredRed": 48,
            "playerTrialScore": -1,
            "oppTrialScore": 0,
            "playerTotalScore": -38,
            "oppTotalScore": -113,
            "waitTime": 6470.144293064684,
            "responseTime": 1680637750781,
            "catchQuestion": "How many <b class=\"r\">red<\/b> marbles did your opponent report drawing? ",
            "catchKey": -1,
            "catchResponse": -1,
            "catchTime": 1680637733013,
            "trialTime": 0
        },
        {
            "exptPart": "trial",
            "trialNumber": 27,
            "roleCurrent": "sender",
            "marblesSampled": 100,
            "probRed": 0.5,
            "lambda": 5,
            "drawnRed": 76,
            "reportedRed": 86,
            "inferredRed": 93,
            "playerTrialScore": 0,
            "oppTrialScore": -17,
            "playerTotalScore": -38,
            "oppTotalScore": -130,
            "waitTime": 2362.847176511612,
            "responseTime": 1680637768832,
            "catchQuestion": "How many <b class=\"r\">red<\/b> marbles did you actually draw (before any changes)? ",
            "catchKey": 76,
            "catchResponse": 76,
            "catchTime": 1680637768832,
            "trialTime": 0
        },
        {
            "exptPart": "trial",
            "trialNumber": 28,
            "roleCurrent": "receiver",
            "marblesSampled": 100,
            "probRed": 0.5,
            "lambda": 5,
            "drawnRed": 19,
            "reportedRed": 14,
            "inferredRed": 24,
            "playerTrialScore": -5,
            "oppTrialScore": 0,
            "playerTotalScore": -43,
            "oppTotalScore": -130,
            "waitTime": 6695.572122333223,
            "responseTime": 1680637796492,
            "catchQuestion": "How many <b class=\"r\">red<\/b> marbles did you actually draw (before any changes)? ",
            "catchKey": -1,
            "catchResponse": -1,
            "catchTime": 1680637768832,
            "trialTime": 0
        },
        {
            "exptPart": "trial",
            "trialNumber": 29,
            "roleCurrent": "sender",
            "marblesSampled": 100,
            "probRed": 0.5,
            "lambda": 5,
            "drawnRed": 64,
            "reportedRed": 77,
            "inferredRed": 83,
            "playerTrialScore": 0,
            "oppTrialScore": -19,
            "playerTotalScore": -43,
            "oppTotalScore": -149,
            "waitTime": 3180.7447894846177,
            "responseTime": 1680637815660,
            "catchQuestion": "How many <b class=\"r\">red<\/b> marbles did you actually draw (before any changes)? ",
            "catchKey": -1,
            "catchResponse": -1,
            "catchTime": 1680637768832,
            "trialTime": 0
        },
        {
            "exptPart": "trial",
            "trialNumber": 30,
            "roleCurrent": "receiver",
            "marblesSampled": 100,
            "probRed": 0.5,
            "lambda": 5,
            "drawnRed": 41,
            "reportedRed": 39,
            "inferredRed": 46,
            "playerTrialScore": -5,
            "oppTrialScore": 0,
            "playerTotalScore": -48,
            "oppTotalScore": -149,
            "waitTime": 5216.16002080625,
            "responseTime": 1680637831434,
            "catchQuestion": "How many <b class=\"r\">red<\/b> marbles did you actually draw (before any changes)? ",
            "catchKey": -1,
            "catchResponse": -1,
            "catchTime": 1680637831434,
            "trialTime": 0
        },
        {
            "exptPart": "trial",
            "trialNumber": 31,
            "roleCurrent": "sender",
            "marblesSampled": 100,
            "probRed": 0.5,
            "lambda": 5,
            "drawnRed": 87,
            "reportedRed": 87,
            "inferredRed": 91,
            "playerTrialScore": 0,
            "oppTrialScore": -4,
            "playerTotalScore": -48,
            "oppTotalScore": -153,
            "waitTime": 2457.044270057764,
            "responseTime": 1680637847624,
            "catchQuestion": "How many <b class=\"r\">red<\/b> marbles did you actually draw (before any changes)? ",
            "catchKey": -1,
            "catchResponse": -1,
            "catchTime": 1680637831434,
            "trialTime": 0
        },
        {
            "exptPart": "trial",
            "trialNumber": 32,
            "roleCurrent": "receiver",
            "marblesSampled": 100,
            "probRed": 0.5,
            "lambda": 5,
            "drawnRed": 39,
            "reportedRed": 32,
            "inferredRed": 33,
            "playerTrialScore": -6,
            "oppTrialScore": 6,
            "playerTotalScore": -54,
            "oppTotalScore": -147,
            "waitTime": 6074.3206721962415,
            "responseTime": 1680637858976,
            "catchQuestion": "How many <b class=\"r\">red<\/b> marbles did your opponent report drawing? ",
            "catchKey": 32,
            "catchResponse": 32,
            "catchTime": 1680637858976,
            "trialTime": 0
        },
        {
            "exptPart": "trial",
            "trialNumber": 33,
            "roleCurrent": "sender",
            "marblesSampled": 100,
            "probRed": 0.5,
            "lambda": 5,
            "drawnRed": 13,
            "reportedRed": 3,
            "inferredRed": 8,
            "playerTrialScore": 5,
            "oppTrialScore": -5,
            "playerTotalScore": -49,
            "oppTotalScore": -152,
            "waitTime": 3009.203153263279,
            "responseTime": 1680637910740,
            "catchQuestion": "How many <b class=\"r\">red<\/b> marbles did your opponent report drawing? ",
            "catchKey": -1,
            "catchResponse": -1,
            "catchTime": 1680637858976,
            "trialTime": 0
        },
        {
            "exptPart": "trial",
            "trialNumber": 34,
            "roleCurrent": "receiver",
            "marblesSampled": 100,
            "probRed": 0.5,
            "lambda": 5,
            "drawnRed": 41,
            "reportedRed": 37,
            "inferredRed": 37,
            "playerTrialScore": -4,
            "oppTrialScore": 4,
            "playerTotalScore": -53,
            "oppTotalScore": -148,
            "waitTime": 6464.811187221427,
            "responseTime": 1680637922801,
            "catchQuestion": "How many <b class=\"r\">red<\/b> marbles did your opponent report drawing? ",
            "catchKey": -1,
            "catchResponse": -1,
            "catchTime": 1680637858976,
            "trialTime": 0
        },
        {
            "exptPart": "trial",
            "trialNumber": 35,
            "roleCurrent": "sender",
            "marblesSampled": 100,
            "probRed": 0.5,
            "lambda": 5,
            "drawnRed": 45,
            "reportedRed": 47,
            "inferredRed": 53,
            "playerTrialScore": 0,
            "oppTrialScore": -8,
            "playerTotalScore": -53,
            "oppTotalScore": -156,
            "waitTime": 2251.0621652928703,
            "responseTime": 1680637953980,
            "catchQuestion": "How many <b class=\"r\">red<\/b> marbles did your opponent report drawing? ",
            "catchKey": -1,
            "catchResponse": -1,
            "catchTime": 1680637953980,
            "trialTime": 0
        },
        {
            "exptPart": "trial",
            "trialNumber": 36,
            "roleCurrent": "receiver",
            "marblesSampled": 100,
            "probRed": 0.5,
            "lambda": 5,
            "drawnRed": 15,
            "reportedRed": 9,
            "inferredRed": 15,
            "playerTrialScore": 0,
            "oppTrialScore": 0,
            "playerTotalScore": -53,
            "oppTotalScore": -156,
            "waitTime": 7054.4530328538785,
            "responseTime": 1680637973766,
            "catchQuestion": "How many <b class=\"r\">red<\/b> marbles did your opponent report drawing? ",
            "catchKey": -1,
            "catchResponse": -1,
            "catchTime": 1680637953980,
            "trialTime": 0
        },
        {
            "exptPart": "trial",
            "trialNumber": 37,
            "roleCurrent": "sender",
            "marblesSampled": 100,
            "probRed": 0.5,
            "lambda": 5,
            "drawnRed": 64,
            "reportedRed": 67,
            "inferredRed": 73,
            "playerTrialScore": 0,
            "oppTrialScore": -9,
            "playerTotalScore": -53,
            "oppTotalScore": -165,
            "waitTime": 2386.699523784767,
            "responseTime": 1680637985671,
            "catchQuestion": "How many <b class=\"r\">red<\/b> marbles did your opponent report drawing? ",
            "catchKey": -1,
            "catchResponse": -1,
            "catchTime": 1680637953980,
            "trialTime": 0
        },
        {
            "exptPart": "trial",
            "trialNumber": 38,
            "roleCurrent": "receiver",
            "marblesSampled": 100,
            "probRed": 0.5,
            "lambda": 5,
            "drawnRed": 41,
            "reportedRed": 36,
            "inferredRed": 36,
            "playerTrialScore": -5,
            "oppTrialScore": 5,
            "playerTotalScore": -58,
            "oppTotalScore": -160,
            "waitTime": 6262.318427359583,
            "responseTime": 1680637996447,
            "catchQuestion": "How many <b class=\"r\">red<\/b> marbles did your opponent report drawing? ",
            "catchKey": -1,
            "catchResponse": -1,
            "catchTime": 1680637953980,
            "trialTime": 0
        },
        {
            "exptPart": "trial",
            "trialNumber": 39,
            "roleCurrent": "sender",
            "marblesSampled": 100,
            "probRed": 0.5,
            "lambda": 5,
            "drawnRed": 70,
            "reportedRed": 70,
            "inferredRed": 72,
            "playerTrialScore": 0,
            "oppTrialScore": -2,
            "playerTotalScore": -58,
            "oppTotalScore": -162,
            "waitTime": 2965.5072961403994,
            "responseTime": 1680638007684,
            "catchQuestion": "How many <b class=\"r\">red<\/b> marbles did your opponent report drawing? ",
            "catchKey": -1,
            "catchResponse": -1,
            "catchTime": 1680637953980,
            "trialTime": 0
        },
        {
            "exptPart": "trial",
            "trialNumber": 40,
            "roleCurrent": "receiver",
            "marblesSampled": 100,
            "probRed": 0.5,
            "lambda": 5,
            "drawnRed": 88,
            "reportedRed": 85,
            "inferredRed": 80,
            "playerTrialScore": -8,
            "oppTrialScore": 8,
            "playerTotalScore": -66,
            "oppTotalScore": -154,
            "waitTime": 5984.007667529544,
            "responseTime": 1680638021228,
            "catchQuestion": "How many <b class=\"r\">red<\/b> marbles did your opponent report drawing? ",
            "catchKey": -1,
            "catchResponse": -1,
            "catchTime": 1680638021228,
            "trialTime": 0
        },
        {
            "exptPart": "trial",
            "trialNumber": 41,
            "roleCurrent": "sender",
            "marblesSampled": 100,
            "probRed": 0.5,
            "lambda": 5,
            "drawnRed": 75,
            "reportedRed": 79,
            "inferredRed": 83,
            "playerTrialScore": 0,
            "oppTrialScore": -8,
            "playerTotalScore": -66,
            "oppTotalScore": -162,
            "waitTime": 2553.5494524026635,
            "responseTime": 1680638041222,
            "catchQuestion": "How many <b class=\"r\">red<\/b> marbles did you actually draw (before any changes)? ",
            "catchKey": 75,
            "catchResponse": 75,
            "catchTime": 1680638041222,
            "trialTime": 0
        },
        {
            "exptPart": "trial",
            "trialNumber": 42,
            "roleCurrent": "receiver",
            "marblesSampled": 100,
            "probRed": 0.5,
            "lambda": 5,
            "drawnRed": 41,
            "reportedRed": 36,
            "inferredRed": 41,
            "playerTrialScore": 0,
            "oppTrialScore": 0,
            "playerTotalScore": -66,
            "oppTotalScore": -162,
            "waitTime": 7042.96994172427,
            "responseTime": 1680638058599,
            "catchQuestion": "How many <b class=\"r\">red<\/b> marbles did you actually draw (before any changes)? ",
            "catchKey": -1,
            "catchResponse": -1,
            "catchTime": 1680638041222,
            "trialTime": 0
        },
        {
            "exptPart": "trial",
            "trialNumber": 43,
            "roleCurrent": "sender",
            "marblesSampled": 100,
            "probRed": 0.5,
            "lambda": 5,
            "drawnRed": 39,
            "reportedRed": 39,
            "inferredRed": 42,
            "playerTrialScore": 0,
            "oppTrialScore": -3,
            "playerTotalScore": -66,
            "oppTotalScore": -165,
            "waitTime": 2915.3821476562525,
            "responseTime": 1680638066037,
            "catchQuestion": "How many <b class=\"r\">red<\/b> marbles did you actually draw (before any changes)? ",
            "catchKey": -1,
            "catchResponse": -1,
            "catchTime": 1680638041222,
            "trialTime": 0
        },
        {
            "exptPart": "trial",
            "trialNumber": 44,
            "roleCurrent": "receiver",
            "marblesSampled": 100,
            "probRed": 0.5,
            "lambda": 5,
            "drawnRed": 52,
            "reportedRed": 43,
            "inferredRed": 45,
            "playerTrialScore": -7,
            "oppTrialScore": 7,
            "playerTotalScore": -73,
            "oppTotalScore": -158,
            "waitTime": 6438.591679546156,
            "responseTime": 1680638075530,
            "catchQuestion": "How many <b class=\"r\">red<\/b> marbles did you actually draw (before any changes)? ",
            "catchKey": -1,
            "catchResponse": -1,
            "catchTime": 1680638041222,
            "trialTime": 0
        },
        {
            "exptPart": "trial",
            "trialNumber": 45,
            "roleCurrent": "sender",
            "marblesSampled": 100,
            "probRed": 0.5,
            "lambda": 5,
            "drawnRed": 34,
            "reportedRed": 38,
            "inferredRed": 41,
            "playerTrialScore": 0,
            "oppTrialScore": -7,
            "playerTotalScore": -73,
            "oppTotalScore": -165,
            "waitTime": 2857.7800519548464,
            "responseTime": 1680638086340,
            "catchQuestion": "How many <b class=\"r\">red<\/b> marbles did you actually draw (before any changes)? ",
            "catchKey": -1,
            "catchResponse": -1,
            "catchTime": 1680638086340,
            "trialTime": 0
        },
        {
            "exptPart": "trial",
            "trialNumber": 46,
            "roleCurrent": "receiver",
            "marblesSampled": 100,
            "probRed": 0.5,
            "lambda": 5,
            "drawnRed": 29,
            "reportedRed": 22,
            "inferredRed": 22,
            "playerTrialScore": -7,
            "oppTrialScore": 7,
            "playerTotalScore": -80,
            "oppTotalScore": -158,
            "waitTime": 7040.885442140012,
            "responseTime": 1680638104571,
            "catchQuestion": "How many <b class=\"r\">red<\/b> marbles did you actually draw (before any changes)? ",
            "catchKey": -1,
            "catchResponse": -1,
            "catchTime": 1680638086340,
            "trialTime": 0
        },
        {
            "exptPart": "trial",
            "trialNumber": 47,
            "roleCurrent": "sender",
            "marblesSampled": 100,
            "probRed": 0.5,
            "lambda": 5,
            "drawnRed": 54,
            "reportedRed": 48,
            "inferredRed": 51,
            "playerTrialScore": 3,
            "oppTrialScore": -3,
            "playerTotalScore": -77,
            "oppTotalScore": -161,
            "waitTime": 3021.83962400046,
            "responseTime": 1680638136407,
            "catchQuestion": "How many <b class=\"r\">red<\/b> marbles did you actually draw (before any changes)? ",
            "catchKey": -1,
            "catchResponse": -1,
            "catchTime": 1680638086340,
            "trialTime": 0
        },
        {
            "exptPart": "trial",
            "trialNumber": 48,
            "roleCurrent": "receiver",
            "marblesSampled": 100,
            "probRed": 0.5,
            "lambda": 5,
            "drawnRed": 12,
            "reportedRed": 7,
            "inferredRed": 15,
            "playerTrialScore": -3,
            "oppTrialScore": 0,
            "playerTotalScore": -80,
            "oppTotalScore": -161,
            "waitTime": 6710.784981575338,
            "responseTime": 1680638148992,
            "catchQuestion": "How many <b class=\"r\">red<\/b> marbles did you actually draw (before any changes)? ",
            "catchKey": -1,
            "catchResponse": -1,
            "catchTime": 1680638086340,
            "trialTime": 0
        },
        {
            "exptPart": "trial",
            "trialNumber": 49,
            "roleCurrent": "sender",
            "marblesSampled": 100,
            "probRed": 0.5,
            "lambda": 5,
            "drawnRed": 49,
            "reportedRed": 5,
            "inferredRed": 11,
            "playerTrialScore": 38,
            "oppTrialScore": -38,
            "playerTotalScore": -42,
            "oppTotalScore": -199,
            "waitTime": 2382.3831294682614,
            "responseTime": 1680638191437,
            "catchQuestion": "How many <b class=\"r\">red<\/b> marbles did you actually draw (before any changes)? ",
            "catchKey": -1,
            "catchResponse": -1,
            "catchTime": 1680638086340,
            "trialTime": 0
        },
        {
            "exptPart": "trial",
            "trialNumber": 50,
            "roleCurrent": "receiver",
            "marblesSampled": 100,
            "probRed": 0.5,
            "lambda": 5,
            "drawnRed": 20,
            "reportedRed": 14,
            "inferredRed": 24,
            "playerTrialScore": -4,
            "oppTrialScore": 0,
            "playerTotalScore": -46,
            "oppTotalScore": -199,
            "waitTime": 6010.13054133199,
            "responseTime": 1680638203146,
            "catchQuestion": "How many <b class=\"r\">red<\/b> marbles did you actually draw (before any changes)? ",
            "catchKey": -1,
            "catchResponse": -1,
            "catchTime": 1680638203146,
            "trialTime": 0
        },
        {
            "exptPart": "trial",
            "trialNumber": 51,
            "roleCurrent": "sender",
            "marblesSampled": 100,
            "probRed": 0.5,
            "lambda": 5,
            "drawnRed": 24,
            "reportedRed": 20,
            "inferredRed": 24,
            "playerTrialScore": 0,
            "oppTrialScore": 0,
            "playerTotalScore": -46,
            "oppTotalScore": -199,
            "waitTime": 3030.6876627796028,
            "responseTime": 1680638224542,
            "catchQuestion": "How many <b class=\"r\">red<\/b> marbles did you actually draw (before any changes)? ",
            "catchKey": -1,
            "catchResponse": -1,
            "catchTime": 1680638203146,
            "trialTime": 0
        },
        {
            "exptPart": "trial",
            "trialNumber": 52,
            "roleCurrent": "receiver",
            "marblesSampled": 100,
            "probRed": 0.5,
            "lambda": 5,
            "drawnRed": 58,
            "reportedRed": 54,
            "inferredRed": 50,
            "playerTrialScore": -8,
            "oppTrialScore": 8,
            "playerTotalScore": -54,
            "oppTotalScore": -191,
            "waitTime": 5168.427643070477,
            "responseTime": 1680638234524,
            "catchQuestion": "How many <b class=\"r\">red<\/b> marbles did you actually draw (before any changes)? ",
            "catchKey": -1,
            "catchResponse": -1,
            "catchTime": 1680638203146,
            "trialTime": 0
        },
        {
            "exptPart": "trial",
            "trialNumber": 53,
            "roleCurrent": "sender",
            "marblesSampled": 100,
            "probRed": 0.5,
            "lambda": 5,
            "drawnRed": 26,
            "reportedRed": 24,
            "inferredRed": 28,
            "playerTrialScore": 0,
            "oppTrialScore": -2,
            "playerTotalScore": -54,
            "oppTotalScore": -193,
            "waitTime": 2766.4509802063512,
            "responseTime": 1680638251726,
            "catchQuestion": "How many <b class=\"r\">red<\/b> marbles did you actually draw (before any changes)? ",
            "catchKey": 26,
            "catchResponse": 26,
            "catchTime": 1680638251726,
            "trialTime": 0
        },
        {
            "exptPart": "trial",
            "trialNumber": 54,
            "roleCurrent": "receiver",
            "marblesSampled": 100,
            "probRed": 0.5,
            "lambda": 5,
            "drawnRed": 65,
            "reportedRed": 60,
            "inferredRed": 60,
            "playerTrialScore": -5,
            "oppTrialScore": 5,
            "playerTotalScore": -59,
            "oppTotalScore": -188,
            "waitTime": 6549.446986797946,
            "responseTime": 1680638271295,
            "catchQuestion": "How many <b class=\"r\">red<\/b> marbles did you actually draw (before any changes)? ",
            "catchKey": -1,
            "catchResponse": -1,
            "catchTime": 1680638251726,
            "trialTime": 0
        },
        {
            "exptPart": "trial",
            "trialNumber": 55,
            "roleCurrent": "sender",
            "marblesSampled": 100,
            "probRed": 0.5,
            "lambda": 5,
            "drawnRed": 45,
            "reportedRed": 22,
            "inferredRed": 28,
            "playerTrialScore": 17,
            "oppTrialScore": -17,
            "playerTotalScore": -42,
            "oppTotalScore": -205,
            "waitTime": 2167.6337665362453,
            "responseTime": 1680638303673,
            "catchQuestion": "How many <b class=\"r\">red<\/b> marbles did you actually draw (before any changes)? ",
            "catchKey": -1,
            "catchResponse": -1,
            "catchTime": 1680638303673,
            "trialTime": 0
        },
        {
            "exptPart": "trial",
            "trialNumber": 56,
            "roleCurrent": "receiver",
            "marblesSampled": 100,
            "probRed": 0.5,
            "lambda": 5,
            "drawnRed": 23,
            "reportedRed": 17,
            "inferredRed": 21,
            "playerTrialScore": -2,
            "oppTrialScore": 2,
            "playerTotalScore": -44,
            "oppTotalScore": -203,
            "waitTime": 5865.027205027226,
            "responseTime": 1680638315719,
            "catchQuestion": "How many <b class=\"r\">red<\/b> marbles did you actually draw (before any changes)? ",
            "catchKey": -1,
            "catchResponse": -1,
            "catchTime": 1680638303673,
            "trialTime": 0
        },
        {
            "exptPart": "trial",
            "trialNumber": 57,
            "roleCurrent": "sender",
            "marblesSampled": 100,
            "probRed": 0.5,
            "lambda": 5,
            "drawnRed": 55,
            "reportedRed": 18,
            "inferredRed": 21,
            "playerTrialScore": 34,
            "oppTrialScore": -34,
            "playerTotalScore": -10,
            "oppTotalScore": -237,
            "waitTime": 3075.827400744005,
            "responseTime": 1680638351822,
            "catchQuestion": "How many <b class=\"r\">red<\/b> marbles did you actually draw (before any changes)? ",
            "catchKey": -1,
            "catchResponse": -1,
            "catchTime": 1680638303673,
            "trialTime": 0
        },
        {
            "exptPart": "trial",
            "trialNumber": 58,
            "roleCurrent": "receiver",
            "marblesSampled": 100,
            "probRed": 0.5,
            "lambda": 5,
            "drawnRed": 69,
            "reportedRed": 65,
            "inferredRed": 60,
            "playerTrialScore": -9,
            "oppTrialScore": 9,
            "playerTotalScore": -19,
            "oppTotalScore": -228,
            "waitTime": 6326.594897678296,
            "responseTime": 1680638367861,
            "catchQuestion": "How many <b class=\"r\">red<\/b> marbles did you actually draw (before any changes)? ",
            "catchKey": -1,
            "catchResponse": -1,
            "catchTime": 1680638303673,
            "trialTime": 0
        },
        {
            "exptPart": "trial",
            "trialNumber": 59,
            "roleCurrent": "sender",
            "marblesSampled": 100,
            "probRed": 0.5,
            "lambda": 5,
            "drawnRed": 13,
            "reportedRed": 13,
            "inferredRed": 18,
            "playerTrialScore": 0,
            "oppTrialScore": -5,
            "playerTotalScore": -19,
            "oppTotalScore": -233,
            "waitTime": 2075.591819738045,
            "responseTime": 1680638382485,
            "catchQuestion": "How many <b class=\"r\">red<\/b> marbles did you actually draw (before any changes)? ",
            "catchKey": -1,
            "catchResponse": -1,
            "catchTime": 1680638303673,
            "trialTime": 0
        },
        {
            "exptPart": "trial",
            "trialNumber": 60,
            "roleCurrent": "receiver",
            "marblesSampled": 100,
            "probRed": 0.5,
            "lambda": 5,
            "drawnRed": 81,
            "reportedRed": 76,
            "inferredRed": 76,
            "playerTrialScore": -5,
            "oppTrialScore": 5,
            "playerTotalScore": -24,
            "oppTotalScore": -228,
            "waitTime": 6739.257201860103,
            "responseTime": 1680638393491,
            "catchQuestion": "How many <b class=\"r\">red<\/b> marbles did you actually draw (before any changes)? ",
            "catchKey": -1,
            "catchResponse": -1,
            "catchTime": 1680638393492,
            "trialTime": 0
        },
        {
            "exptPart": "trial",
            "trialNumber": 61,
            "roleCurrent": "sender",
            "marblesSampled": 100,
            "probRed": 0.5,
            "lambda": 5,
            "drawnRed": 69,
            "reportedRed": 16,
            "inferredRed": 19,
            "playerTrialScore": 50,
            "oppTrialScore": -50,
            "playerTotalScore": 26,
            "oppTotalScore": -278,
            "waitTime": 2423.604273949538,
            "responseTime": 1680638428258,
            "catchQuestion": "How many <b class=\"r\">red<\/b> marbles did you actually draw (before any changes)? ",
            "catchKey": -1,
            "catchResponse": -1,
            "catchTime": 1680638393492,
            "trialTime": 0
        },
        {
            "exptPart": "trial",
            "trialNumber": 62,
            "roleCurrent": "receiver",
            "marblesSampled": 100,
            "probRed": 0.5,
            "lambda": 5,
            "drawnRed": 44,
            "reportedRed": 38,
            "inferredRed": 41,
            "playerTrialScore": -3,
            "oppTrialScore": 3,
            "playerTotalScore": 23,
            "oppTotalScore": -275,
            "waitTime": 5954.013232304351,
            "responseTime": 1680638442819,
            "catchQuestion": "How many <b class=\"r\">red<\/b> marbles did your opponent report drawing? ",
            "catchKey": 38,
            "catchResponse": 38,
            "catchTime": 1680638442819,
            "trialTime": 0
        },
        {
            "exptPart": "trial",
            "trialNumber": 63,
            "roleCurrent": "sender",
            "marblesSampled": 100,
            "probRed": 0.5,
            "lambda": 5,
            "drawnRed": 58,
            "reportedRed": 22,
            "inferredRed": 27,
            "playerTrialScore": 31,
            "oppTrialScore": -31,
            "playerTotalScore": 54,
            "oppTotalScore": -306,
            "waitTime": 2296.0192858934,
            "responseTime": 1680638467900,
            "catchQuestion": "How many <b class=\"r\">red<\/b> marbles did your opponent report drawing? ",
            "catchKey": -1,
            "catchResponse": -1,
            "catchTime": 1680638442819,
            "trialTime": 0
        },
        {
            "exptPart": "trial",
            "trialNumber": 64,
            "roleCurrent": "receiver",
            "marblesSampled": 100,
            "probRed": 0.5,
            "lambda": 5,
            "drawnRed": 37,
            "reportedRed": 26,
            "inferredRed": 32,
            "playerTrialScore": -5,
            "oppTrialScore": 5,
            "playerTotalScore": 49,
            "oppTotalScore": -301,
            "waitTime": 5324.692193294319,
            "responseTime": 1680638476458,
            "catchQuestion": "How many <b class=\"r\">red<\/b> marbles did your opponent report drawing? ",
            "catchKey": -1,
            "catchResponse": -1,
            "catchTime": 1680638442819,
            "trialTime": 0
        },
        {
            "exptPart": "trial",
            "trialNumber": 65,
            "roleCurrent": "sender",
            "marblesSampled": 100,
            "probRed": 0.5,
            "lambda": 5,
            "drawnRed": 69,
            "reportedRed": 29,
            "inferredRed": 33,
            "playerTrialScore": 36,
            "oppTrialScore": -36,
            "playerTotalScore": 85,
            "oppTotalScore": -337,
            "waitTime": 2148.944836168417,
            "responseTime": 1680638501680,
            "catchQuestion": "How many <b class=\"r\">red<\/b> marbles did your opponent report drawing? ",
            "catchKey": -1,
            "catchResponse": -1,
            "catchTime": 1680638501680,
            "trialTime": 0
        },
        {
            "exptPart": "trial",
            "trialNumber": 66,
            "roleCurrent": "receiver",
            "marblesSampled": 100,
            "probRed": 0.5,
            "lambda": 5,
            "drawnRed": 33,
            "reportedRed": 24,
            "inferredRed": 28,
            "playerTrialScore": -5,
            "oppTrialScore": 5,
            "playerTotalScore": 80,
            "oppTotalScore": -332,
            "waitTime": 5566.613476789611,
            "responseTime": 1680638518382,
            "catchQuestion": "How many <b class=\"r\">red<\/b> marbles did your opponent report drawing? ",
            "catchKey": -1,
            "catchResponse": -1,
            "catchTime": 1680638501680,
            "trialTime": 0
        },
        {
            "exptPart": "trial",
            "trialNumber": 67,
            "roleCurrent": "sender",
            "marblesSampled": 100,
            "probRed": 0.5,
            "lambda": 5,
            "drawnRed": 71,
            "reportedRed": 18,
            "inferredRed": 21,
            "playerTrialScore": 50,
            "oppTrialScore": -50,
            "playerTotalScore": 130,
            "oppTotalScore": -382,
            "waitTime": 3043.864169396661,
            "responseTime": 1680638542722,
            "catchQuestion": "How many <b class=\"r\">red<\/b> marbles did your opponent report drawing? ",
            "catchKey": -1,
            "catchResponse": -1,
            "catchTime": 1680638501680,
            "trialTime": 0
        },
        {
            "exptPart": "trial",
            "trialNumber": 68,
            "roleCurrent": "receiver",
            "marblesSampled": 100,
            "probRed": 0.5,
            "lambda": 5,
            "drawnRed": 49,
            "reportedRed": 42,
            "inferredRed": 45,
            "playerTrialScore": -4,
            "oppTrialScore": 4,
            "playerTotalScore": 126,
            "oppTotalScore": -378,
            "waitTime": 5147.207466662543,
            "responseTime": 1680638553052,
            "catchQuestion": "How many <b class=\"r\">red<\/b> marbles did your opponent report drawing? ",
            "catchKey": -1,
            "catchResponse": -1,
            "catchTime": 1680638501680,
            "trialTime": 0
        },
        {
            "exptPart": "trial",
            "trialNumber": 69,
            "roleCurrent": "sender",
            "marblesSampled": 100,
            "probRed": 0.5,
            "lambda": 5,
            "drawnRed": 61,
            "reportedRed": 28,
            "inferredRed": 33,
            "playerTrialScore": 28,
            "oppTrialScore": -28,
            "playerTotalScore": 154,
            "oppTotalScore": -406,
            "waitTime": 2444.2312760548502,
            "responseTime": 1680638571988,
            "catchQuestion": "How many <b class=\"r\">red<\/b> marbles did your opponent report drawing? ",
            "catchKey": -1,
            "catchResponse": -1,
            "catchTime": 1680638501680,
            "trialTime": 0
        },
        {
            "exptPart": "trial",
            "trialNumber": 70,
            "roleCurrent": "receiver",
            "marblesSampled": 100,
            "probRed": 0.5,
            "lambda": 5,
            "drawnRed": 41,
            "reportedRed": 37,
            "inferredRed": 41,
            "playerTrialScore": 0,
            "oppTrialScore": 0,
            "playerTotalScore": 154,
            "oppTotalScore": -406,
            "waitTime": 7060.922291042084,
            "responseTime": 1680638583068,
            "catchQuestion": "How many <b class=\"r\">red<\/b> marbles did your opponent report drawing? ",
            "catchKey": -1,
            "catchResponse": -1,
            "catchTime": 1680638583068,
            "trialTime": 0
        },
        {
            "exptPart": "trial",
            "trialNumber": 71,
            "roleCurrent": "sender",
            "marblesSampled": 100,
            "probRed": 0.5,
            "lambda": 5,
            "drawnRed": 62,
            "reportedRed": 18,
            "inferredRed": 23,
            "playerTrialScore": 39,
            "oppTrialScore": -39,
            "playerTotalScore": 193,
            "oppTotalScore": -445,
            "waitTime": 3063.2461979358336,
            "responseTime": 1680638607751,
            "catchQuestion": "How many <b class=\"r\">red<\/b> marbles did your opponent report drawing? ",
            "catchKey": -1,
            "catchResponse": -1,
            "catchTime": 1680638583068,
            "trialTime": 0
        },
        {
            "exptPart": "trial",
            "trialNumber": 72,
            "roleCurrent": "receiver",
            "marblesSampled": 100,
            "probRed": 0.5,
            "lambda": 5,
            "drawnRed": 50,
            "reportedRed": 45,
            "inferredRed": 48,
            "playerTrialScore": -2,
            "oppTrialScore": 2,
            "playerTotalScore": 191,
            "oppTotalScore": -443,
            "waitTime": 5812.2620873469905,
            "responseTime": 1680638619311,
            "catchQuestion": "How many <b class=\"r\">red<\/b> marbles did your opponent report drawing? ",
            "catchKey": -1,
            "catchResponse": -1,
            "catchTime": 1680638583068,
            "trialTime": 0
        },
        {
            "exptPart": "trial",
            "trialNumber": 73,
            "roleCurrent": "sender",
            "marblesSampled": 100,
            "probRed": 0.5,
            "lambda": 5,
            "drawnRed": 12,
            "reportedRed": 19,
            "inferredRed": 29,
            "playerTrialScore": 0,
            "oppTrialScore": -17,
            "playerTotalScore": 191,
            "oppTotalScore": -460,
            "waitTime": 2489.0470597071644,
            "responseTime": 1680638636994,
            "catchQuestion": "How many <b class=\"r\">red<\/b> marbles did your opponent report drawing? ",
            "catchKey": -1,
            "catchResponse": -1,
            "catchTime": 1680638583068,
            "trialTime": 0
        },
        {
            "exptPart": "trial",
            "trialNumber": 74,
            "roleCurrent": "receiver",
            "marblesSampled": 100,
            "probRed": 0.5,
            "lambda": 5,
            "drawnRed": 73,
            "reportedRed": 66,
            "inferredRed": 68,
            "playerTrialScore": -5,
            "oppTrialScore": 5,
            "playerTotalScore": 186,
            "oppTotalScore": -455,
            "waitTime": 6090.193641895194,
            "responseTime": 1680638648295,
            "catchQuestion": "How many <b class=\"r\">red<\/b> marbles did your opponent report drawing? ",
            "catchKey": -1,
            "catchResponse": -1,
            "catchTime": 1680638583068,
            "trialTime": 0
        },
        {
            "exptPart": "trial",
            "trialNumber": 75,
            "roleCurrent": "sender",
            "marblesSampled": 100,
            "probRed": 0.5,
            "lambda": 5,
            "drawnRed": 50,
            "reportedRed": 23,
            "inferredRed": 25,
            "playerTrialScore": 25,
            "oppTrialScore": -25,
            "playerTotalScore": 211,
            "oppTotalScore": -480,
            "waitTime": 2813.6780213259717,
            "responseTime": 1680638670409,
            "catchQuestion": "How many <b class=\"r\">red<\/b> marbles did your opponent report drawing? ",
            "catchKey": -1,
            "catchResponse": -1,
            "catchTime": 1680638670409,
            "trialTime": 0
        },
        {
            "exptPart": "trial",
            "trialNumber": 76,
            "roleCurrent": "receiver",
            "marblesSampled": 100,
            "probRed": 0.5,
            "lambda": 5,
            "drawnRed": 40,
            "reportedRed": 32,
            "inferredRed": 36,
            "playerTrialScore": -4,
            "oppTrialScore": 4,
            "playerTotalScore": 207,
            "oppTotalScore": -476,
            "waitTime": 6358.726649771677,
            "responseTime": 1680638686306,
            "catchQuestion": "How many <b class=\"r\">red<\/b> marbles did your opponent report drawing? ",
            "catchKey": 32,
            "catchResponse": 32,
            "catchTime": 1680638686306,
            "trialTime": 0
        },
        {
            "exptPart": "trial",
            "trialNumber": 77,
            "roleCurrent": "sender",
            "marblesSampled": 100,
            "probRed": 0.5,
            "lambda": 5,
            "drawnRed": 33,
            "reportedRed": 8,
            "inferredRed": 11,
            "playerTrialScore": 22,
            "oppTrialScore": -22,
            "playerTotalScore": 229,
            "oppTotalScore": -498,
            "waitTime": 2246.604346005205,
            "responseTime": 1680638709685,
            "catchQuestion": "How many <b class=\"r\">red<\/b> marbles did you actually draw (before any changes)? ",
            "catchKey": 33,
            "catchResponse": 33,
            "catchTime": 1680638709685,
            "trialTime": 0
        },
        {
            "exptPart": "trial",
            "trialNumber": 78,
            "roleCurrent": "receiver",
            "marblesSampled": 100,
            "probRed": 0.5,
            "lambda": 5,
            "drawnRed": 69,
            "reportedRed": 64,
            "inferredRed": 65,
            "playerTrialScore": -4,
            "oppTrialScore": 4,
            "playerTotalScore": 225,
            "oppTotalScore": -494,
            "waitTime": 6181.345427546281,
            "responseTime": 1680638728528,
            "catchQuestion": "How many <b class=\"r\">red<\/b> marbles did you actually draw (before any changes)? ",
            "catchKey": -1,
            "catchResponse": -1,
            "catchTime": 1680638709685,
            "trialTime": 0
        },
        {
            "exptPart": "trial",
            "trialNumber": 79,
            "roleCurrent": "sender",
            "marblesSampled": 100,
            "probRed": 0.5,
            "lambda": 5,
            "drawnRed": 33,
            "reportedRed": 11,
            "inferredRed": 15,
            "playerTrialScore": 18,
            "oppTrialScore": -18,
            "playerTotalScore": 243,
            "oppTotalScore": -512,
            "waitTime": 2723.1020476142908,
            "responseTime": 1680638749533,
            "catchQuestion": "How many <b class=\"r\">red<\/b> marbles did you actually draw (before any changes)? ",
            "catchKey": -1,
            "catchResponse": -1,
            "catchTime": 1680638709685,
            "trialTime": 0
        },
        {
            "exptPart": "trial",
            "trialNumber": 80,
            "roleCurrent": "receiver",
            "marblesSampled": 100,
            "probRed": 0.5,
            "lambda": 5,
            "drawnRed": 20,
            "reportedRed": 15,
            "inferredRed": 25,
            "playerTrialScore": -5,
            "oppTrialScore": 0,
            "playerTotalScore": 238,
            "oppTotalScore": -512,
            "waitTime": 5236.152126311241,
            "responseTime": 1680638759461,
            "catchQuestion": "How many <b class=\"r\">red<\/b> marbles did you actually draw (before any changes)? ",
            "catchKey": -1,
            "catchResponse": -1,
            "catchTime": 1680638759462,
            "trialTime": 0
        },
        {
            "exptPart": "trial",
            "trialNumber": 81,
            "roleCurrent": "sender",
            "marblesSampled": 100,
            "probRed": 0.5,
            "lambda": 5,
            "drawnRed": 62,
            "reportedRed": 23,
            "inferredRed": 28,
            "playerTrialScore": 34,
            "oppTrialScore": -34,
            "playerTotalScore": 272,
            "oppTotalScore": -546,
            "waitTime": 3058.1732847365556,
            "responseTime": 1680638782429,
            "catchQuestion": "How many <b class=\"r\">red<\/b> marbles did you actually draw (before any changes)? ",
            "catchKey": -1,
            "catchResponse": -1,
            "catchTime": 1680638759462,
            "trialTime": 0
        },
        {
            "exptPart": "trial",
            "trialNumber": 82,
            "roleCurrent": "receiver",
            "marblesSampled": 100,
            "probRed": 0.5,
            "lambda": 5,
            "drawnRed": 69,
            "reportedRed": 68,
            "inferredRed": 68,
            "playerTrialScore": -1,
            "oppTrialScore": 1,
            "playerTotalScore": 271,
            "oppTotalScore": -545,
            "waitTime": 6311.915871479866,
            "responseTime": 1680638797661,
            "catchQuestion": "How many <b class=\"r\">red<\/b> marbles did you actually draw (before any changes)? ",
            "catchKey": -1,
            "catchResponse": -1,
            "catchTime": 1680638759462,
            "trialTime": 0
        },
        {
            "exptPart": "trial",
            "trialNumber": 83,
            "roleCurrent": "sender",
            "marblesSampled": 100,
            "probRed": 0.5,
            "lambda": 5,
            "drawnRed": 94,
            "reportedRed": 12,
            "inferredRed": 18,
            "playerTrialScore": 76,
            "oppTrialScore": -76,
            "playerTotalScore": 347,
            "oppTotalScore": -621,
            "waitTime": 2096.153376567753,
            "responseTime": 1680638835679,
            "catchQuestion": "How many <b class=\"r\">red<\/b> marbles did you actually draw (before any changes)? ",
            "catchKey": -1,
            "catchResponse": -1,
            "catchTime": 1680638759462,
            "trialTime": 0
        },
        {
            "exptPart": "trial",
            "trialNumber": 84,
            "roleCurrent": "receiver",
            "marblesSampled": 100,
            "probRed": 0.5,
            "lambda": 5,
            "drawnRed": 41,
            "reportedRed": 39,
            "inferredRed": 45,
            "playerTrialScore": -4,
            "oppTrialScore": 0,
            "playerTotalScore": 343,
            "oppTotalScore": -621,
            "waitTime": 5828.696754445965,
            "responseTime": 1680638845442,
            "catchQuestion": "How many <b class=\"r\">red<\/b> marbles did you actually draw (before any changes)? ",
            "catchKey": -1,
            "catchResponse": -1,
            "catchTime": 1680638759462,
            "trialTime": 0
        },
        {
            "exptPart": "trial",
            "trialNumber": 85,
            "roleCurrent": "sender",
            "marblesSampled": 100,
            "probRed": 0.5,
            "lambda": 5,
            "drawnRed": 14,
            "reportedRed": 19,
            "inferredRed": 28,
            "playerTrialScore": 0,
            "oppTrialScore": -14,
            "playerTotalScore": 343,
            "oppTotalScore": -635,
            "waitTime": 2605.555855581187,
            "responseTime": 1680638858761,
            "catchQuestion": "How many <b class=\"r\">red<\/b> marbles did you actually draw (before any changes)? ",
            "catchKey": -1,
            "catchResponse": -1,
            "catchTime": 1680638858761,
            "trialTime": 0
        },
        {
            "exptPart": "trial",
            "trialNumber": 86,
            "roleCurrent": "receiver",
            "marblesSampled": 100,
            "probRed": 0.5,
            "lambda": 5,
            "drawnRed": 49,
            "reportedRed": 46,
            "inferredRed": 50,
            "playerTrialScore": -1,
            "oppTrialScore": 0,
            "playerTotalScore": 342,
            "oppTotalScore": -635,
            "waitTime": 5707.094771505551,
            "responseTime": 1680638872629,
            "catchQuestion": "How many <b class=\"r\">red<\/b> marbles did you actually draw (before any changes)? ",
            "catchKey": -1,
            "catchResponse": -1,
            "catchTime": 1680638858761,
            "trialTime": 0
        },
        {
            "exptPart": "trial",
            "trialNumber": 87,
            "roleCurrent": "sender",
            "marblesSampled": 100,
            "probRed": 0.5,
            "lambda": 5,
            "drawnRed": 38,
            "reportedRed": 17,
            "inferredRed": 23,
            "playerTrialScore": 15,
            "oppTrialScore": -15,
            "playerTotalScore": 357,
            "oppTotalScore": -650,
            "waitTime": 3064.745292828605,
            "responseTime": 1680638890072,
            "catchQuestion": "How many <b class=\"r\">red<\/b> marbles did you actually draw (before any changes)? ",
            "catchKey": -1,
            "catchResponse": -1,
            "catchTime": 1680638858761,
            "trialTime": 0
        },
        {
            "exptPart": "trial",
            "trialNumber": 88,
            "roleCurrent": "receiver",
            "marblesSampled": 100,
            "probRed": 0.5,
            "lambda": 5,
            "drawnRed": 41,
            "reportedRed": 37,
            "inferredRed": 39,
            "playerTrialScore": -2,
            "oppTrialScore": 2,
            "playerTotalScore": 355,
            "oppTotalScore": -648,
            "waitTime": 5807.536727336703,
            "responseTime": 1680638901872,
            "catchQuestion": "How many <b class=\"r\">red<\/b> marbles did you actually draw (before any changes)? ",
            "catchKey": -1,
            "catchResponse": -1,
            "catchTime": 1680638858761,
            "trialTime": 0
        },
        {
            "exptPart": "trial",
            "trialNumber": 89,
            "roleCurrent": "sender",
            "marblesSampled": 100,
            "probRed": 0.5,
            "lambda": 5,
            "drawnRed": 31,
            "reportedRed": 9,
            "inferredRed": 13,
            "playerTrialScore": 18,
            "oppTrialScore": -18,
            "playerTotalScore": 373,
            "oppTotalScore": -666,
            "waitTime": 2308.1778070992964,
            "responseTime": 1680638918372,
            "catchQuestion": "How many <b class=\"r\">red<\/b> marbles did you actually draw (before any changes)? ",
            "catchKey": -1,
            "catchResponse": -1,
            "catchTime": 1680638858761,
            "trialTime": 0
        },
        {
            "exptPart": "trial",
            "trialNumber": 90,
            "roleCurrent": "receiver",
            "marblesSampled": 100,
            "probRed": 0.5,
            "lambda": 5,
            "drawnRed": 20,
            "reportedRed": 13,
            "inferredRed": 20,
            "playerTrialScore": 0,
            "oppTrialScore": 0,
            "playerTotalScore": 373,
            "oppTotalScore": -666,
            "waitTime": 6636.984214623832,
            "responseTime": 1680638928991,
            "catchQuestion": "How many <b class=\"r\">red<\/b> marbles did you actually draw (before any changes)? ",
            "catchKey": -1,
            "catchResponse": -1,
            "catchTime": 1680638928991,
            "trialTime": 0
        },
        {
            "exptPart": "trial",
            "trialNumber": 91,
            "roleCurrent": "sender",
            "marblesSampled": 100,
            "probRed": 0.5,
            "lambda": 5,
            "drawnRed": 25,
            "reportedRed": 2,
            "inferredRed": 7,
            "playerTrialScore": 18,
            "oppTrialScore": -18,
            "playerTotalScore": 391,
            "oppTotalScore": -684,
            "waitTime": 2866.9366670882946,
            "responseTime": 1680638951627,
            "catchQuestion": "How many <b class=\"r\">red<\/b> marbles did you actually draw (before any changes)? ",
            "catchKey": -1,
            "catchResponse": -1,
            "catchTime": 1680638928991,
            "trialTime": 0
        },
        {
            "exptPart": "trial",
            "trialNumber": 92,
            "roleCurrent": "receiver",
            "marblesSampled": 100,
            "probRed": 0.5,
            "lambda": 5,
            "drawnRed": 23,
            "reportedRed": 21,
            "inferredRed": 21,
            "playerTrialScore": -2,
            "oppTrialScore": 2,
            "playerTotalScore": 389,
            "oppTotalScore": -682,
            "waitTime": 5698.057398574219,
            "responseTime": 1680638959999,
            "catchQuestion": "How many <b class=\"r\">red<\/b> marbles did you actually draw (before any changes)? ",
            "catchKey": -1,
            "catchResponse": -1,
            "catchTime": 1680638928991,
            "trialTime": 0
        },
        {
            "exptPart": "trial",
            "trialNumber": 93,
            "roleCurrent": "sender",
            "marblesSampled": 100,
            "probRed": 0.5,
            "lambda": 5,
            "drawnRed": 37,
            "reportedRed": 18,
            "inferredRed": 24,
            "playerTrialScore": 13,
            "oppTrialScore": -13,
            "playerTotalScore": 402,
            "oppTotalScore": -695,
            "waitTime": 2270.457446738633,
            "responseTime": 1680638977094,
            "catchQuestion": "How many <b class=\"r\">red<\/b> marbles did you actually draw (before any changes)? ",
            "catchKey": -1,
            "catchResponse": -1,
            "catchTime": 1680638928991,
            "trialTime": 0
        },
        {
            "exptPart": "trial",
            "trialNumber": 94,
            "roleCurrent": "receiver",
            "marblesSampled": 100,
            "probRed": 0.5,
            "lambda": 5,
            "drawnRed": 77,
            "reportedRed": 68,
            "inferredRed": 66,
            "playerTrialScore": -11,
            "oppTrialScore": 11,
            "playerTotalScore": 391,
            "oppTotalScore": -684,
            "waitTime": 6912.281416842788,
            "responseTime": 1680638990580,
            "catchQuestion": "How many <b class=\"r\">red<\/b> marbles did you actually draw (before any changes)? ",
            "catchKey": -1,
            "catchResponse": -1,
            "catchTime": 1680638928991,
            "trialTime": 0
        },
        {
            "exptPart": "trial",
            "trialNumber": 95,
            "roleCurrent": "sender",
            "marblesSampled": 100,
            "probRed": 0.5,
            "lambda": 5,
            "drawnRed": 90,
            "reportedRed": 9,
            "inferredRed": 13,
            "playerTrialScore": 77,
            "oppTrialScore": -77,
            "playerTotalScore": 468,
            "oppTotalScore": -761,
            "waitTime": 3158.174035648821,
            "responseTime": 1680639022733,
            "catchQuestion": "How many <b class=\"r\">red<\/b> marbles did you actually draw (before any changes)? ",
            "catchKey": -1,
            "catchResponse": -1,
            "catchTime": 1680639022733,
            "trialTime": 0
        },
        {
            "exptPart": "trial",
            "trialNumber": 96,
            "roleCurrent": "receiver",
            "marblesSampled": 100,
            "probRed": 0.5,
            "lambda": 5,
            "drawnRed": 71,
            "reportedRed": 63,
            "inferredRed": 65,
            "playerTrialScore": -6,
            "oppTrialScore": 6,
            "playerTotalScore": 462,
            "oppTotalScore": -755,
            "waitTime": 6247.464212994684,
            "responseTime": 1680639037732,
            "catchQuestion": "How many <b class=\"r\">red<\/b> marbles did you actually draw (before any changes)? ",
            "catchKey": -1,
            "catchResponse": -1,
            "catchTime": 1680639022733,
            "trialTime": 0
        },
        {
            "exptPart": "trial",
            "trialNumber": 97,
            "roleCurrent": "sender",
            "marblesSampled": 100,
            "probRed": 0.5,
            "lambda": 5,
            "drawnRed": 45,
            "reportedRed": 22,
            "inferredRed": 24,
            "playerTrialScore": 21,
            "oppTrialScore": -21,
            "playerTotalScore": 483,
            "oppTotalScore": -776,
            "waitTime": 3058.8218773336575,
            "responseTime": 1680639054044,
            "catchQuestion": "How many <b class=\"r\">red<\/b> marbles did you actually draw (before any changes)? ",
            "catchKey": -1,
            "catchResponse": -1,
            "catchTime": 1680639022733,
            "trialTime": 0
        },
        {
            "exptPart": "trial",
            "trialNumber": 98,
            "roleCurrent": "receiver",
            "marblesSampled": 100,
            "probRed": 0.5,
            "lambda": 5,
            "drawnRed": 80,
            "reportedRed": 74,
            "inferredRed": 75,
            "playerTrialScore": -5,
            "oppTrialScore": 5,
            "playerTotalScore": 478,
            "oppTotalScore": -771,
            "waitTime": 6758.7568623446,
            "responseTime": 1680639064371,
            "catchQuestion": "How many <b class=\"r\">red<\/b> marbles did you actually draw (before any changes)? ",
            "catchKey": -1,
            "catchResponse": -1,
            "catchTime": 1680639022733,
            "trialTime": 0
        },
        {
            "exptPart": "trial",
            "trialNumber": 99,
            "roleCurrent": "sender",
            "marblesSampled": 100,
            "probRed": 0.5,
            "lambda": 5,
            "drawnRed": 32,
            "reportedRed": 18,
            "inferredRed": 22,
            "playerTrialScore": 10,
            "oppTrialScore": -10,
            "playerTotalScore": 488,
            "oppTotalScore": -781,
            "waitTime": 2749.114597045888,
            "responseTime": 1680639083417,
            "catchQuestion": "How many <b class=\"r\">red<\/b> marbles did you actually draw (before any changes)? ",
            "catchKey": -1,
            "catchResponse": -1,
            "catchTime": 1680639022733,
            "trialTime": 0
        },
        {
            "exptPart": "trial",
            "trialNumber": 100,
            "roleCurrent": "receiver",
            "marblesSampled": 100,
            "probRed": 0.5,
            "lambda": 5,
            "drawnRed": 45,
            "reportedRed": 39,
            "inferredRed": 45,
            "playerTrialScore": 0,
            "oppTrialScore": 0,
            "playerTotalScore": 488,
            "oppTotalScore": -781,
            "waitTime": 5418.995710197111,
            "responseTime": 1680639092885,
            "catchQuestion": "How many <b class=\"r\">red<\/b> marbles did you actually draw (before any changes)? ",
            "catchKey": -1,
            "catchResponse": -1,
            "catchTime": 1680639092885,
            "trialTime": 0
        }
    ]
}