{
    "client": {
        "type": "sona",
        "experiment_id": 2228,
        "credit_token": "b315147ae43241ea9c65086cb510cfb7",
        "survey_code": "47046",
        "sid": "sona-47046",
        "window": {
            "width": 1504,
            "height": 892
        },
        "screen": {
            "width": 1504,
            "height": 1003
        },
        "userAgent": "Mozilla\/5.0 (Windows NT 10.0; Win64; x64) AppleWebKit\/537.36 (KHTML, like Gecko) Chrome\/111.0.0.0 Safari\/537.36",
        "score": 0,
        "bonus": 0
    },
    "expt": {
        "saveURL": "submit.simple.php",
        "trials": 100,
        "practiceTrials": 2,
        "marblesSampled": 100,
        "probRed": 0.5,
        "lambdaAI": 5,
        "roleFirst": "sender",
        "roles": [
            "sender",
            "receiver"
        ],
        "cost": "unif",
        "goal": "over",
        "goalInstructTxt": "below",
        "catchTrials": [
            58,
            66,
            85,
            60,
            70,
            84,
            47,
            78,
            91,
            64
        ],
        "scoreTotal": {
            "player": -454,
            "opp": -229
        },
        "sona": {
            "experiment_id": 2228,
            "credit_token": "b315147ae43241ea9c65086cb510cfb7"
        },
        "pilot": false,
        "debug": false
    },
    "trials": [
        {
            "exptPart": "practice",
            "trialNumber": 1,
            "roleCurrent": "sender",
            "marblesSampled": 100,
            "probRed": 0.5,
            "lambda": 5,
            "drawnRed": 39,
            "reportedRed": 23,
            "inferredRed": 20,
            "playerTrialScore": 0,
            "oppTrialScore": -19,
            "playerTotalScore": 0,
            "oppTotalScore": -19,
            "waitTime": 3166.2953767042086,
            "responseTime": 1678826604350,
            "catchQuestion": "How many <b class=\"r\">red<\/b> marbles did you actually draw (before any changes)? ",
            "catchKey": 39,
            "catchResponse": 39,
            "catchTime": 1678826604350,
            "trialTime": 0
        },
        {
            "exptPart": "practice",
            "trialNumber": 2,
            "roleCurrent": "receiver",
            "marblesSampled": 100,
            "probRed": 0.5,
            "lambda": 5,
            "drawnRed": 83,
            "reportedRed": 89,
            "inferredRed": 53,
            "playerTrialScore": -30,
            "oppTrialScore": 0,
            "playerTotalScore": -30,
            "oppTotalScore": -19,
            "waitTime": 5180.843707478694,
            "responseTime": 1678826655218,
            "catchQuestion": "How many <b class=\"r\">red<\/b> marbles did your opponent report drawing? ",
            "catchKey": 89,
            "catchResponse": 89,
            "catchTime": 1678826655218,
            "trialTime": 0
        },
        {
            "exptPart": "trial",
            "trialNumber": 1,
            "roleCurrent": "sender",
            "marblesSampled": 100,
            "probRed": 0.5,
            "lambda": 5,
            "drawnRed": 81,
            "reportedRed": 91,
            "inferredRed": 90,
            "playerTrialScore": 9,
            "oppTrialScore": -9,
            "playerTotalScore": 9,
            "oppTotalScore": -9,
            "waitTime": 2602.3868482725557,
            "responseTime": 1678826713506,
            "catchQuestion": "How many <b class=\"r\">red<\/b> marbles did your opponent report drawing? ",
            "catchKey": -1,
            "catchResponse": -1,
            "catchTime": 1678826655218,
            "trialTime": 0
        },
        {
            "exptPart": "trial",
            "trialNumber": 2,
            "roleCurrent": "receiver",
            "marblesSampled": 100,
            "probRed": 0.5,
            "lambda": 5,
            "drawnRed": 42,
            "reportedRed": 46,
            "inferredRed": 35,
            "playerTrialScore": -7,
            "oppTrialScore": 0,
            "playerTotalScore": 2,
            "oppTotalScore": -9,
            "waitTime": 6028.45000387077,
            "responseTime": 1678826729209,
            "catchQuestion": "How many <b class=\"r\">red<\/b> marbles did your opponent report drawing? ",
            "catchKey": -1,
            "catchResponse": -1,
            "catchTime": 1678826655218,
            "trialTime": 0
        },
        {
            "exptPart": "trial",
            "trialNumber": 3,
            "roleCurrent": "sender",
            "marblesSampled": 100,
            "probRed": 0.5,
            "lambda": 5,
            "drawnRed": 13,
            "reportedRed": 23,
            "inferredRed": 19,
            "playerTrialScore": 6,
            "oppTrialScore": -6,
            "playerTotalScore": 8,
            "oppTotalScore": -15,
            "waitTime": 2853.77840238338,
            "responseTime": 1678826752343,
            "catchQuestion": "How many <b class=\"r\">red<\/b> marbles did your opponent report drawing? ",
            "catchKey": -1,
            "catchResponse": -1,
            "catchTime": 1678826655218,
            "trialTime": 0
        },
        {
            "exptPart": "trial",
            "trialNumber": 4,
            "roleCurrent": "receiver",
            "marblesSampled": 100,
            "probRed": 0.5,
            "lambda": 5,
            "drawnRed": 61,
            "reportedRed": 63,
            "inferredRed": 58,
            "playerTrialScore": -3,
            "oppTrialScore": 0,
            "playerTotalScore": 5,
            "oppTotalScore": -15,
            "waitTime": 6528.441741023815,
            "responseTime": 1678826769518,
            "catchQuestion": "How many <b class=\"r\">red<\/b> marbles did your opponent report drawing? ",
            "catchKey": -1,
            "catchResponse": -1,
            "catchTime": 1678826655218,
            "trialTime": 0
        },
        {
            "exptPart": "trial",
            "trialNumber": 5,
            "roleCurrent": "sender",
            "marblesSampled": 100,
            "probRed": 0.5,
            "lambda": 5,
            "drawnRed": 54,
            "reportedRed": 54,
            "inferredRed": 52,
            "playerTrialScore": 0,
            "oppTrialScore": -2,
            "playerTotalScore": 5,
            "oppTotalScore": -17,
            "waitTime": 2473.8674708382714,
            "responseTime": 1678826793365,
            "catchQuestion": "How many <b class=\"r\">red<\/b> marbles did your opponent report drawing? ",
            "catchKey": -1,
            "catchResponse": -1,
            "catchTime": 1678826793365,
            "trialTime": 0
        },
        {
            "exptPart": "trial",
            "trialNumber": 6,
            "roleCurrent": "receiver",
            "marblesSampled": 100,
            "probRed": 0.5,
            "lambda": 5,
            "drawnRed": 40,
            "reportedRed": 44,
            "inferredRed": 42,
            "playerTrialScore": -2,
            "oppTrialScore": 2,
            "playerTotalScore": 3,
            "oppTotalScore": -15,
            "waitTime": 6950.3296998424985,
            "responseTime": 1678826816301,
            "catchQuestion": "How many <b class=\"r\">red<\/b> marbles did your opponent report drawing? ",
            "catchKey": -1,
            "catchResponse": -1,
            "catchTime": 1678826793365,
            "trialTime": 0
        },
        {
            "exptPart": "trial",
            "trialNumber": 7,
            "roleCurrent": "sender",
            "marblesSampled": 100,
            "probRed": 0.5,
            "lambda": 5,
            "drawnRed": 43,
            "reportedRed": 45,
            "inferredRed": 41,
            "playerTrialScore": 0,
            "oppTrialScore": -2,
            "playerTotalScore": 3,
            "oppTotalScore": -17,
            "waitTime": 2542.2216969465094,
            "responseTime": 1678826833669,
            "catchQuestion": "How many <b class=\"r\">red<\/b> marbles did your opponent report drawing? ",
            "catchKey": -1,
            "catchResponse": -1,
            "catchTime": 1678826793365,
            "trialTime": 0
        },
        {
            "exptPart": "trial",
            "trialNumber": 8,
            "roleCurrent": "receiver",
            "marblesSampled": 100,
            "probRed": 0.5,
            "lambda": 5,
            "drawnRed": 53,
            "reportedRed": 59,
            "inferredRed": 43,
            "playerTrialScore": -10,
            "oppTrialScore": 0,
            "playerTotalScore": -7,
            "oppTotalScore": -17,
            "waitTime": 5460.011129438897,
            "responseTime": 1678826851453,
            "catchQuestion": "How many <b class=\"r\">red<\/b> marbles did your opponent report drawing? ",
            "catchKey": -1,
            "catchResponse": -1,
            "catchTime": 1678826793365,
            "trialTime": 0
        },
        {
            "exptPart": "trial",
            "trialNumber": 9,
            "roleCurrent": "sender",
            "marblesSampled": 100,
            "probRed": 0.5,
            "lambda": 5,
            "drawnRed": 64,
            "reportedRed": 63,
            "inferredRed": 61,
            "playerTrialScore": 0,
            "oppTrialScore": -3,
            "playerTotalScore": -7,
            "oppTotalScore": -20,
            "waitTime": 2524.725969496287,
            "responseTime": 1678826866136,
            "catchQuestion": "How many <b class=\"r\">red<\/b> marbles did your opponent report drawing? ",
            "catchKey": -1,
            "catchResponse": -1,
            "catchTime": 1678826793365,
            "trialTime": 0
        },
        {
            "exptPart": "trial",
            "trialNumber": 10,
            "roleCurrent": "receiver",
            "marblesSampled": 100,
            "probRed": 0.5,
            "lambda": 5,
            "drawnRed": 60,
            "reportedRed": 64,
            "inferredRed": 62,
            "playerTrialScore": -2,
            "oppTrialScore": 2,
            "playerTotalScore": -9,
            "oppTotalScore": -18,
            "waitTime": 5955.118772102003,
            "responseTime": 1678826880796,
            "catchQuestion": "How many <b class=\"r\">red<\/b> marbles did your opponent report drawing? ",
            "catchKey": -1,
            "catchResponse": -1,
            "catchTime": 1678826880796,
            "trialTime": 0
        },
        {
            "exptPart": "trial",
            "trialNumber": 11,
            "roleCurrent": "sender",
            "marblesSampled": 100,
            "probRed": 0.5,
            "lambda": 5,
            "drawnRed": 29,
            "reportedRed": 30,
            "inferredRed": 28,
            "playerTrialScore": 0,
            "oppTrialScore": -1,
            "playerTotalScore": -9,
            "oppTotalScore": -19,
            "waitTime": 2756.9614929352483,
            "responseTime": 1678826966202,
            "catchQuestion": "How many <b class=\"r\">red<\/b> marbles did your opponent report drawing? ",
            "catchKey": -1,
            "catchResponse": -1,
            "catchTime": 1678826880796,
            "trialTime": 0
        },
        {
            "exptPart": "trial",
            "trialNumber": 12,
            "roleCurrent": "receiver",
            "marblesSampled": 100,
            "probRed": 0.5,
            "lambda": 5,
            "drawnRed": 48,
            "reportedRed": 54,
            "inferredRed": 54,
            "playerTrialScore": -6,
            "oppTrialScore": 6,
            "playerTotalScore": -15,
            "oppTotalScore": -13,
            "waitTime": 5156.390652823704,
            "responseTime": 1678826975542,
            "catchQuestion": "How many <b class=\"r\">red<\/b> marbles did your opponent report drawing? ",
            "catchKey": -1,
            "catchResponse": -1,
            "catchTime": 1678826880796,
            "trialTime": 0
        },
        {
            "exptPart": "trial",
            "trialNumber": 13,
            "roleCurrent": "sender",
            "marblesSampled": 100,
            "probRed": 0.5,
            "lambda": 5,
            "drawnRed": 62,
            "reportedRed": 65,
            "inferredRed": 60,
            "playerTrialScore": 0,
            "oppTrialScore": -2,
            "playerTotalScore": -15,
            "oppTotalScore": -15,
            "waitTime": 2316.077536349912,
            "responseTime": 1678826991850,
            "catchQuestion": "How many <b class=\"r\">red<\/b> marbles did your opponent report drawing? ",
            "catchKey": -1,
            "catchResponse": -1,
            "catchTime": 1678826880796,
            "trialTime": 0
        },
        {
            "exptPart": "trial",
            "trialNumber": 14,
            "roleCurrent": "receiver",
            "marblesSampled": 100,
            "probRed": 0.5,
            "lambda": 5,
            "drawnRed": 48,
            "reportedRed": 59,
            "inferredRed": 49,
            "playerTrialScore": -1,
            "oppTrialScore": 1,
            "playerTotalScore": -16,
            "oppTotalScore": -14,
            "waitTime": 6155.158075173746,
            "responseTime": 1678827008527,
            "catchQuestion": "How many <b class=\"r\">red<\/b> marbles did your opponent report drawing? ",
            "catchKey": -1,
            "catchResponse": -1,
            "catchTime": 1678826880796,
            "trialTime": 0
        },
        {
            "exptPart": "trial",
            "trialNumber": 15,
            "roleCurrent": "sender",
            "marblesSampled": 100,
            "probRed": 0.5,
            "lambda": 5,
            "drawnRed": 37,
            "reportedRed": 42,
            "inferredRed": 39,
            "playerTrialScore": 2,
            "oppTrialScore": -2,
            "playerTotalScore": -14,
            "oppTotalScore": -16,
            "waitTime": 2337.6536076872762,
            "responseTime": 1678827022841,
            "catchQuestion": "How many <b class=\"r\">red<\/b> marbles did your opponent report drawing? ",
            "catchKey": -1,
            "catchResponse": -1,
            "catchTime": 1678827022842,
            "trialTime": 0
        },
        {
            "exptPart": "trial",
            "trialNumber": 16,
            "roleCurrent": "receiver",
            "marblesSampled": 100,
            "probRed": 0.5,
            "lambda": 5,
            "drawnRed": 42,
            "reportedRed": 45,
            "inferredRed": 42,
            "playerTrialScore": 0,
            "oppTrialScore": 0,
            "playerTotalScore": -14,
            "oppTotalScore": -16,
            "waitTime": 6005.637241597953,
            "responseTime": 1678827037718,
            "catchQuestion": "How many <b class=\"r\">red<\/b> marbles did your opponent report drawing? ",
            "catchKey": -1,
            "catchResponse": -1,
            "catchTime": 1678827022842,
            "trialTime": 0
        },
        {
            "exptPart": "trial",
            "trialNumber": 17,
            "roleCurrent": "sender",
            "marblesSampled": 100,
            "probRed": 0.5,
            "lambda": 5,
            "drawnRed": 57,
            "reportedRed": 57,
            "inferredRed": 52,
            "playerTrialScore": 0,
            "oppTrialScore": -5,
            "playerTotalScore": -14,
            "oppTotalScore": -21,
            "waitTime": 2901.355003478503,
            "responseTime": 1678827047915,
            "catchQuestion": "How many <b class=\"r\">red<\/b> marbles did your opponent report drawing? ",
            "catchKey": -1,
            "catchResponse": -1,
            "catchTime": 1678827022842,
            "trialTime": 0
        },
        {
            "exptPart": "trial",
            "trialNumber": 18,
            "roleCurrent": "receiver",
            "marblesSampled": 100,
            "probRed": 0.5,
            "lambda": 5,
            "drawnRed": 80,
            "reportedRed": 83,
            "inferredRed": 82,
            "playerTrialScore": -2,
            "oppTrialScore": 2,
            "playerTotalScore": -16,
            "oppTotalScore": -19,
            "waitTime": 6391.317035371343,
            "responseTime": 1678827060548,
            "catchQuestion": "How many <b class=\"r\">red<\/b> marbles did your opponent report drawing? ",
            "catchKey": -1,
            "catchResponse": -1,
            "catchTime": 1678827022842,
            "trialTime": 0
        },
        {
            "exptPart": "trial",
            "trialNumber": 19,
            "roleCurrent": "sender",
            "marblesSampled": 100,
            "probRed": 0.5,
            "lambda": 5,
            "drawnRed": 82,
            "reportedRed": 82,
            "inferredRed": 79,
            "playerTrialScore": 0,
            "oppTrialScore": -3,
            "playerTotalScore": -16,
            "oppTotalScore": -22,
            "waitTime": 3105.6859753929994,
            "responseTime": 1678827070855,
            "catchQuestion": "How many <b class=\"r\">red<\/b> marbles did your opponent report drawing? ",
            "catchKey": -1,
            "catchResponse": -1,
            "catchTime": 1678827022842,
            "trialTime": 0
        },
        {
            "exptPart": "trial",
            "trialNumber": 20,
            "roleCurrent": "receiver",
            "marblesSampled": 100,
            "probRed": 0.5,
            "lambda": 5,
            "drawnRed": 30,
            "reportedRed": 34,
            "inferredRed": 36,
            "playerTrialScore": -6,
            "oppTrialScore": 6,
            "playerTotalScore": -22,
            "oppTotalScore": -16,
            "waitTime": 7441.3573641846215,
            "responseTime": 1678827086857,
            "catchQuestion": "How many <b class=\"r\">red<\/b> marbles did your opponent report drawing? ",
            "catchKey": -1,
            "catchResponse": -1,
            "catchTime": 1678827086857,
            "trialTime": 0
        },
        {
            "exptPart": "trial",
            "trialNumber": 21,
            "roleCurrent": "sender",
            "marblesSampled": 100,
            "probRed": 0.5,
            "lambda": 5,
            "drawnRed": 76,
            "reportedRed": 76,
            "inferredRed": 72,
            "playerTrialScore": 0,
            "oppTrialScore": -4,
            "playerTotalScore": -22,
            "oppTotalScore": -20,
            "waitTime": 2476.92258129916,
            "responseTime": 1678827100706,
            "catchQuestion": "How many <b class=\"r\">red<\/b> marbles did your opponent report drawing? ",
            "catchKey": -1,
            "catchResponse": -1,
            "catchTime": 1678827086857,
            "trialTime": 0
        },
        {
            "exptPart": "trial",
            "trialNumber": 22,
            "roleCurrent": "receiver",
            "marblesSampled": 100,
            "probRed": 0.5,
            "lambda": 5,
            "drawnRed": 75,
            "reportedRed": 81,
            "inferredRed": 86,
            "playerTrialScore": -11,
            "oppTrialScore": 11,
            "playerTotalScore": -33,
            "oppTotalScore": -9,
            "waitTime": 5936.403027684208,
            "responseTime": 1678827119501,
            "catchQuestion": "How many <b class=\"r\">red<\/b> marbles did your opponent report drawing? ",
            "catchKey": -1,
            "catchResponse": -1,
            "catchTime": 1678827086857,
            "trialTime": 0
        },
        {
            "exptPart": "trial",
            "trialNumber": 23,
            "roleCurrent": "sender",
            "marblesSampled": 100,
            "probRed": 0.5,
            "lambda": 5,
            "drawnRed": 60,
            "reportedRed": 58,
            "inferredRed": 50,
            "playerTrialScore": 0,
            "oppTrialScore": -10,
            "playerTotalScore": -33,
            "oppTotalScore": -19,
            "waitTime": 2611.6017524770405,
            "responseTime": 1678827136330,
            "catchQuestion": "How many <b class=\"r\">red<\/b> marbles did your opponent report drawing? ",
            "catchKey": -1,
            "catchResponse": -1,
            "catchTime": 1678827086857,
            "trialTime": 0
        },
        {
            "exptPart": "trial",
            "trialNumber": 24,
            "roleCurrent": "receiver",
            "marblesSampled": 100,
            "probRed": 0.5,
            "lambda": 5,
            "drawnRed": 73,
            "reportedRed": 79,
            "inferredRed": 75,
            "playerTrialScore": -2,
            "oppTrialScore": 2,
            "playerTotalScore": -35,
            "oppTotalScore": -17,
            "waitTime": 6401.522887087813,
            "responseTime": 1678827164683,
            "catchQuestion": "How many <b class=\"r\">red<\/b> marbles did your opponent report drawing? ",
            "catchKey": -1,
            "catchResponse": -1,
            "catchTime": 1678827086857,
            "trialTime": 0
        },
        {
            "exptPart": "trial",
            "trialNumber": 25,
            "roleCurrent": "sender",
            "marblesSampled": 100,
            "probRed": 0.5,
            "lambda": 5,
            "drawnRed": 48,
            "reportedRed": 9,
            "inferredRed": 3,
            "playerTrialScore": 0,
            "oppTrialScore": -45,
            "playerTotalScore": -35,
            "oppTotalScore": -62,
            "waitTime": 2743.5040437718535,
            "responseTime": 1678827207056,
            "catchQuestion": "How many <b class=\"r\">red<\/b> marbles did your opponent report drawing? ",
            "catchKey": -1,
            "catchResponse": -1,
            "catchTime": 1678827207056,
            "trialTime": 0
        },
        {
            "exptPart": "trial",
            "trialNumber": 26,
            "roleCurrent": "receiver",
            "marblesSampled": 100,
            "probRed": 0.5,
            "lambda": 5,
            "drawnRed": 88,
            "reportedRed": 93,
            "inferredRed": 34,
            "playerTrialScore": -54,
            "oppTrialScore": 0,
            "playerTotalScore": -89,
            "oppTotalScore": -62,
            "waitTime": 5136.664202658909,
            "responseTime": 1678827237155,
            "catchQuestion": "How many <b class=\"r\">red<\/b> marbles did your opponent report drawing? ",
            "catchKey": -1,
            "catchResponse": -1,
            "catchTime": 1678827207056,
            "trialTime": 0
        },
        {
            "exptPart": "trial",
            "trialNumber": 27,
            "roleCurrent": "sender",
            "marblesSampled": 100,
            "probRed": 0.5,
            "lambda": 5,
            "drawnRed": 63,
            "reportedRed": 34,
            "inferredRed": 29,
            "playerTrialScore": 0,
            "oppTrialScore": -34,
            "playerTotalScore": -89,
            "oppTotalScore": -96,
            "waitTime": 2436.75817152427,
            "responseTime": 1678827271332,
            "catchQuestion": "How many <b class=\"r\">red<\/b> marbles did your opponent report drawing? ",
            "catchKey": -1,
            "catchResponse": -1,
            "catchTime": 1678827207056,
            "trialTime": 0
        },
        {
            "exptPart": "trial",
            "trialNumber": 28,
            "roleCurrent": "receiver",
            "marblesSampled": 100,
            "probRed": 0.5,
            "lambda": 5,
            "drawnRed": 66,
            "reportedRed": 73,
            "inferredRed": 68,
            "playerTrialScore": -2,
            "oppTrialScore": 2,
            "playerTotalScore": -91,
            "oppTotalScore": -94,
            "waitTime": 6261.788178277416,
            "responseTime": 1678827286081,
            "catchQuestion": "How many <b class=\"r\">red<\/b> marbles did your opponent report drawing? ",
            "catchKey": -1,
            "catchResponse": -1,
            "catchTime": 1678827207056,
            "trialTime": 0
        },
        {
            "exptPart": "trial",
            "trialNumber": 29,
            "roleCurrent": "sender",
            "marblesSampled": 100,
            "probRed": 0.5,
            "lambda": 5,
            "drawnRed": 41,
            "reportedRed": 41,
            "inferredRed": 35,
            "playerTrialScore": 0,
            "oppTrialScore": -6,
            "playerTotalScore": -91,
            "oppTotalScore": -100,
            "waitTime": 2498.652193252245,
            "responseTime": 1678827301734,
            "catchQuestion": "How many <b class=\"r\">red<\/b> marbles did your opponent report drawing? ",
            "catchKey": -1,
            "catchResponse": -1,
            "catchTime": 1678827207056,
            "trialTime": 0
        },
        {
            "exptPart": "trial",
            "trialNumber": 30,
            "roleCurrent": "receiver",
            "marblesSampled": 100,
            "probRed": 0.5,
            "lambda": 5,
            "drawnRed": 37,
            "reportedRed": 41,
            "inferredRed": 40,
            "playerTrialScore": -3,
            "oppTrialScore": 3,
            "playerTotalScore": -94,
            "oppTotalScore": -97,
            "waitTime": 7238.39989683521,
            "responseTime": 1678827319275,
            "catchQuestion": "How many <b class=\"r\">red<\/b> marbles did your opponent report drawing? ",
            "catchKey": -1,
            "catchResponse": -1,
            "catchTime": 1678827319275,
            "trialTime": 0
        },
        {
            "exptPart": "trial",
            "trialNumber": 31,
            "roleCurrent": "sender",
            "marblesSampled": 100,
            "probRed": 0.5,
            "lambda": 5,
            "drawnRed": 81,
            "reportedRed": 81,
            "inferredRed": 77,
            "playerTrialScore": 0,
            "oppTrialScore": -4,
            "playerTotalScore": -94,
            "oppTotalScore": -101,
            "waitTime": 2198.631179009143,
            "responseTime": 1678827333165,
            "catchQuestion": "How many <b class=\"r\">red<\/b> marbles did your opponent report drawing? ",
            "catchKey": -1,
            "catchResponse": -1,
            "catchTime": 1678827319275,
            "trialTime": 0
        },
        {
            "exptPart": "trial",
            "trialNumber": 32,
            "roleCurrent": "receiver",
            "marblesSampled": 100,
            "probRed": 0.5,
            "lambda": 5,
            "drawnRed": 87,
            "reportedRed": 87,
            "inferredRed": 87,
            "playerTrialScore": 0,
            "oppTrialScore": 0,
            "playerTotalScore": -94,
            "oppTotalScore": -101,
            "waitTime": 6160.0259567714265,
            "responseTime": 1678827346176,
            "catchQuestion": "How many <b class=\"r\">red<\/b> marbles did your opponent report drawing? ",
            "catchKey": -1,
            "catchResponse": -1,
            "catchTime": 1678827319275,
            "trialTime": 0
        },
        {
            "exptPart": "trial",
            "trialNumber": 33,
            "roleCurrent": "sender",
            "marblesSampled": 100,
            "probRed": 0.5,
            "lambda": 5,
            "drawnRed": 35,
            "reportedRed": 35,
            "inferredRed": 32,
            "playerTrialScore": 0,
            "oppTrialScore": -3,
            "playerTotalScore": -94,
            "oppTotalScore": -104,
            "waitTime": 2247.7832923514784,
            "responseTime": 1678827353876,
            "catchQuestion": "How many <b class=\"r\">red<\/b> marbles did your opponent report drawing? ",
            "catchKey": -1,
            "catchResponse": -1,
            "catchTime": 1678827319275,
            "trialTime": 0
        },
        {
            "exptPart": "trial",
            "trialNumber": 34,
            "roleCurrent": "receiver",
            "marblesSampled": 100,
            "probRed": 0.5,
            "lambda": 5,
            "drawnRed": 70,
            "reportedRed": 71,
            "inferredRed": 71,
            "playerTrialScore": -1,
            "oppTrialScore": 1,
            "playerTotalScore": -95,
            "oppTotalScore": -103,
            "waitTime": 5836.366706536675,
            "responseTime": 1678827365450,
            "catchQuestion": "How many <b class=\"r\">red<\/b> marbles did your opponent report drawing? ",
            "catchKey": -1,
            "catchResponse": -1,
            "catchTime": 1678827319275,
            "trialTime": 0
        },
        {
            "exptPart": "trial",
            "trialNumber": 35,
            "roleCurrent": "sender",
            "marblesSampled": 100,
            "probRed": 0.5,
            "lambda": 5,
            "drawnRed": 55,
            "reportedRed": 55,
            "inferredRed": 49,
            "playerTrialScore": 0,
            "oppTrialScore": -6,
            "playerTotalScore": -95,
            "oppTotalScore": -109,
            "waitTime": 3060.5068134629255,
            "responseTime": 1678827381636,
            "catchQuestion": "How many <b class=\"r\">red<\/b> marbles did your opponent report drawing? ",
            "catchKey": -1,
            "catchResponse": -1,
            "catchTime": 1678827381636,
            "trialTime": 0
        },
        {
            "exptPart": "trial",
            "trialNumber": 36,
            "roleCurrent": "receiver",
            "marblesSampled": 100,
            "probRed": 0.5,
            "lambda": 5,
            "drawnRed": 46,
            "reportedRed": 51,
            "inferredRed": 51,
            "playerTrialScore": -5,
            "oppTrialScore": 5,
            "playerTotalScore": -100,
            "oppTotalScore": -104,
            "waitTime": 6797.403600924117,
            "responseTime": 1678827394327,
            "catchQuestion": "How many <b class=\"r\">red<\/b> marbles did your opponent report drawing? ",
            "catchKey": -1,
            "catchResponse": -1,
            "catchTime": 1678827381636,
            "trialTime": 0
        },
        {
            "exptPart": "trial",
            "trialNumber": 37,
            "roleCurrent": "sender",
            "marblesSampled": 100,
            "probRed": 0.5,
            "lambda": 5,
            "drawnRed": 62,
            "reportedRed": 62,
            "inferredRed": 58,
            "playerTrialScore": 0,
            "oppTrialScore": -4,
            "playerTotalScore": -100,
            "oppTotalScore": -108,
            "waitTime": 2134.14283876828,
            "responseTime": 1678827406129,
            "catchQuestion": "How many <b class=\"r\">red<\/b> marbles did your opponent report drawing? ",
            "catchKey": -1,
            "catchResponse": -1,
            "catchTime": 1678827381636,
            "trialTime": 0
        },
        {
            "exptPart": "trial",
            "trialNumber": 38,
            "roleCurrent": "receiver",
            "marblesSampled": 100,
            "probRed": 0.5,
            "lambda": 5,
            "drawnRed": 55,
            "reportedRed": 61,
            "inferredRed": 61,
            "playerTrialScore": -6,
            "oppTrialScore": 6,
            "playerTotalScore": -106,
            "oppTotalScore": -102,
            "waitTime": 6335.855330769849,
            "responseTime": 1678827417680,
            "catchQuestion": "How many <b class=\"r\">red<\/b> marbles did your opponent report drawing? ",
            "catchKey": -1,
            "catchResponse": -1,
            "catchTime": 1678827381636,
            "trialTime": 0
        },
        {
            "exptPart": "trial",
            "trialNumber": 39,
            "roleCurrent": "sender",
            "marblesSampled": 100,
            "probRed": 0.5,
            "lambda": 5,
            "drawnRed": 42,
            "reportedRed": 42,
            "inferredRed": 37,
            "playerTrialScore": 0,
            "oppTrialScore": -5,
            "playerTotalScore": -106,
            "oppTotalScore": -107,
            "waitTime": 2374.9347422749397,
            "responseTime": 1678827427202,
            "catchQuestion": "How many <b class=\"r\">red<\/b> marbles did your opponent report drawing? ",
            "catchKey": -1,
            "catchResponse": -1,
            "catchTime": 1678827381636,
            "trialTime": 0
        },
        {
            "exptPart": "trial",
            "trialNumber": 40,
            "roleCurrent": "receiver",
            "marblesSampled": 100,
            "probRed": 0.5,
            "lambda": 5,
            "drawnRed": 9,
            "reportedRed": 18,
            "inferredRed": 19,
            "playerTrialScore": -10,
            "oppTrialScore": 10,
            "playerTotalScore": -116,
            "oppTotalScore": -97,
            "waitTime": 5640.905847380247,
            "responseTime": 1678827442025,
            "catchQuestion": "How many <b class=\"r\">red<\/b> marbles did your opponent report drawing? ",
            "catchKey": -1,
            "catchResponse": -1,
            "catchTime": 1678827442026,
            "trialTime": 0
        },
        {
            "exptPart": "trial",
            "trialNumber": 41,
            "roleCurrent": "sender",
            "marblesSampled": 100,
            "probRed": 0.5,
            "lambda": 5,
            "drawnRed": 76,
            "reportedRed": 54,
            "inferredRed": 50,
            "playerTrialScore": 0,
            "oppTrialScore": -26,
            "playerTotalScore": -116,
            "oppTotalScore": -123,
            "waitTime": 2726.184865360651,
            "responseTime": 1678827479985,
            "catchQuestion": "How many <b class=\"r\">red<\/b> marbles did your opponent report drawing? ",
            "catchKey": -1,
            "catchResponse": -1,
            "catchTime": 1678827442026,
            "trialTime": 0
        },
        {
            "exptPart": "trial",
            "trialNumber": 42,
            "roleCurrent": "receiver",
            "marblesSampled": 100,
            "probRed": 0.5,
            "lambda": 5,
            "drawnRed": 18,
            "reportedRed": 25,
            "inferredRed": 15,
            "playerTrialScore": -3,
            "oppTrialScore": 0,
            "playerTotalScore": -119,
            "oppTotalScore": -123,
            "waitTime": 5406.17982627508,
            "responseTime": 1678827495867,
            "catchQuestion": "How many <b class=\"r\">red<\/b> marbles did your opponent report drawing? ",
            "catchKey": -1,
            "catchResponse": -1,
            "catchTime": 1678827442026,
            "trialTime": 0
        },
        {
            "exptPart": "trial",
            "trialNumber": 43,
            "roleCurrent": "sender",
            "marblesSampled": 100,
            "probRed": 0.5,
            "lambda": 5,
            "drawnRed": 36,
            "reportedRed": 36,
            "inferredRed": 29,
            "playerTrialScore": 0,
            "oppTrialScore": -7,
            "playerTotalScore": -119,
            "oppTotalScore": -130,
            "waitTime": 2359.7888545787227,
            "responseTime": 1678827504796,
            "catchQuestion": "How many <b class=\"r\">red<\/b> marbles did your opponent report drawing? ",
            "catchKey": -1,
            "catchResponse": -1,
            "catchTime": 1678827442026,
            "trialTime": 0
        },
        {
            "exptPart": "trial",
            "trialNumber": 44,
            "roleCurrent": "receiver",
            "marblesSampled": 100,
            "probRed": 0.5,
            "lambda": 5,
            "drawnRed": 86,
            "reportedRed": 91,
            "inferredRed": 78,
            "playerTrialScore": -8,
            "oppTrialScore": 0,
            "playerTotalScore": -127,
            "oppTotalScore": -130,
            "waitTime": 5316.850281753278,
            "responseTime": 1678827518886,
            "catchQuestion": "How many <b class=\"r\">red<\/b> marbles did your opponent report drawing? ",
            "catchKey": -1,
            "catchResponse": -1,
            "catchTime": 1678827442026,
            "trialTime": 0
        },
        {
            "exptPart": "trial",
            "trialNumber": 45,
            "roleCurrent": "sender",
            "marblesSampled": 100,
            "probRed": 0.5,
            "lambda": 5,
            "drawnRed": 19,
            "reportedRed": 18,
            "inferredRed": 14,
            "playerTrialScore": 0,
            "oppTrialScore": -5,
            "playerTotalScore": -127,
            "oppTotalScore": -135,
            "waitTime": 2855.7282879414233,
            "responseTime": 1678827531428,
            "catchQuestion": "How many <b class=\"r\">red<\/b> marbles did your opponent report drawing? ",
            "catchKey": -1,
            "catchResponse": -1,
            "catchTime": 1678827531428,
            "trialTime": 0
        },
        {
            "exptPart": "trial",
            "trialNumber": 46,
            "roleCurrent": "receiver",
            "marblesSampled": 100,
            "probRed": 0.5,
            "lambda": 5,
            "drawnRed": 26,
            "reportedRed": 32,
            "inferredRed": 10,
            "playerTrialScore": -16,
            "oppTrialScore": 0,
            "playerTotalScore": -143,
            "oppTotalScore": -135,
            "waitTime": 5785.604542494091,
            "responseTime": 1678827547213,
            "catchQuestion": "How many <b class=\"r\">red<\/b> marbles did your opponent report drawing? ",
            "catchKey": -1,
            "catchResponse": -1,
            "catchTime": 1678827531428,
            "trialTime": 0
        },
        {
            "exptPart": "trial",
            "trialNumber": 47,
            "roleCurrent": "sender",
            "marblesSampled": 100,
            "probRed": 0.5,
            "lambda": 5,
            "drawnRed": 52,
            "reportedRed": 52,
            "inferredRed": 49,
            "playerTrialScore": 0,
            "oppTrialScore": -3,
            "playerTotalScore": -143,
            "oppTotalScore": -138,
            "waitTime": 2224.4046018104677,
            "responseTime": 1678827564448,
            "catchQuestion": "How many <b class=\"r\">red<\/b> marbles did your opponent report drawing? ",
            "catchKey": -1,
            "catchResponse": -1,
            "catchTime": 1678827531428,
            "trialTime": 0
        },
        {
            "exptPart": "trial",
            "trialNumber": 48,
            "roleCurrent": "receiver",
            "marblesSampled": 100,
            "probRed": 0.5,
            "lambda": 5,
            "drawnRed": 35,
            "reportedRed": 37,
            "inferredRed": 37,
            "playerTrialScore": -2,
            "oppTrialScore": 2,
            "playerTotalScore": -145,
            "oppTotalScore": -136,
            "waitTime": 6946.414425940031,
            "responseTime": 1678827584697,
            "catchQuestion": "How many <b class=\"r\">red<\/b> marbles did your opponent report drawing? ",
            "catchKey": 37,
            "catchResponse": 37,
            "catchTime": 1678827584697,
            "trialTime": 0
        },
        {
            "exptPart": "trial",
            "trialNumber": 49,
            "roleCurrent": "sender",
            "marblesSampled": 100,
            "probRed": 0.5,
            "lambda": 5,
            "drawnRed": 83,
            "reportedRed": 87,
            "inferredRed": 83,
            "playerTrialScore": 0,
            "oppTrialScore": 0,
            "playerTotalScore": -145,
            "oppTotalScore": -136,
            "waitTime": 3070.154393852848,
            "responseTime": 1678827607892,
            "catchQuestion": "How many <b class=\"r\">red<\/b> marbles did your opponent report drawing? ",
            "catchKey": -1,
            "catchResponse": -1,
            "catchTime": 1678827584697,
            "trialTime": 0
        },
        {
            "exptPart": "trial",
            "trialNumber": 50,
            "roleCurrent": "receiver",
            "marblesSampled": 100,
            "probRed": 0.5,
            "lambda": 5,
            "drawnRed": 34,
            "reportedRed": 37,
            "inferredRed": 32,
            "playerTrialScore": -2,
            "oppTrialScore": 0,
            "playerTotalScore": -147,
            "oppTotalScore": -136,
            "waitTime": 6075.626763489088,
            "responseTime": 1678827621387,
            "catchQuestion": "How many <b class=\"r\">red<\/b> marbles did your opponent report drawing? ",
            "catchKey": -1,
            "catchResponse": -1,
            "catchTime": 1678827621387,
            "trialTime": 0
        },
        {
            "exptPart": "trial",
            "trialNumber": 51,
            "roleCurrent": "sender",
            "marblesSampled": 100,
            "probRed": 0.5,
            "lambda": 5,
            "drawnRed": 5,
            "reportedRed": 1,
            "inferredRed": 0,
            "playerTrialScore": 0,
            "oppTrialScore": -5,
            "playerTotalScore": -147,
            "oppTotalScore": -141,
            "waitTime": 2342.1587908929405,
            "responseTime": 1678827642500,
            "catchQuestion": "How many <b class=\"r\">red<\/b> marbles did your opponent report drawing? ",
            "catchKey": -1,
            "catchResponse": -1,
            "catchTime": 1678827621387,
            "trialTime": 0
        },
        {
            "exptPart": "trial",
            "trialNumber": 52,
            "roleCurrent": "receiver",
            "marblesSampled": 100,
            "probRed": 0.5,
            "lambda": 5,
            "drawnRed": 22,
            "reportedRed": 26,
            "inferredRed": 26,
            "playerTrialScore": -4,
            "oppTrialScore": 4,
            "playerTotalScore": -151,
            "oppTotalScore": -137,
            "waitTime": 5460.879136447678,
            "responseTime": 1678827654346,
            "catchQuestion": "How many <b class=\"r\">red<\/b> marbles did your opponent report drawing? ",
            "catchKey": -1,
            "catchResponse": -1,
            "catchTime": 1678827621387,
            "trialTime": 0
        },
        {
            "exptPart": "trial",
            "trialNumber": 53,
            "roleCurrent": "sender",
            "marblesSampled": 100,
            "probRed": 0.5,
            "lambda": 5,
            "drawnRed": 50,
            "reportedRed": 50,
            "inferredRed": 49,
            "playerTrialScore": 0,
            "oppTrialScore": -1,
            "playerTotalScore": -151,
            "oppTotalScore": -138,
            "waitTime": 2879.1375997956325,
            "responseTime": 1678827664674,
            "catchQuestion": "How many <b class=\"r\">red<\/b> marbles did your opponent report drawing? ",
            "catchKey": -1,
            "catchResponse": -1,
            "catchTime": 1678827621387,
            "trialTime": 0
        },
        {
            "exptPart": "trial",
            "trialNumber": 54,
            "roleCurrent": "receiver",
            "marblesSampled": 100,
            "probRed": 0.5,
            "lambda": 5,
            "drawnRed": 33,
            "reportedRed": 38,
            "inferredRed": 38,
            "playerTrialScore": -5,
            "oppTrialScore": 5,
            "playerTotalScore": -156,
            "oppTotalScore": -133,
            "waitTime": 5906.600799025928,
            "responseTime": 1678827675462,
            "catchQuestion": "How many <b class=\"r\">red<\/b> marbles did your opponent report drawing? ",
            "catchKey": -1,
            "catchResponse": -1,
            "catchTime": 1678827621387,
            "trialTime": 0
        },
        {
            "exptPart": "trial",
            "trialNumber": 55,
            "roleCurrent": "sender",
            "marblesSampled": 100,
            "probRed": 0.5,
            "lambda": 5,
            "drawnRed": 72,
            "reportedRed": 72,
            "inferredRed": 67,
            "playerTrialScore": 0,
            "oppTrialScore": -5,
            "playerTotalScore": -156,
            "oppTotalScore": -138,
            "waitTime": 2502.5991542351485,
            "responseTime": 1678827684421,
            "catchQuestion": "How many <b class=\"r\">red<\/b> marbles did your opponent report drawing? ",
            "catchKey": -1,
            "catchResponse": -1,
            "catchTime": 1678827684421,
            "trialTime": 0
        },
        {
            "exptPart": "trial",
            "trialNumber": 56,
            "roleCurrent": "receiver",
            "marblesSampled": 100,
            "probRed": 0.5,
            "lambda": 5,
            "drawnRed": 42,
            "reportedRed": 45,
            "inferredRed": 44,
            "playerTrialScore": -2,
            "oppTrialScore": 2,
            "playerTotalScore": -158,
            "oppTotalScore": -136,
            "waitTime": 7435.849656541161,
            "responseTime": 1678827697608,
            "catchQuestion": "How many <b class=\"r\">red<\/b> marbles did your opponent report drawing? ",
            "catchKey": -1,
            "catchResponse": -1,
            "catchTime": 1678827684421,
            "trialTime": 0
        },
        {
            "exptPart": "trial",
            "trialNumber": 57,
            "roleCurrent": "sender",
            "marblesSampled": 100,
            "probRed": 0.5,
            "lambda": 5,
            "drawnRed": 53,
            "reportedRed": 53,
            "inferredRed": 48,
            "playerTrialScore": 0,
            "oppTrialScore": -5,
            "playerTotalScore": -158,
            "oppTotalScore": -141,
            "waitTime": 2386.1579628130003,
            "responseTime": 1678827704657,
            "catchQuestion": "How many <b class=\"r\">red<\/b> marbles did your opponent report drawing? ",
            "catchKey": -1,
            "catchResponse": -1,
            "catchTime": 1678827684421,
            "trialTime": 0
        },
        {
            "exptPart": "trial",
            "trialNumber": 58,
            "roleCurrent": "receiver",
            "marblesSampled": 100,
            "probRed": 0.5,
            "lambda": 5,
            "drawnRed": 64,
            "reportedRed": 70,
            "inferredRed": 50,
            "playerTrialScore": -14,
            "oppTrialScore": 0,
            "playerTotalScore": -172,
            "oppTotalScore": -141,
            "waitTime": 5794.109244697602,
            "responseTime": 1678827714408,
            "catchQuestion": "How many <b class=\"r\">red<\/b> marbles did your opponent report drawing? ",
            "catchKey": -1,
            "catchResponse": -1,
            "catchTime": 1678827684421,
            "trialTime": 0
        },
        {
            "exptPart": "trial",
            "trialNumber": 59,
            "roleCurrent": "sender",
            "marblesSampled": 100,
            "probRed": 0.5,
            "lambda": 5,
            "drawnRed": 76,
            "reportedRed": 76,
            "inferredRed": 70,
            "playerTrialScore": 0,
            "oppTrialScore": -6,
            "playerTotalScore": -172,
            "oppTotalScore": -147,
            "waitTime": 3029.9556941392148,
            "responseTime": 1678827723041,
            "catchQuestion": "How many <b class=\"r\">red<\/b> marbles did you actually draw (before any changes)? ",
            "catchKey": 76,
            "catchResponse": 76,
            "catchTime": 1678827723042,
            "trialTime": 0
        },
        {
            "exptPart": "trial",
            "trialNumber": 60,
            "roleCurrent": "receiver",
            "marblesSampled": 100,
            "probRed": 0.5,
            "lambda": 5,
            "drawnRed": 36,
            "reportedRed": 40,
            "inferredRed": 30,
            "playerTrialScore": -6,
            "oppTrialScore": 0,
            "playerTotalScore": -178,
            "oppTotalScore": -147,
            "waitTime": 6306.048095836044,
            "responseTime": 1678827740092,
            "catchQuestion": "How many <b class=\"r\">red<\/b> marbles did you actually draw (before any changes)? ",
            "catchKey": -1,
            "catchResponse": -1,
            "catchTime": 1678827740092,
            "trialTime": 0
        },
        {
            "exptPart": "trial",
            "trialNumber": 61,
            "roleCurrent": "sender",
            "marblesSampled": 100,
            "probRed": 0.5,
            "lambda": 5,
            "drawnRed": 46,
            "reportedRed": 46,
            "inferredRed": 37,
            "playerTrialScore": 0,
            "oppTrialScore": -9,
            "playerTotalScore": -178,
            "oppTotalScore": -156,
            "waitTime": 2141.2972063717757,
            "responseTime": 1678827748747,
            "catchQuestion": "How many <b class=\"r\">red<\/b> marbles did you actually draw (before any changes)? ",
            "catchKey": 46,
            "catchResponse": 46,
            "catchTime": 1678827748748,
            "trialTime": 0
        },
        {
            "exptPart": "trial",
            "trialNumber": 62,
            "roleCurrent": "receiver",
            "marblesSampled": 100,
            "probRed": 0.5,
            "lambda": 5,
            "drawnRed": 43,
            "reportedRed": 45,
            "inferredRed": 44,
            "playerTrialScore": -1,
            "oppTrialScore": 1,
            "playerTotalScore": -179,
            "oppTotalScore": -155,
            "waitTime": 6131.9346988933685,
            "responseTime": 1678827766139,
            "catchQuestion": "How many <b class=\"r\">red<\/b> marbles did you actually draw (before any changes)? ",
            "catchKey": -1,
            "catchResponse": -1,
            "catchTime": 1678827748748,
            "trialTime": 0
        },
        {
            "exptPart": "trial",
            "trialNumber": 63,
            "roleCurrent": "sender",
            "marblesSampled": 100,
            "probRed": 0.5,
            "lambda": 5,
            "drawnRed": 56,
            "reportedRed": 56,
            "inferredRed": 50,
            "playerTrialScore": 0,
            "oppTrialScore": -6,
            "playerTotalScore": -179,
            "oppTotalScore": -161,
            "waitTime": 2109.412473764091,
            "responseTime": 1678827774378,
            "catchQuestion": "How many <b class=\"r\">red<\/b> marbles did you actually draw (before any changes)? ",
            "catchKey": -1,
            "catchResponse": -1,
            "catchTime": 1678827748748,
            "trialTime": 0
        },
        {
            "exptPart": "trial",
            "trialNumber": 64,
            "roleCurrent": "receiver",
            "marblesSampled": 100,
            "probRed": 0.5,
            "lambda": 5,
            "drawnRed": 74,
            "reportedRed": 76,
            "inferredRed": 75,
            "playerTrialScore": -1,
            "oppTrialScore": 1,
            "playerTotalScore": -180,
            "oppTotalScore": -160,
            "waitTime": 6760.853735231374,
            "responseTime": 1678827791282,
            "catchQuestion": "How many <b class=\"r\">red<\/b> marbles did you actually draw (before any changes)? ",
            "catchKey": -1,
            "catchResponse": -1,
            "catchTime": 1678827748748,
            "trialTime": 0
        },
        {
            "exptPart": "trial",
            "trialNumber": 65,
            "roleCurrent": "sender",
            "marblesSampled": 100,
            "probRed": 0.5,
            "lambda": 5,
            "drawnRed": 53,
            "reportedRed": 52,
            "inferredRed": 49,
            "playerTrialScore": 0,
            "oppTrialScore": -4,
            "playerTotalScore": -180,
            "oppTotalScore": -164,
            "waitTime": 2440.738887081729,
            "responseTime": 1678827800004,
            "catchQuestion": "How many <b class=\"r\">red<\/b> marbles did you actually draw (before any changes)? ",
            "catchKey": 53,
            "catchResponse": 53,
            "catchTime": 1678827800005,
            "trialTime": 0
        },
        {
            "exptPart": "trial",
            "trialNumber": 66,
            "roleCurrent": "receiver",
            "marblesSampled": 100,
            "probRed": 0.5,
            "lambda": 5,
            "drawnRed": 86,
            "reportedRed": 92,
            "inferredRed": 50,
            "playerTrialScore": -36,
            "oppTrialScore": 0,
            "playerTotalScore": -216,
            "oppTotalScore": -164,
            "waitTime": 6671.378835005235,
            "responseTime": 1678827819802,
            "catchQuestion": "How many <b class=\"r\">red<\/b> marbles did you actually draw (before any changes)? ",
            "catchKey": -1,
            "catchResponse": -1,
            "catchTime": 1678827800005,
            "trialTime": 0
        },
        {
            "exptPart": "trial",
            "trialNumber": 67,
            "roleCurrent": "sender",
            "marblesSampled": 100,
            "probRed": 0.5,
            "lambda": 5,
            "drawnRed": 62,
            "reportedRed": 62,
            "inferredRed": 57,
            "playerTrialScore": 0,
            "oppTrialScore": -5,
            "playerTotalScore": -216,
            "oppTotalScore": -169,
            "waitTime": 2361.387115849806,
            "responseTime": 1678827827879,
            "catchQuestion": "How many <b class=\"r\">red<\/b> marbles did you actually draw (before any changes)? ",
            "catchKey": 62,
            "catchResponse": 62,
            "catchTime": 1678827827879,
            "trialTime": 0
        },
        {
            "exptPart": "trial",
            "trialNumber": 68,
            "roleCurrent": "receiver",
            "marblesSampled": 100,
            "probRed": 0.5,
            "lambda": 5,
            "drawnRed": 60,
            "reportedRed": 66,
            "inferredRed": 66,
            "playerTrialScore": -6,
            "oppTrialScore": 6,
            "playerTotalScore": -222,
            "oppTotalScore": -163,
            "waitTime": 6841.981884486599,
            "responseTime": 1678827844449,
            "catchQuestion": "How many <b class=\"r\">red<\/b> marbles did you actually draw (before any changes)? ",
            "catchKey": -1,
            "catchResponse": -1,
            "catchTime": 1678827827879,
            "trialTime": 0
        },
        {
            "exptPart": "trial",
            "trialNumber": 69,
            "roleCurrent": "sender",
            "marblesSampled": 100,
            "probRed": 0.5,
            "lambda": 5,
            "drawnRed": 52,
            "reportedRed": 52,
            "inferredRed": 49,
            "playerTrialScore": 0,
            "oppTrialScore": -3,
            "playerTotalScore": -222,
            "oppTotalScore": -166,
            "waitTime": 2901.990453084915,
            "responseTime": 1678827852215,
            "catchQuestion": "How many <b class=\"r\">red<\/b> marbles did you actually draw (before any changes)? ",
            "catchKey": -1,
            "catchResponse": -1,
            "catchTime": 1678827827879,
            "trialTime": 0
        },
        {
            "exptPart": "trial",
            "trialNumber": 70,
            "roleCurrent": "receiver",
            "marblesSampled": 100,
            "probRed": 0.5,
            "lambda": 5,
            "drawnRed": 62,
            "reportedRed": 66,
            "inferredRed": 66,
            "playerTrialScore": -4,
            "oppTrialScore": 4,
            "playerTotalScore": -226,
            "oppTotalScore": -162,
            "waitTime": 6377.424232712499,
            "responseTime": 1678827864757,
            "catchQuestion": "How many <b class=\"r\">red<\/b> marbles did you actually draw (before any changes)? ",
            "catchKey": -1,
            "catchResponse": -1,
            "catchTime": 1678827864757,
            "trialTime": 0
        },
        {
            "exptPart": "trial",
            "trialNumber": 71,
            "roleCurrent": "sender",
            "marblesSampled": 100,
            "probRed": 0.5,
            "lambda": 5,
            "drawnRed": 6,
            "reportedRed": 6,
            "inferredRed": 5,
            "playerTrialScore": 0,
            "oppTrialScore": -1,
            "playerTotalScore": -226,
            "oppTotalScore": -163,
            "waitTime": 2169.3819761185987,
            "responseTime": 1678827877379,
            "catchQuestion": "How many <b class=\"r\">red<\/b> marbles did you actually draw (before any changes)? ",
            "catchKey": 6,
            "catchResponse": 6,
            "catchTime": 1678827877379,
            "trialTime": 0
        },
        {
            "exptPart": "trial",
            "trialNumber": 72,
            "roleCurrent": "receiver",
            "marblesSampled": 100,
            "probRed": 0.5,
            "lambda": 5,
            "drawnRed": 36,
            "reportedRed": 39,
            "inferredRed": 1,
            "playerTrialScore": -35,
            "oppTrialScore": 0,
            "playerTotalScore": -261,
            "oppTotalScore": -163,
            "waitTime": 6720.473250229848,
            "responseTime": 1678827891600,
            "catchQuestion": "How many <b class=\"r\">red<\/b> marbles did you actually draw (before any changes)? ",
            "catchKey": -1,
            "catchResponse": -1,
            "catchTime": 1678827877379,
            "trialTime": 0
        },
        {
            "exptPart": "trial",
            "trialNumber": 73,
            "roleCurrent": "sender",
            "marblesSampled": 100,
            "probRed": 0.5,
            "lambda": 5,
            "drawnRed": 80,
            "reportedRed": 80,
            "inferredRed": 73,
            "playerTrialScore": 0,
            "oppTrialScore": -7,
            "playerTotalScore": -261,
            "oppTotalScore": -170,
            "waitTime": 2113.0103977224717,
            "responseTime": 1678827899913,
            "catchQuestion": "How many <b class=\"r\">red<\/b> marbles did you actually draw (before any changes)? ",
            "catchKey": -1,
            "catchResponse": -1,
            "catchTime": 1678827877379,
            "trialTime": 0
        },
        {
            "exptPart": "trial",
            "trialNumber": 74,
            "roleCurrent": "receiver",
            "marblesSampled": 100,
            "probRed": 0.5,
            "lambda": 5,
            "drawnRed": 45,
            "reportedRed": 51,
            "inferredRed": 12,
            "playerTrialScore": -33,
            "oppTrialScore": 0,
            "playerTotalScore": -294,
            "oppTotalScore": -170,
            "waitTime": 7217.140460842313,
            "responseTime": 1678827909989,
            "catchQuestion": "How many <b class=\"r\">red<\/b> marbles did you actually draw (before any changes)? ",
            "catchKey": -1,
            "catchResponse": -1,
            "catchTime": 1678827877379,
            "trialTime": 0
        },
        {
            "exptPart": "trial",
            "trialNumber": 75,
            "roleCurrent": "sender",
            "marblesSampled": 100,
            "probRed": 0.5,
            "lambda": 5,
            "drawnRed": 39,
            "reportedRed": 39,
            "inferredRed": 34,
            "playerTrialScore": 0,
            "oppTrialScore": -5,
            "playerTotalScore": -294,
            "oppTotalScore": -175,
            "waitTime": 2374.0328529436774,
            "responseTime": 1678827918488,
            "catchQuestion": "How many <b class=\"r\">red<\/b> marbles did you actually draw (before any changes)? ",
            "catchKey": -1,
            "catchResponse": -1,
            "catchTime": 1678827918488,
            "trialTime": 0
        },
        {
            "exptPart": "trial",
            "trialNumber": 76,
            "roleCurrent": "receiver",
            "marblesSampled": 100,
            "probRed": 0.5,
            "lambda": 5,
            "drawnRed": 24,
            "reportedRed": 28,
            "inferredRed": 22,
            "playerTrialScore": -2,
            "oppTrialScore": 0,
            "playerTotalScore": -296,
            "oppTotalScore": -175,
            "waitTime": 5625.009432875862,
            "responseTime": 1678827938714,
            "catchQuestion": "How many <b class=\"r\">red<\/b> marbles did you actually draw (before any changes)? ",
            "catchKey": -1,
            "catchResponse": -1,
            "catchTime": 1678827918488,
            "trialTime": 0
        },
        {
            "exptPart": "trial",
            "trialNumber": 77,
            "roleCurrent": "sender",
            "marblesSampled": 100,
            "probRed": 0.5,
            "lambda": 5,
            "drawnRed": 54,
            "reportedRed": 54,
            "inferredRed": 49,
            "playerTrialScore": 0,
            "oppTrialScore": -5,
            "playerTotalScore": -296,
            "oppTotalScore": -180,
            "waitTime": 2685.22359422556,
            "responseTime": 1678827952225,
            "catchQuestion": "How many <b class=\"r\">red<\/b> marbles did you actually draw (before any changes)? ",
            "catchKey": -1,
            "catchResponse": -1,
            "catchTime": 1678827918488,
            "trialTime": 0
        },
        {
            "exptPart": "trial",
            "trialNumber": 78,
            "roleCurrent": "receiver",
            "marblesSampled": 100,
            "probRed": 0.5,
            "lambda": 5,
            "drawnRed": 44,
            "reportedRed": 47,
            "inferredRed": 22,
            "playerTrialScore": -22,
            "oppTrialScore": 0,
            "playerTotalScore": -318,
            "oppTotalScore": -180,
            "waitTime": 5370.356637730611,
            "responseTime": 1678827962620,
            "catchQuestion": "How many <b class=\"r\">red<\/b> marbles did you actually draw (before any changes)? ",
            "catchKey": -1,
            "catchResponse": -1,
            "catchTime": 1678827918488,
            "trialTime": 0
        },
        {
            "exptPart": "trial",
            "trialNumber": 79,
            "roleCurrent": "sender",
            "marblesSampled": 100,
            "probRed": 0.5,
            "lambda": 5,
            "drawnRed": 43,
            "reportedRed": 44,
            "inferredRed": 40,
            "playerTrialScore": 0,
            "oppTrialScore": -3,
            "playerTotalScore": -318,
            "oppTotalScore": -183,
            "waitTime": 2621.7169813381097,
            "responseTime": 1678827972496,
            "catchQuestion": "How many <b class=\"r\">red<\/b> marbles did you actually draw (before any changes)? ",
            "catchKey": 43,
            "catchResponse": 44,
            "catchTime": 1678827972496,
            "trialTime": 0
        },
        {
            "exptPart": "trial",
            "trialNumber": 80,
            "roleCurrent": "receiver",
            "marblesSampled": 100,
            "probRed": 0.5,
            "lambda": 5,
            "drawnRed": 57,
            "reportedRed": 62,
            "inferredRed": 33,
            "playerTrialScore": -24,
            "oppTrialScore": 0,
            "playerTotalScore": -342,
            "oppTotalScore": -183,
            "waitTime": 7451.734220389921,
            "responseTime": 1678827992797,
            "catchQuestion": "How many <b class=\"r\">red<\/b> marbles did you actually draw (before any changes)? ",
            "catchKey": -1,
            "catchResponse": -1,
            "catchTime": 1678827992797,
            "trialTime": 0
        },
        {
            "exptPart": "trial",
            "trialNumber": 81,
            "roleCurrent": "sender",
            "marblesSampled": 100,
            "probRed": 0.5,
            "lambda": 5,
            "drawnRed": 44,
            "reportedRed": 44,
            "inferredRed": 40,
            "playerTrialScore": 0,
            "oppTrialScore": -4,
            "playerTotalScore": -342,
            "oppTotalScore": -187,
            "waitTime": 2353.872915979478,
            "responseTime": 1678828003939,
            "catchQuestion": "How many <b class=\"r\">red<\/b> marbles did you actually draw (before any changes)? ",
            "catchKey": -1,
            "catchResponse": -1,
            "catchTime": 1678827992797,
            "trialTime": 0
        },
        {
            "exptPart": "trial",
            "trialNumber": 82,
            "roleCurrent": "receiver",
            "marblesSampled": 100,
            "probRed": 0.5,
            "lambda": 5,
            "drawnRed": 72,
            "reportedRed": 76,
            "inferredRed": 66,
            "playerTrialScore": -6,
            "oppTrialScore": 0,
            "playerTotalScore": -348,
            "oppTotalScore": -187,
            "waitTime": 5218.363877125384,
            "responseTime": 1678828012705,
            "catchQuestion": "How many <b class=\"r\">red<\/b> marbles did you actually draw (before any changes)? ",
            "catchKey": -1,
            "catchResponse": -1,
            "catchTime": 1678827992797,
            "trialTime": 0
        },
        {
            "exptPart": "trial",
            "trialNumber": 83,
            "roleCurrent": "sender",
            "marblesSampled": 100,
            "probRed": 0.5,
            "lambda": 5,
            "drawnRed": 52,
            "reportedRed": 51,
            "inferredRed": 44,
            "playerTrialScore": 0,
            "oppTrialScore": -8,
            "playerTotalScore": -348,
            "oppTotalScore": -195,
            "waitTime": 2709.7668139231446,
            "responseTime": 1678828024277,
            "catchQuestion": "How many <b class=\"r\">red<\/b> marbles did you actually draw (before any changes)? ",
            "catchKey": -1,
            "catchResponse": -1,
            "catchTime": 1678827992797,
            "trialTime": 0
        },
        {
            "exptPart": "trial",
            "trialNumber": 84,
            "roleCurrent": "receiver",
            "marblesSampled": 100,
            "probRed": 0.5,
            "lambda": 5,
            "drawnRed": 17,
            "reportedRed": 21,
            "inferredRed": 2,
            "playerTrialScore": -15,
            "oppTrialScore": 0,
            "playerTotalScore": -363,
            "oppTotalScore": -195,
            "waitTime": 7301.898652372217,
            "responseTime": 1678828036463,
            "catchQuestion": "How many <b class=\"r\">red<\/b> marbles did you actually draw (before any changes)? ",
            "catchKey": -1,
            "catchResponse": -1,
            "catchTime": 1678827992797,
            "trialTime": 0
        },
        {
            "exptPart": "trial",
            "trialNumber": 85,
            "roleCurrent": "sender",
            "marblesSampled": 100,
            "probRed": 0.5,
            "lambda": 5,
            "drawnRed": 66,
            "reportedRed": 66,
            "inferredRed": 60,
            "playerTrialScore": 0,
            "oppTrialScore": -6,
            "playerTotalScore": -363,
            "oppTotalScore": -201,
            "waitTime": 2127.6834351836437,
            "responseTime": 1678828043622,
            "catchQuestion": "How many <b class=\"r\">red<\/b> marbles did you actually draw (before any changes)? ",
            "catchKey": 66,
            "catchResponse": 2,
            "catchTime": 1678828043622,
            "trialTime": 0
        },
        {
            "exptPart": "trial",
            "trialNumber": 86,
            "roleCurrent": "receiver",
            "marblesSampled": 100,
            "probRed": 0.5,
            "lambda": 5,
            "drawnRed": 76,
            "reportedRed": 76,
            "inferredRed": 77,
            "playerTrialScore": -1,
            "oppTrialScore": 1,
            "playerTotalScore": -364,
            "oppTotalScore": -200,
            "waitTime": 5228.023517714864,
            "responseTime": 1678828064670,
            "catchQuestion": "How many <b class=\"r\">red<\/b> marbles did your opponent report drawing? ",
            "catchKey": 76,
            "catchResponse": 76,
            "catchTime": 1678828064670,
            "trialTime": 0
        },
        {
            "exptPart": "trial",
            "trialNumber": 87,
            "roleCurrent": "sender",
            "marblesSampled": 100,
            "probRed": 0.5,
            "lambda": 5,
            "drawnRed": 47,
            "reportedRed": 47,
            "inferredRed": 41,
            "playerTrialScore": 0,
            "oppTrialScore": -6,
            "playerTotalScore": -364,
            "oppTotalScore": -206,
            "waitTime": 2353.330456915597,
            "responseTime": 1678828079417,
            "catchQuestion": "How many <b class=\"r\">red<\/b> marbles did your opponent report drawing? ",
            "catchKey": -1,
            "catchResponse": -1,
            "catchTime": 1678828064670,
            "trialTime": 0
        },
        {
            "exptPart": "trial",
            "trialNumber": 88,
            "roleCurrent": "receiver",
            "marblesSampled": 100,
            "probRed": 0.5,
            "lambda": 5,
            "drawnRed": 74,
            "reportedRed": 80,
            "inferredRed": 70,
            "playerTrialScore": -4,
            "oppTrialScore": 0,
            "playerTotalScore": -368,
            "oppTotalScore": -206,
            "waitTime": 6055.556163387466,
            "responseTime": 1678828091544,
            "catchQuestion": "How many <b class=\"r\">red<\/b> marbles did your opponent report drawing? ",
            "catchKey": -1,
            "catchResponse": -1,
            "catchTime": 1678828064670,
            "trialTime": 0
        },
        {
            "exptPart": "trial",
            "trialNumber": 89,
            "roleCurrent": "sender",
            "marblesSampled": 100,
            "probRed": 0.5,
            "lambda": 5,
            "drawnRed": 47,
            "reportedRed": 47,
            "inferredRed": 42,
            "playerTrialScore": 0,
            "oppTrialScore": -5,
            "playerTotalScore": -368,
            "oppTotalScore": -211,
            "waitTime": 2421.8721813220714,
            "responseTime": 1678828103841,
            "catchQuestion": "How many <b class=\"r\">red<\/b> marbles did your opponent report drawing? ",
            "catchKey": -1,
            "catchResponse": -1,
            "catchTime": 1678828064670,
            "trialTime": 0
        },
        {
            "exptPart": "trial",
            "trialNumber": 90,
            "roleCurrent": "receiver",
            "marblesSampled": 100,
            "probRed": 0.5,
            "lambda": 5,
            "drawnRed": 21,
            "reportedRed": 25,
            "inferredRed": 1,
            "playerTrialScore": -20,
            "oppTrialScore": 0,
            "playerTotalScore": -388,
            "oppTotalScore": -211,
            "waitTime": 5877.847477741693,
            "responseTime": 1678828118003,
            "catchQuestion": "How many <b class=\"r\">red<\/b> marbles did your opponent report drawing? ",
            "catchKey": -1,
            "catchResponse": -1,
            "catchTime": 1678828118003,
            "trialTime": 0
        },
        {
            "exptPart": "trial",
            "trialNumber": 91,
            "roleCurrent": "sender",
            "marblesSampled": 100,
            "probRed": 0.5,
            "lambda": 5,
            "drawnRed": 54,
            "reportedRed": 54,
            "inferredRed": 43,
            "playerTrialScore": 0,
            "oppTrialScore": -11,
            "playerTotalScore": -388,
            "oppTotalScore": -222,
            "waitTime": 2935.836331028884,
            "responseTime": 1678828128885,
            "catchQuestion": "How many <b class=\"r\">red<\/b> marbles did your opponent report drawing? ",
            "catchKey": -1,
            "catchResponse": -1,
            "catchTime": 1678828118003,
            "trialTime": 0
        },
        {
            "exptPart": "trial",
            "trialNumber": 92,
            "roleCurrent": "receiver",
            "marblesSampled": 100,
            "probRed": 0.5,
            "lambda": 5,
            "drawnRed": 15,
            "reportedRed": 23,
            "inferredRed": 1,
            "playerTrialScore": -14,
            "oppTrialScore": 0,
            "playerTotalScore": -402,
            "oppTotalScore": -222,
            "waitTime": 5437.7646512836345,
            "responseTime": 1678828137866,
            "catchQuestion": "How many <b class=\"r\">red<\/b> marbles did your opponent report drawing? ",
            "catchKey": 23,
            "catchResponse": 1,
            "catchTime": 1678828137866,
            "trialTime": 0
        },
        {
            "exptPart": "trial",
            "trialNumber": 93,
            "roleCurrent": "sender",
            "marblesSampled": 100,
            "probRed": 0.5,
            "lambda": 5,
            "drawnRed": 51,
            "reportedRed": 52,
            "inferredRed": 51,
            "playerTrialScore": 0,
            "oppTrialScore": 0,
            "playerTotalScore": -402,
            "oppTotalScore": -222,
            "waitTime": 2661.352620281802,
            "responseTime": 1678828164947,
            "catchQuestion": "How many <b class=\"r\">red<\/b> marbles did your opponent report drawing? ",
            "catchKey": -1,
            "catchResponse": -1,
            "catchTime": 1678828137866,
            "trialTime": 0
        },
        {
            "exptPart": "trial",
            "trialNumber": 94,
            "roleCurrent": "receiver",
            "marblesSampled": 100,
            "probRed": 0.5,
            "lambda": 5,
            "drawnRed": 43,
            "reportedRed": 51,
            "inferredRed": 43,
            "playerTrialScore": 0,
            "oppTrialScore": 0,
            "playerTotalScore": -402,
            "oppTotalScore": -222,
            "waitTime": 5292.347789090889,
            "responseTime": 1678828174779,
            "catchQuestion": "How many <b class=\"r\">red<\/b> marbles did your opponent report drawing? ",
            "catchKey": -1,
            "catchResponse": -1,
            "catchTime": 1678828137866,
            "trialTime": 0
        },
        {
            "exptPart": "trial",
            "trialNumber": 95,
            "roleCurrent": "sender",
            "marblesSampled": 100,
            "probRed": 0.5,
            "lambda": 5,
            "drawnRed": 57,
            "reportedRed": 56,
            "inferredRed": 52,
            "playerTrialScore": 0,
            "oppTrialScore": -5,
            "playerTotalScore": -402,
            "oppTotalScore": -227,
            "waitTime": 2143.4941585457823,
            "responseTime": 1678828185063,
            "catchQuestion": "How many <b class=\"r\">red<\/b> marbles did your opponent report drawing? ",
            "catchKey": -1,
            "catchResponse": -1,
            "catchTime": 1678828185063,
            "trialTime": 0
        },
        {
            "exptPart": "trial",
            "trialNumber": 96,
            "roleCurrent": "receiver",
            "marblesSampled": 100,
            "probRed": 0.5,
            "lambda": 5,
            "drawnRed": 42,
            "reportedRed": 46,
            "inferredRed": 48,
            "playerTrialScore": -6,
            "oppTrialScore": 6,
            "playerTotalScore": -408,
            "oppTotalScore": -221,
            "waitTime": 5784.560946053396,
            "responseTime": 1678828199456,
            "catchQuestion": "How many <b class=\"r\">red<\/b> marbles did your opponent report drawing? ",
            "catchKey": -1,
            "catchResponse": -1,
            "catchTime": 1678828185063,
            "trialTime": 0
        },
        {
            "exptPart": "trial",
            "trialNumber": 97,
            "roleCurrent": "sender",
            "marblesSampled": 100,
            "probRed": 0.5,
            "lambda": 5,
            "drawnRed": 52,
            "reportedRed": 51,
            "inferredRed": 48,
            "playerTrialScore": 0,
            "oppTrialScore": -4,
            "playerTotalScore": -408,
            "oppTotalScore": -225,
            "waitTime": 2629.453974850644,
            "responseTime": 1678828210672,
            "catchQuestion": "How many <b class=\"r\">red<\/b> marbles did your opponent report drawing? ",
            "catchKey": -1,
            "catchResponse": -1,
            "catchTime": 1678828185063,
            "trialTime": 0
        },
        {
            "exptPart": "trial",
            "trialNumber": 98,
            "roleCurrent": "receiver",
            "marblesSampled": 100,
            "probRed": 0.5,
            "lambda": 5,
            "drawnRed": 56,
            "reportedRed": 60,
            "inferredRed": 58,
            "playerTrialScore": -2,
            "oppTrialScore": 2,
            "playerTotalScore": -410,
            "oppTotalScore": -223,
            "waitTime": 5450.59268041877,
            "responseTime": 1678828220993,
            "catchQuestion": "How many <b class=\"r\">red<\/b> marbles did your opponent report drawing? ",
            "catchKey": -1,
            "catchResponse": -1,
            "catchTime": 1678828185063,
            "trialTime": 0
        },
        {
            "exptPart": "trial",
            "trialNumber": 99,
            "roleCurrent": "sender",
            "marblesSampled": 100,
            "probRed": 0.5,
            "lambda": 5,
            "drawnRed": 43,
            "reportedRed": 44,
            "inferredRed": 37,
            "playerTrialScore": 0,
            "oppTrialScore": -6,
            "playerTotalScore": -410,
            "oppTotalScore": -229,
            "waitTime": 2494.2183544842483,
            "responseTime": 1678828230749,
            "catchQuestion": "How many <b class=\"r\">red<\/b> marbles did your opponent report drawing? ",
            "catchKey": -1,
            "catchResponse": -1,
            "catchTime": 1678828185063,
            "trialTime": 0
        },
        {
            "exptPart": "trial",
            "trialNumber": 100,
            "roleCurrent": "receiver",
            "marblesSampled": 100,
            "probRed": 0.5,
            "lambda": 5,
            "drawnRed": 67,
            "reportedRed": 69,
            "inferredRed": 23,
            "playerTrialScore": -44,
            "oppTrialScore": 0,
            "playerTotalScore": -454,
            "oppTotalScore": -229,
            "waitTime": 6052.673972089823,
            "responseTime": 1678828243018,
            "catchQuestion": "How many <b class=\"r\">red<\/b> marbles did your opponent report drawing? ",
            "catchKey": -1,
            "catchResponse": -1,
            "catchTime": 1678828243018,
            "trialTime": 0
        }
    ]
}