{
    "client": {
        "type": "sona",
        "experiment_id": 2228,
        "credit_token": "b315147ae43241ea9c65086cb510cfb7",
        "survey_code": "45000",
        "sid": "sona-45000",
        "window": {
            "width": 1264,
            "height": 563
        },
        "screen": {
            "width": 1280,
            "height": 800
        },
        "userAgent": "Mozilla\/5.0 (Macintosh; Intel Mac OS X 10_15_7) AppleWebKit\/537.36 (KHTML, like Gecko) Chrome\/111.0.0.0 Safari\/537.36",
        "score": 0,
        "bonus": 0
    },
    "expt": {
        "saveURL": "submit.simple.php",
        "trials": 100,
        "practiceTrials": 2,
        "marblesSampled": 100,
        "probRed": 0.5,
        "lambdaAI": 5,
        "roleFirst": "sender",
        "roles": [
            "sender",
            "receiver"
        ],
        "cost": "linear",
        "goal": "over",
        "goalInstructTxt": "below",
        "catchTrials": [
            70,
            85,
            11,
            33,
            59,
            60,
            4,
            72,
            77,
            23
        ],
        "scoreTotal": {
            "player": -263,
            "opp": -34
        },
        "sona": {
            "experiment_id": 2228,
            "credit_token": "b315147ae43241ea9c65086cb510cfb7"
        },
        "pilot": false,
        "debug": false
    },
    "trials": [
        {
            "exptPart": "practice",
            "trialNumber": 1,
            "roleCurrent": "sender",
            "marblesSampled": 100,
            "probRed": 0.5,
            "lambda": 5,
            "drawnRed": 69,
            "reportedRed": 68,
            "inferredRed": 63,
            "playerTrialScore": 0,
            "oppTrialScore": -6,
            "playerTotalScore": 0,
            "oppTotalScore": -6,
            "waitTime": 2928.0912116716654,
            "responseTime": 1680647713977,
            "catchQuestion": "How many <b class=\"r\">red<\/b> marbles did you actually draw (before any changes)? ",
            "catchKey": 69,
            "catchResponse": 69,
            "catchTime": 1680647713977,
            "trialTime": 0
        },
        {
            "exptPart": "practice",
            "trialNumber": 2,
            "roleCurrent": "receiver",
            "marblesSampled": 100,
            "probRed": 0.5,
            "lambda": 5,
            "drawnRed": 34,
            "reportedRed": 39,
            "inferredRed": 39,
            "playerTrialScore": -5,
            "oppTrialScore": 5,
            "playerTotalScore": -5,
            "oppTotalScore": -1,
            "waitTime": 5412.311533059781,
            "responseTime": 1680647756780,
            "catchQuestion": "How many <b class=\"r\">red<\/b> marbles did your opponent report drawing? ",
            "catchKey": 39,
            "catchResponse": 39,
            "catchTime": 1680647756780,
            "trialTime": 0
        },
        {
            "exptPart": "trial",
            "trialNumber": 1,
            "roleCurrent": "sender",
            "marblesSampled": 100,
            "probRed": 0.5,
            "lambda": 5,
            "drawnRed": 41,
            "reportedRed": 38,
            "inferredRed": 37,
            "playerTrialScore": 0,
            "oppTrialScore": -4,
            "playerTotalScore": 0,
            "oppTotalScore": -4,
            "waitTime": 2177.1844062291775,
            "responseTime": 1680647816798,
            "catchQuestion": "How many <b class=\"r\">red<\/b> marbles did your opponent report drawing? ",
            "catchKey": -1,
            "catchResponse": -1,
            "catchTime": 1680647756780,
            "trialTime": 0
        },
        {
            "exptPart": "trial",
            "trialNumber": 2,
            "roleCurrent": "receiver",
            "marblesSampled": 100,
            "probRed": 0.5,
            "lambda": 5,
            "drawnRed": 59,
            "reportedRed": 66,
            "inferredRed": 64,
            "playerTrialScore": -5,
            "oppTrialScore": 5,
            "playerTotalScore": -5,
            "oppTotalScore": 1,
            "waitTime": 6641.849114828841,
            "responseTime": 1680647834076,
            "catchQuestion": "How many <b class=\"r\">red<\/b> marbles did your opponent report drawing? ",
            "catchKey": -1,
            "catchResponse": -1,
            "catchTime": 1680647756780,
            "trialTime": 0
        },
        {
            "exptPart": "trial",
            "trialNumber": 3,
            "roleCurrent": "sender",
            "marblesSampled": 100,
            "probRed": 0.5,
            "lambda": 5,
            "drawnRed": 53,
            "reportedRed": 54,
            "inferredRed": 51,
            "playerTrialScore": 0,
            "oppTrialScore": -2,
            "playerTotalScore": -5,
            "oppTotalScore": -1,
            "waitTime": 2908.0736256892264,
            "responseTime": 1680647882805,
            "catchQuestion": "How many <b class=\"r\">red<\/b> marbles did your opponent report drawing? ",
            "catchKey": -1,
            "catchResponse": -1,
            "catchTime": 1680647756780,
            "trialTime": 0
        },
        {
            "exptPart": "trial",
            "trialNumber": 4,
            "roleCurrent": "receiver",
            "marblesSampled": 100,
            "probRed": 0.5,
            "lambda": 5,
            "drawnRed": 67,
            "reportedRed": 69,
            "inferredRed": 60,
            "playerTrialScore": -7,
            "oppTrialScore": 0,
            "playerTotalScore": -12,
            "oppTotalScore": -1,
            "waitTime": 6260.802366722186,
            "responseTime": 1680647900827,
            "catchQuestion": "How many <b class=\"r\">red<\/b> marbles did your opponent report drawing? ",
            "catchKey": -1,
            "catchResponse": -1,
            "catchTime": 1680647756780,
            "trialTime": 0
        },
        {
            "exptPart": "trial",
            "trialNumber": 5,
            "roleCurrent": "sender",
            "marblesSampled": 100,
            "probRed": 0.5,
            "lambda": 5,
            "drawnRed": 14,
            "reportedRed": 18,
            "inferredRed": 9,
            "playerTrialScore": 0,
            "oppTrialScore": -5,
            "playerTotalScore": -12,
            "oppTotalScore": -6,
            "waitTime": 3000.1828464445007,
            "responseTime": 1680647929546,
            "catchQuestion": "How many <b class=\"r\">red<\/b> marbles did you actually draw (before any changes)? ",
            "catchKey": 14,
            "catchResponse": 18,
            "catchTime": 1680647929546,
            "trialTime": 0
        },
        {
            "exptPart": "trial",
            "trialNumber": 6,
            "roleCurrent": "receiver",
            "marblesSampled": 100,
            "probRed": 0.5,
            "lambda": 5,
            "drawnRed": 79,
            "reportedRed": 87,
            "inferredRed": 87,
            "playerTrialScore": -8,
            "oppTrialScore": 8,
            "playerTotalScore": -20,
            "oppTotalScore": 2,
            "waitTime": 7356.203268935263,
            "responseTime": 1680647972047,
            "catchQuestion": "How many <b class=\"r\">red<\/b> marbles did you actually draw (before any changes)? ",
            "catchKey": -1,
            "catchResponse": -1,
            "catchTime": 1680647929546,
            "trialTime": 0
        },
        {
            "exptPart": "trial",
            "trialNumber": 7,
            "roleCurrent": "sender",
            "marblesSampled": 100,
            "probRed": 0.5,
            "lambda": 5,
            "drawnRed": 49,
            "reportedRed": 44,
            "inferredRed": 38,
            "playerTrialScore": 0,
            "oppTrialScore": -11,
            "playerTotalScore": -20,
            "oppTotalScore": -9,
            "waitTime": 2150.0883913888138,
            "responseTime": 1680648011409,
            "catchQuestion": "How many <b class=\"r\">red<\/b> marbles did you actually draw (before any changes)? ",
            "catchKey": -1,
            "catchResponse": -1,
            "catchTime": 1680647929546,
            "trialTime": 0
        },
        {
            "exptPart": "trial",
            "trialNumber": 8,
            "roleCurrent": "receiver",
            "marblesSampled": 100,
            "probRed": 0.5,
            "lambda": 5,
            "drawnRed": 60,
            "reportedRed": 70,
            "inferredRed": 65,
            "playerTrialScore": -5,
            "oppTrialScore": 5,
            "playerTotalScore": -25,
            "oppTotalScore": -4,
            "waitTime": 6481.774462225467,
            "responseTime": 1680648066364,
            "catchQuestion": "How many <b class=\"r\">red<\/b> marbles did you actually draw (before any changes)? ",
            "catchKey": -1,
            "catchResponse": -1,
            "catchTime": 1680647929546,
            "trialTime": 0
        },
        {
            "exptPart": "trial",
            "trialNumber": 9,
            "roleCurrent": "sender",
            "marblesSampled": 100,
            "probRed": 0.5,
            "lambda": 5,
            "drawnRed": 50,
            "reportedRed": 50,
            "inferredRed": 47,
            "playerTrialScore": 0,
            "oppTrialScore": -3,
            "playerTotalScore": -25,
            "oppTotalScore": -7,
            "waitTime": 3102.9676390722566,
            "responseTime": 1680648077594,
            "catchQuestion": "How many <b class=\"r\">red<\/b> marbles did you actually draw (before any changes)? ",
            "catchKey": -1,
            "catchResponse": -1,
            "catchTime": 1680647929546,
            "trialTime": 0
        },
        {
            "exptPart": "trial",
            "trialNumber": 10,
            "roleCurrent": "receiver",
            "marblesSampled": 100,
            "probRed": 0.5,
            "lambda": 5,
            "drawnRed": 37,
            "reportedRed": 40,
            "inferredRed": 39,
            "playerTrialScore": -2,
            "oppTrialScore": 2,
            "playerTotalScore": -27,
            "oppTotalScore": -5,
            "waitTime": 6214.507853340127,
            "responseTime": 1680648098258,
            "catchQuestion": "How many <b class=\"r\">red<\/b> marbles did you actually draw (before any changes)? ",
            "catchKey": -1,
            "catchResponse": -1,
            "catchTime": 1680648098258,
            "trialTime": 0
        },
        {
            "exptPart": "trial",
            "trialNumber": 11,
            "roleCurrent": "sender",
            "marblesSampled": 100,
            "probRed": 0.5,
            "lambda": 5,
            "drawnRed": 37,
            "reportedRed": 37,
            "inferredRed": 35,
            "playerTrialScore": 0,
            "oppTrialScore": -2,
            "playerTotalScore": -27,
            "oppTotalScore": -7,
            "waitTime": 3185.5523084682313,
            "responseTime": 1680648118971,
            "catchQuestion": "How many <b class=\"r\">red<\/b> marbles did you actually draw (before any changes)? ",
            "catchKey": -1,
            "catchResponse": -1,
            "catchTime": 1680648098258,
            "trialTime": 0
        },
        {
            "exptPart": "trial",
            "trialNumber": 12,
            "roleCurrent": "receiver",
            "marblesSampled": 100,
            "probRed": 0.5,
            "lambda": 5,
            "drawnRed": 36,
            "reportedRed": 43,
            "inferredRed": 43,
            "playerTrialScore": -7,
            "oppTrialScore": 7,
            "playerTotalScore": -34,
            "oppTotalScore": 0,
            "waitTime": 5325.618940986193,
            "responseTime": 1680648131594,
            "catchQuestion": "How many <b class=\"r\">red<\/b> marbles did your opponent report drawing? ",
            "catchKey": 43,
            "catchResponse": 43,
            "catchTime": 1680648131594,
            "trialTime": 0
        },
        {
            "exptPart": "trial",
            "trialNumber": 13,
            "roleCurrent": "sender",
            "marblesSampled": 100,
            "probRed": 0.5,
            "lambda": 5,
            "drawnRed": 26,
            "reportedRed": 34,
            "inferredRed": 29,
            "playerTrialScore": 3,
            "oppTrialScore": -3,
            "playerTotalScore": -31,
            "oppTotalScore": -3,
            "waitTime": 2782.748904742487,
            "responseTime": 1680648171114,
            "catchQuestion": "How many <b class=\"r\">red<\/b> marbles did your opponent report drawing? ",
            "catchKey": -1,
            "catchResponse": -1,
            "catchTime": 1680648131594,
            "trialTime": 0
        },
        {
            "exptPart": "trial",
            "trialNumber": 14,
            "roleCurrent": "receiver",
            "marblesSampled": 100,
            "probRed": 0.5,
            "lambda": 5,
            "drawnRed": 56,
            "reportedRed": 61,
            "inferredRed": 70,
            "playerTrialScore": -14,
            "oppTrialScore": 14,
            "playerTotalScore": -45,
            "oppTotalScore": 11,
            "waitTime": 6906.74171332794,
            "responseTime": 1680648192119,
            "catchQuestion": "How many <b class=\"r\">red<\/b> marbles did your opponent report drawing? ",
            "catchKey": -1,
            "catchResponse": -1,
            "catchTime": 1680648131594,
            "trialTime": 0
        },
        {
            "exptPart": "trial",
            "trialNumber": 15,
            "roleCurrent": "sender",
            "marblesSampled": 100,
            "probRed": 0.5,
            "lambda": 5,
            "drawnRed": 10,
            "reportedRed": 10,
            "inferredRed": 7,
            "playerTrialScore": 0,
            "oppTrialScore": -3,
            "playerTotalScore": -45,
            "oppTotalScore": 8,
            "waitTime": 2844.9548779544657,
            "responseTime": 1680648204860,
            "catchQuestion": "How many <b class=\"r\">red<\/b> marbles did your opponent report drawing? ",
            "catchKey": -1,
            "catchResponse": -1,
            "catchTime": 1680648204860,
            "trialTime": 0
        },
        {
            "exptPart": "trial",
            "trialNumber": 16,
            "roleCurrent": "receiver",
            "marblesSampled": 100,
            "probRed": 0.5,
            "lambda": 5,
            "drawnRed": 51,
            "reportedRed": 57,
            "inferredRed": 57,
            "playerTrialScore": -6,
            "oppTrialScore": 6,
            "playerTotalScore": -51,
            "oppTotalScore": 14,
            "waitTime": 5491.240065084434,
            "responseTime": 1680648220211,
            "catchQuestion": "How many <b class=\"r\">red<\/b> marbles did your opponent report drawing? ",
            "catchKey": -1,
            "catchResponse": -1,
            "catchTime": 1680648204860,
            "trialTime": 0
        },
        {
            "exptPart": "trial",
            "trialNumber": 17,
            "roleCurrent": "sender",
            "marblesSampled": 100,
            "probRed": 0.5,
            "lambda": 5,
            "drawnRed": 51,
            "reportedRed": 51,
            "inferredRed": 48,
            "playerTrialScore": 0,
            "oppTrialScore": -3,
            "playerTotalScore": -51,
            "oppTotalScore": 11,
            "waitTime": 2431.8559976503575,
            "responseTime": 1680648235179,
            "catchQuestion": "How many <b class=\"r\">red<\/b> marbles did your opponent report drawing? ",
            "catchKey": -1,
            "catchResponse": -1,
            "catchTime": 1680648204860,
            "trialTime": 0
        },
        {
            "exptPart": "trial",
            "trialNumber": 18,
            "roleCurrent": "receiver",
            "marblesSampled": 100,
            "probRed": 0.5,
            "lambda": 5,
            "drawnRed": 23,
            "reportedRed": 32,
            "inferredRed": 30,
            "playerTrialScore": -7,
            "oppTrialScore": 7,
            "playerTotalScore": -58,
            "oppTotalScore": 18,
            "waitTime": 5581.348575795902,
            "responseTime": 1680648248321,
            "catchQuestion": "How many <b class=\"r\">red<\/b> marbles did your opponent report drawing? ",
            "catchKey": -1,
            "catchResponse": -1,
            "catchTime": 1680648204860,
            "trialTime": 0
        },
        {
            "exptPart": "trial",
            "trialNumber": 19,
            "roleCurrent": "sender",
            "marblesSampled": 100,
            "probRed": 0.5,
            "lambda": 5,
            "drawnRed": 57,
            "reportedRed": 57,
            "inferredRed": 51,
            "playerTrialScore": 0,
            "oppTrialScore": -6,
            "playerTotalScore": -58,
            "oppTotalScore": 12,
            "waitTime": 2086.207225588123,
            "responseTime": 1680648264324,
            "catchQuestion": "How many <b class=\"r\">red<\/b> marbles did your opponent report drawing? ",
            "catchKey": -1,
            "catchResponse": -1,
            "catchTime": 1680648204860,
            "trialTime": 0
        },
        {
            "exptPart": "trial",
            "trialNumber": 20,
            "roleCurrent": "receiver",
            "marblesSampled": 100,
            "probRed": 0.5,
            "lambda": 5,
            "drawnRed": 74,
            "reportedRed": 75,
            "inferredRed": 73,
            "playerTrialScore": -1,
            "oppTrialScore": 0,
            "playerTotalScore": -59,
            "oppTotalScore": 12,
            "waitTime": 6162.801496177119,
            "responseTime": 1680648277198,
            "catchQuestion": "How many <b class=\"r\">red<\/b> marbles did your opponent report drawing? ",
            "catchKey": -1,
            "catchResponse": -1,
            "catchTime": 1680648277198,
            "trialTime": 0
        },
        {
            "exptPart": "trial",
            "trialNumber": 21,
            "roleCurrent": "sender",
            "marblesSampled": 100,
            "probRed": 0.5,
            "lambda": 5,
            "drawnRed": 30,
            "reportedRed": 30,
            "inferredRed": 24,
            "playerTrialScore": 0,
            "oppTrialScore": -6,
            "playerTotalScore": -59,
            "oppTotalScore": 6,
            "waitTime": 2875.2217399127603,
            "responseTime": 1680648289125,
            "catchQuestion": "How many <b class=\"r\">red<\/b> marbles did your opponent report drawing? ",
            "catchKey": -1,
            "catchResponse": -1,
            "catchTime": 1680648277198,
            "trialTime": 0
        },
        {
            "exptPart": "trial",
            "trialNumber": 22,
            "roleCurrent": "receiver",
            "marblesSampled": 100,
            "probRed": 0.5,
            "lambda": 5,
            "drawnRed": 71,
            "reportedRed": 77,
            "inferredRed": 77,
            "playerTrialScore": -6,
            "oppTrialScore": 6,
            "playerTotalScore": -65,
            "oppTotalScore": 12,
            "waitTime": 5668.380781683748,
            "responseTime": 1680648302058,
            "catchQuestion": "How many <b class=\"r\">red<\/b> marbles did your opponent report drawing? ",
            "catchKey": -1,
            "catchResponse": -1,
            "catchTime": 1680648277198,
            "trialTime": 0
        },
        {
            "exptPart": "trial",
            "trialNumber": 23,
            "roleCurrent": "sender",
            "marblesSampled": 100,
            "probRed": 0.5,
            "lambda": 5,
            "drawnRed": 63,
            "reportedRed": 73,
            "inferredRed": 67,
            "playerTrialScore": 4,
            "oppTrialScore": -4,
            "playerTotalScore": -61,
            "oppTotalScore": 8,
            "waitTime": 2501.105681484714,
            "responseTime": 1680648347832,
            "catchQuestion": "How many <b class=\"r\">red<\/b> marbles did your opponent report drawing? ",
            "catchKey": -1,
            "catchResponse": -1,
            "catchTime": 1680648277198,
            "trialTime": 0
        },
        {
            "exptPart": "trial",
            "trialNumber": 24,
            "roleCurrent": "receiver",
            "marblesSampled": 100,
            "probRed": 0.5,
            "lambda": 5,
            "drawnRed": 27,
            "reportedRed": 37,
            "inferredRed": 35,
            "playerTrialScore": -8,
            "oppTrialScore": 8,
            "playerTotalScore": -69,
            "oppTotalScore": 16,
            "waitTime": 6309.245652611906,
            "responseTime": 1680648359878,
            "catchQuestion": "How many <b class=\"r\">red<\/b> marbles did your opponent report drawing? ",
            "catchKey": 37,
            "catchResponse": 37,
            "catchTime": 1680648359878,
            "trialTime": 0
        },
        {
            "exptPart": "trial",
            "trialNumber": 25,
            "roleCurrent": "sender",
            "marblesSampled": 100,
            "probRed": 0.5,
            "lambda": 5,
            "drawnRed": 19,
            "reportedRed": 19,
            "inferredRed": 14,
            "playerTrialScore": 0,
            "oppTrialScore": -5,
            "playerTotalScore": -69,
            "oppTotalScore": 11,
            "waitTime": 2590.18560557243,
            "responseTime": 1680648381283,
            "catchQuestion": "How many <b class=\"r\">red<\/b> marbles did your opponent report drawing? ",
            "catchKey": -1,
            "catchResponse": -1,
            "catchTime": 1680648381283,
            "trialTime": 0
        },
        {
            "exptPart": "trial",
            "trialNumber": 26,
            "roleCurrent": "receiver",
            "marblesSampled": 100,
            "probRed": 0.5,
            "lambda": 5,
            "drawnRed": 83,
            "reportedRed": 87,
            "inferredRed": 80,
            "playerTrialScore": -3,
            "oppTrialScore": 0,
            "playerTotalScore": -72,
            "oppTotalScore": 11,
            "waitTime": 5360.219693233305,
            "responseTime": 1680648397467,
            "catchQuestion": "How many <b class=\"r\">red<\/b> marbles did your opponent report drawing? ",
            "catchKey": -1,
            "catchResponse": -1,
            "catchTime": 1680648381283,
            "trialTime": 0
        },
        {
            "exptPart": "trial",
            "trialNumber": 27,
            "roleCurrent": "sender",
            "marblesSampled": 100,
            "probRed": 0.5,
            "lambda": 5,
            "drawnRed": 65,
            "reportedRed": 65,
            "inferredRed": 64,
            "playerTrialScore": 0,
            "oppTrialScore": -1,
            "playerTotalScore": -72,
            "oppTotalScore": 10,
            "waitTime": 3099.0393650884657,
            "responseTime": 1680648418363,
            "catchQuestion": "How many <b class=\"r\">red<\/b> marbles did your opponent report drawing? ",
            "catchKey": -1,
            "catchResponse": -1,
            "catchTime": 1680648381283,
            "trialTime": 0
        },
        {
            "exptPart": "trial",
            "trialNumber": 28,
            "roleCurrent": "receiver",
            "marblesSampled": 100,
            "probRed": 0.5,
            "lambda": 5,
            "drawnRed": 41,
            "reportedRed": 42,
            "inferredRed": 40,
            "playerTrialScore": -1,
            "oppTrialScore": 0,
            "playerTotalScore": -73,
            "oppTotalScore": 10,
            "waitTime": 5898.3582790490345,
            "responseTime": 1680648431405,
            "catchQuestion": "How many <b class=\"r\">red<\/b> marbles did your opponent report drawing? ",
            "catchKey": -1,
            "catchResponse": -1,
            "catchTime": 1680648381283,
            "trialTime": 0
        },
        {
            "exptPart": "trial",
            "trialNumber": 29,
            "roleCurrent": "sender",
            "marblesSampled": 100,
            "probRed": 0.5,
            "lambda": 5,
            "drawnRed": 37,
            "reportedRed": 46,
            "inferredRed": 41,
            "playerTrialScore": 4,
            "oppTrialScore": -4,
            "playerTotalScore": -69,
            "oppTotalScore": 6,
            "waitTime": 3236.8497791101554,
            "responseTime": 1680648467360,
            "catchQuestion": "How many <b class=\"r\">red<\/b> marbles did your opponent report drawing? ",
            "catchKey": -1,
            "catchResponse": -1,
            "catchTime": 1680648381283,
            "trialTime": 0
        },
        {
            "exptPart": "trial",
            "trialNumber": 30,
            "roleCurrent": "receiver",
            "marblesSampled": 100,
            "probRed": 0.5,
            "lambda": 5,
            "drawnRed": 77,
            "reportedRed": 82,
            "inferredRed": 40,
            "playerTrialScore": -37,
            "oppTrialScore": 0,
            "playerTotalScore": -106,
            "oppTotalScore": 6,
            "waitTime": 5964.384533271723,
            "responseTime": 1680648478948,
            "catchQuestion": "How many <b class=\"r\">red<\/b> marbles did your opponent report drawing? ",
            "catchKey": -1,
            "catchResponse": -1,
            "catchTime": 1680648478948,
            "trialTime": 0
        },
        {
            "exptPart": "trial",
            "trialNumber": 31,
            "roleCurrent": "sender",
            "marblesSampled": 100,
            "probRed": 0.5,
            "lambda": 5,
            "drawnRed": 68,
            "reportedRed": 68,
            "inferredRed": 63,
            "playerTrialScore": 0,
            "oppTrialScore": -5,
            "playerTotalScore": -106,
            "oppTotalScore": 1,
            "waitTime": 2204.8641576044165,
            "responseTime": 1680648490032,
            "catchQuestion": "How many <b class=\"r\">red<\/b> marbles did your opponent report drawing? ",
            "catchKey": -1,
            "catchResponse": -1,
            "catchTime": 1680648478948,
            "trialTime": 0
        },
        {
            "exptPart": "trial",
            "trialNumber": 32,
            "roleCurrent": "receiver",
            "marblesSampled": 100,
            "probRed": 0.5,
            "lambda": 5,
            "drawnRed": 27,
            "reportedRed": 31,
            "inferredRed": 35,
            "playerTrialScore": -8,
            "oppTrialScore": 8,
            "playerTotalScore": -114,
            "oppTotalScore": 9,
            "waitTime": 6264.082432757247,
            "responseTime": 1680648502708,
            "catchQuestion": "How many <b class=\"r\">red<\/b> marbles did your opponent report drawing? ",
            "catchKey": -1,
            "catchResponse": -1,
            "catchTime": 1680648478948,
            "trialTime": 0
        },
        {
            "exptPart": "trial",
            "trialNumber": 33,
            "roleCurrent": "sender",
            "marblesSampled": 100,
            "probRed": 0.5,
            "lambda": 5,
            "drawnRed": 61,
            "reportedRed": 61,
            "inferredRed": 57,
            "playerTrialScore": 0,
            "oppTrialScore": -4,
            "playerTotalScore": -114,
            "oppTotalScore": 5,
            "waitTime": 2298.8391715952002,
            "responseTime": 1680648512231,
            "catchQuestion": "How many <b class=\"r\">red<\/b> marbles did your opponent report drawing? ",
            "catchKey": -1,
            "catchResponse": -1,
            "catchTime": 1680648478948,
            "trialTime": 0
        },
        {
            "exptPart": "trial",
            "trialNumber": 34,
            "roleCurrent": "receiver",
            "marblesSampled": 100,
            "probRed": 0.5,
            "lambda": 5,
            "drawnRed": 12,
            "reportedRed": 17,
            "inferredRed": 12,
            "playerTrialScore": 0,
            "oppTrialScore": 0,
            "playerTotalScore": -114,
            "oppTotalScore": 5,
            "waitTime": 6023.394049258262,
            "responseTime": 1680648523011,
            "catchQuestion": "How many <b class=\"r\">red<\/b> marbles did your opponent report drawing? ",
            "catchKey": 17,
            "catchResponse": 27,
            "catchTime": 1680648523011,
            "trialTime": 0
        },
        {
            "exptPart": "trial",
            "trialNumber": 35,
            "roleCurrent": "sender",
            "marblesSampled": 100,
            "probRed": 0.5,
            "lambda": 5,
            "drawnRed": 66,
            "reportedRed": 59,
            "inferredRed": 55,
            "playerTrialScore": 0,
            "oppTrialScore": -11,
            "playerTotalScore": -114,
            "oppTotalScore": -6,
            "waitTime": 2599.4298042578803,
            "responseTime": 1680648562005,
            "catchQuestion": "How many <b class=\"r\">red<\/b> marbles did your opponent report drawing? ",
            "catchKey": -1,
            "catchResponse": -1,
            "catchTime": 1680648562005,
            "trialTime": 0
        },
        {
            "exptPart": "trial",
            "trialNumber": 36,
            "roleCurrent": "receiver",
            "marblesSampled": 100,
            "probRed": 0.5,
            "lambda": 5,
            "drawnRed": 35,
            "reportedRed": 40,
            "inferredRed": 34,
            "playerTrialScore": -1,
            "oppTrialScore": 0,
            "playerTotalScore": -115,
            "oppTotalScore": -6,
            "waitTime": 5586.871873335171,
            "responseTime": 1680648579686,
            "catchQuestion": "How many <b class=\"r\">red<\/b> marbles did your opponent report drawing? ",
            "catchKey": -1,
            "catchResponse": -1,
            "catchTime": 1680648562005,
            "trialTime": 0
        },
        {
            "exptPart": "trial",
            "trialNumber": 37,
            "roleCurrent": "sender",
            "marblesSampled": 100,
            "probRed": 0.5,
            "lambda": 5,
            "drawnRed": 12,
            "reportedRed": 7,
            "inferredRed": 4,
            "playerTrialScore": 0,
            "oppTrialScore": -8,
            "playerTotalScore": -115,
            "oppTotalScore": -14,
            "waitTime": 2967.0422885921,
            "responseTime": 1680648603828,
            "catchQuestion": "How many <b class=\"r\">red<\/b> marbles did your opponent report drawing? ",
            "catchKey": -1,
            "catchResponse": -1,
            "catchTime": 1680648562005,
            "trialTime": 0
        },
        {
            "exptPart": "trial",
            "trialNumber": 38,
            "roleCurrent": "receiver",
            "marblesSampled": 100,
            "probRed": 0.5,
            "lambda": 5,
            "drawnRed": 36,
            "reportedRed": 43,
            "inferredRed": 36,
            "playerTrialScore": 0,
            "oppTrialScore": 0,
            "playerTotalScore": -115,
            "oppTotalScore": -14,
            "waitTime": 5546.939751244987,
            "responseTime": 1680648615323,
            "catchQuestion": "How many <b class=\"r\">red<\/b> marbles did your opponent report drawing? ",
            "catchKey": -1,
            "catchResponse": -1,
            "catchTime": 1680648562005,
            "trialTime": 0
        },
        {
            "exptPart": "trial",
            "trialNumber": 39,
            "roleCurrent": "sender",
            "marblesSampled": 100,
            "probRed": 0.5,
            "lambda": 5,
            "drawnRed": 65,
            "reportedRed": 74,
            "inferredRed": 67,
            "playerTrialScore": 2,
            "oppTrialScore": -2,
            "playerTotalScore": -113,
            "oppTotalScore": -16,
            "waitTime": 2678.228124586768,
            "responseTime": 1680648644439,
            "catchQuestion": "How many <b class=\"r\">red<\/b> marbles did your opponent report drawing? ",
            "catchKey": -1,
            "catchResponse": -1,
            "catchTime": 1680648562005,
            "trialTime": 0
        },
        {
            "exptPart": "trial",
            "trialNumber": 40,
            "roleCurrent": "receiver",
            "marblesSampled": 100,
            "probRed": 0.5,
            "lambda": 5,
            "drawnRed": 36,
            "reportedRed": 44,
            "inferredRed": 41,
            "playerTrialScore": -5,
            "oppTrialScore": 5,
            "playerTotalScore": -118,
            "oppTotalScore": -11,
            "waitTime": 6120.460685168556,
            "responseTime": 1680648659776,
            "catchQuestion": "How many <b class=\"r\">red<\/b> marbles did your opponent report drawing? ",
            "catchKey": -1,
            "catchResponse": -1,
            "catchTime": 1680648659776,
            "trialTime": 0
        },
        {
            "exptPart": "trial",
            "trialNumber": 41,
            "roleCurrent": "sender",
            "marblesSampled": 100,
            "probRed": 0.5,
            "lambda": 5,
            "drawnRed": 53,
            "reportedRed": 53,
            "inferredRed": 46,
            "playerTrialScore": 0,
            "oppTrialScore": -7,
            "playerTotalScore": -118,
            "oppTotalScore": -18,
            "waitTime": 2574.8754786466006,
            "responseTime": 1680648670279,
            "catchQuestion": "How many <b class=\"r\">red<\/b> marbles did your opponent report drawing? ",
            "catchKey": -1,
            "catchResponse": -1,
            "catchTime": 1680648659776,
            "trialTime": 0
        },
        {
            "exptPart": "trial",
            "trialNumber": 42,
            "roleCurrent": "receiver",
            "marblesSampled": 100,
            "probRed": 0.5,
            "lambda": 5,
            "drawnRed": 59,
            "reportedRed": 62,
            "inferredRed": 62,
            "playerTrialScore": -3,
            "oppTrialScore": 3,
            "playerTotalScore": -121,
            "oppTotalScore": -15,
            "waitTime": 5919.5104922593755,
            "responseTime": 1680648681816,
            "catchQuestion": "How many <b class=\"r\">red<\/b> marbles did your opponent report drawing? ",
            "catchKey": -1,
            "catchResponse": -1,
            "catchTime": 1680648659776,
            "trialTime": 0
        },
        {
            "exptPart": "trial",
            "trialNumber": 43,
            "roleCurrent": "sender",
            "marblesSampled": 100,
            "probRed": 0.5,
            "lambda": 5,
            "drawnRed": 51,
            "reportedRed": 51,
            "inferredRed": 43,
            "playerTrialScore": 0,
            "oppTrialScore": -8,
            "playerTotalScore": -121,
            "oppTotalScore": -23,
            "waitTime": 2091.143581539855,
            "responseTime": 1680648690657,
            "catchQuestion": "How many <b class=\"r\">red<\/b> marbles did your opponent report drawing? ",
            "catchKey": -1,
            "catchResponse": -1,
            "catchTime": 1680648659776,
            "trialTime": 0
        },
        {
            "exptPart": "trial",
            "trialNumber": 44,
            "roleCurrent": "receiver",
            "marblesSampled": 100,
            "probRed": 0.5,
            "lambda": 5,
            "drawnRed": 42,
            "reportedRed": 49,
            "inferredRed": 32,
            "playerTrialScore": -10,
            "oppTrialScore": 0,
            "playerTotalScore": -131,
            "oppTotalScore": -23,
            "waitTime": 6599.402356160837,
            "responseTime": 1680648703408,
            "catchQuestion": "How many <b class=\"r\">red<\/b> marbles did your opponent report drawing? ",
            "catchKey": -1,
            "catchResponse": -1,
            "catchTime": 1680648659776,
            "trialTime": 0
        },
        {
            "exptPart": "trial",
            "trialNumber": 45,
            "roleCurrent": "sender",
            "marblesSampled": 100,
            "probRed": 0.5,
            "lambda": 5,
            "drawnRed": 52,
            "reportedRed": 61,
            "inferredRed": 57,
            "playerTrialScore": 5,
            "oppTrialScore": -5,
            "playerTotalScore": -126,
            "oppTotalScore": -28,
            "waitTime": 2570.6082015683232,
            "responseTime": 1680648733016,
            "catchQuestion": "How many <b class=\"r\">red<\/b> marbles did your opponent report drawing? ",
            "catchKey": -1,
            "catchResponse": -1,
            "catchTime": 1680648733016,
            "trialTime": 0
        },
        {
            "exptPart": "trial",
            "trialNumber": 46,
            "roleCurrent": "receiver",
            "marblesSampled": 100,
            "probRed": 0.5,
            "lambda": 5,
            "drawnRed": 85,
            "reportedRed": 90,
            "inferredRed": 92,
            "playerTrialScore": -7,
            "oppTrialScore": 7,
            "playerTotalScore": -133,
            "oppTotalScore": -21,
            "waitTime": 6960.365346242643,
            "responseTime": 1680648749537,
            "catchQuestion": "How many <b class=\"r\">red<\/b> marbles did your opponent report drawing? ",
            "catchKey": -1,
            "catchResponse": -1,
            "catchTime": 1680648733016,
            "trialTime": 0
        },
        {
            "exptPart": "trial",
            "trialNumber": 47,
            "roleCurrent": "sender",
            "marblesSampled": 100,
            "probRed": 0.5,
            "lambda": 5,
            "drawnRed": 70,
            "reportedRed": 77,
            "inferredRed": 74,
            "playerTrialScore": 4,
            "oppTrialScore": -4,
            "playerTotalScore": -129,
            "oppTotalScore": -25,
            "waitTime": 2490.4615672277814,
            "responseTime": 1680648780852,
            "catchQuestion": "How many <b class=\"r\">red<\/b> marbles did your opponent report drawing? ",
            "catchKey": -1,
            "catchResponse": -1,
            "catchTime": 1680648733016,
            "trialTime": 0
        },
        {
            "exptPart": "trial",
            "trialNumber": 48,
            "roleCurrent": "receiver",
            "marblesSampled": 100,
            "probRed": 0.5,
            "lambda": 5,
            "drawnRed": 72,
            "reportedRed": 79,
            "inferredRed": 78,
            "playerTrialScore": -6,
            "oppTrialScore": 6,
            "playerTotalScore": -135,
            "oppTotalScore": -19,
            "waitTime": 6937.402047973292,
            "responseTime": 1680648792334,
            "catchQuestion": "How many <b class=\"r\">red<\/b> marbles did your opponent report drawing? ",
            "catchKey": -1,
            "catchResponse": -1,
            "catchTime": 1680648733016,
            "trialTime": 0
        },
        {
            "exptPart": "trial",
            "trialNumber": 49,
            "roleCurrent": "sender",
            "marblesSampled": 100,
            "probRed": 0.5,
            "lambda": 5,
            "drawnRed": 68,
            "reportedRed": 68,
            "inferredRed": 62,
            "playerTrialScore": 0,
            "oppTrialScore": -6,
            "playerTotalScore": -135,
            "oppTotalScore": -25,
            "waitTime": 2322.0240339340226,
            "responseTime": 1680648800247,
            "catchQuestion": "How many <b class=\"r\">red<\/b> marbles did your opponent report drawing? ",
            "catchKey": -1,
            "catchResponse": -1,
            "catchTime": 1680648733016,
            "trialTime": 0
        },
        {
            "exptPart": "trial",
            "trialNumber": 50,
            "roleCurrent": "receiver",
            "marblesSampled": 100,
            "probRed": 0.5,
            "lambda": 5,
            "drawnRed": 64,
            "reportedRed": 69,
            "inferredRed": 54,
            "playerTrialScore": -10,
            "oppTrialScore": 0,
            "playerTotalScore": -145,
            "oppTotalScore": -25,
            "waitTime": 5183.552104817105,
            "responseTime": 1680648815474,
            "catchQuestion": "How many <b class=\"r\">red<\/b> marbles did your opponent report drawing? ",
            "catchKey": -1,
            "catchResponse": -1,
            "catchTime": 1680648815474,
            "trialTime": 0
        },
        {
            "exptPart": "trial",
            "trialNumber": 51,
            "roleCurrent": "sender",
            "marblesSampled": 100,
            "probRed": 0.5,
            "lambda": 5,
            "drawnRed": 49,
            "reportedRed": 49,
            "inferredRed": 47,
            "playerTrialScore": 0,
            "oppTrialScore": -2,
            "playerTotalScore": -145,
            "oppTotalScore": -27,
            "waitTime": 2092.939735514737,
            "responseTime": 1680648829369,
            "catchQuestion": "How many <b class=\"r\">red<\/b> marbles did your opponent report drawing? ",
            "catchKey": -1,
            "catchResponse": -1,
            "catchTime": 1680648815474,
            "trialTime": 0
        },
        {
            "exptPart": "trial",
            "trialNumber": 52,
            "roleCurrent": "receiver",
            "marblesSampled": 100,
            "probRed": 0.5,
            "lambda": 5,
            "drawnRed": 61,
            "reportedRed": 62,
            "inferredRed": 57,
            "playerTrialScore": -4,
            "oppTrialScore": 0,
            "playerTotalScore": -149,
            "oppTotalScore": -27,
            "waitTime": 6337.086511841098,
            "responseTime": 1680648842126,
            "catchQuestion": "How many <b class=\"r\">red<\/b> marbles did your opponent report drawing? ",
            "catchKey": -1,
            "catchResponse": -1,
            "catchTime": 1680648815474,
            "trialTime": 0
        },
        {
            "exptPart": "trial",
            "trialNumber": 53,
            "roleCurrent": "sender",
            "marblesSampled": 100,
            "probRed": 0.5,
            "lambda": 5,
            "drawnRed": 32,
            "reportedRed": 44,
            "inferredRed": 37,
            "playerTrialScore": 5,
            "oppTrialScore": -5,
            "playerTotalScore": -144,
            "oppTotalScore": -32,
            "waitTime": 2411.07789205817,
            "responseTime": 1680648881500,
            "catchQuestion": "How many <b class=\"r\">red<\/b> marbles did your opponent report drawing? ",
            "catchKey": -1,
            "catchResponse": -1,
            "catchTime": 1680648815474,
            "trialTime": 0
        },
        {
            "exptPart": "trial",
            "trialNumber": 54,
            "roleCurrent": "receiver",
            "marblesSampled": 100,
            "probRed": 0.5,
            "lambda": 5,
            "drawnRed": 93,
            "reportedRed": 95,
            "inferredRed": 87,
            "playerTrialScore": -6,
            "oppTrialScore": 0,
            "playerTotalScore": -150,
            "oppTotalScore": -32,
            "waitTime": 6794.68948267061,
            "responseTime": 1680648894290,
            "catchQuestion": "How many <b class=\"r\">red<\/b> marbles did your opponent report drawing? ",
            "catchKey": -1,
            "catchResponse": -1,
            "catchTime": 1680648815474,
            "trialTime": 0
        },
        {
            "exptPart": "trial",
            "trialNumber": 55,
            "roleCurrent": "sender",
            "marblesSampled": 100,
            "probRed": 0.5,
            "lambda": 5,
            "drawnRed": 38,
            "reportedRed": 38,
            "inferredRed": 34,
            "playerTrialScore": 0,
            "oppTrialScore": -4,
            "playerTotalScore": -150,
            "oppTotalScore": -36,
            "waitTime": 2087.2792102114445,
            "responseTime": 1680648903789,
            "catchQuestion": "How many <b class=\"r\">red<\/b> marbles did your opponent report drawing? ",
            "catchKey": -1,
            "catchResponse": -1,
            "catchTime": 1680648903789,
            "trialTime": 0
        },
        {
            "exptPart": "trial",
            "trialNumber": 56,
            "roleCurrent": "receiver",
            "marblesSampled": 100,
            "probRed": 0.5,
            "lambda": 5,
            "drawnRed": 64,
            "reportedRed": 69,
            "inferredRed": 69,
            "playerTrialScore": -5,
            "oppTrialScore": 5,
            "playerTotalScore": -155,
            "oppTotalScore": -31,
            "waitTime": 6120.289392314899,
            "responseTime": 1680648918651,
            "catchQuestion": "How many <b class=\"r\">red<\/b> marbles did your opponent report drawing? ",
            "catchKey": -1,
            "catchResponse": -1,
            "catchTime": 1680648903789,
            "trialTime": 0
        },
        {
            "exptPart": "trial",
            "trialNumber": 57,
            "roleCurrent": "sender",
            "marblesSampled": 100,
            "probRed": 0.5,
            "lambda": 5,
            "drawnRed": 78,
            "reportedRed": 78,
            "inferredRed": 75,
            "playerTrialScore": 0,
            "oppTrialScore": -3,
            "playerTotalScore": -155,
            "oppTotalScore": -34,
            "waitTime": 2163.1814803533734,
            "responseTime": 1680648926469,
            "catchQuestion": "How many <b class=\"r\">red<\/b> marbles did your opponent report drawing? ",
            "catchKey": -1,
            "catchResponse": -1,
            "catchTime": 1680648903789,
            "trialTime": 0
        },
        {
            "exptPart": "trial",
            "trialNumber": 58,
            "roleCurrent": "receiver",
            "marblesSampled": 100,
            "probRed": 0.5,
            "lambda": 5,
            "drawnRed": 58,
            "reportedRed": 61,
            "inferredRed": 61,
            "playerTrialScore": -3,
            "oppTrialScore": 3,
            "playerTotalScore": -158,
            "oppTotalScore": -31,
            "waitTime": 5714.08806274878,
            "responseTime": 1680648935692,
            "catchQuestion": "How many <b class=\"r\">red<\/b> marbles did your opponent report drawing? ",
            "catchKey": -1,
            "catchResponse": -1,
            "catchTime": 1680648903789,
            "trialTime": 0
        },
        {
            "exptPart": "trial",
            "trialNumber": 59,
            "roleCurrent": "sender",
            "marblesSampled": 100,
            "probRed": 0.5,
            "lambda": 5,
            "drawnRed": 66,
            "reportedRed": 66,
            "inferredRed": 64,
            "playerTrialScore": 0,
            "oppTrialScore": -2,
            "playerTotalScore": -158,
            "oppTotalScore": -33,
            "waitTime": 2266.9111553832445,
            "responseTime": 1680648943935,
            "catchQuestion": "How many <b class=\"r\">red<\/b> marbles did your opponent report drawing? ",
            "catchKey": -1,
            "catchResponse": -1,
            "catchTime": 1680648903789,
            "trialTime": 0
        },
        {
            "exptPart": "trial",
            "trialNumber": 60,
            "roleCurrent": "receiver",
            "marblesSampled": 100,
            "probRed": 0.5,
            "lambda": 5,
            "drawnRed": 46,
            "reportedRed": 50,
            "inferredRed": 54,
            "playerTrialScore": -8,
            "oppTrialScore": 8,
            "playerTotalScore": -166,
            "oppTotalScore": -25,
            "waitTime": 7475.072533525342,
            "responseTime": 1680648957045,
            "catchQuestion": "How many <b class=\"r\">red<\/b> marbles did your opponent report drawing? ",
            "catchKey": 50,
            "catchResponse": 50,
            "catchTime": 1680648957045,
            "trialTime": 0
        },
        {
            "exptPart": "trial",
            "trialNumber": 61,
            "roleCurrent": "sender",
            "marblesSampled": 100,
            "probRed": 0.5,
            "lambda": 5,
            "drawnRed": 80,
            "reportedRed": 75,
            "inferredRed": 71,
            "playerTrialScore": 0,
            "oppTrialScore": -9,
            "playerTotalScore": -166,
            "oppTotalScore": -34,
            "waitTime": 2356.9219763690303,
            "responseTime": 1680648985762,
            "catchQuestion": "How many <b class=\"r\">red<\/b> marbles did you actually draw (before any changes)? ",
            "catchKey": 80,
            "catchResponse": 70,
            "catchTime": 1680648985762,
            "trialTime": 0
        },
        {
            "exptPart": "trial",
            "trialNumber": 62,
            "roleCurrent": "receiver",
            "marblesSampled": 100,
            "probRed": 0.5,
            "lambda": 5,
            "drawnRed": 37,
            "reportedRed": 39,
            "inferredRed": 36,
            "playerTrialScore": -1,
            "oppTrialScore": 0,
            "playerTotalScore": -167,
            "oppTotalScore": -34,
            "waitTime": 6828.429429267297,
            "responseTime": 1680649008354,
            "catchQuestion": "How many <b class=\"r\">red<\/b> marbles did you actually draw (before any changes)? ",
            "catchKey": -1,
            "catchResponse": -1,
            "catchTime": 1680648985762,
            "trialTime": 0
        },
        {
            "exptPart": "trial",
            "trialNumber": 63,
            "roleCurrent": "sender",
            "marblesSampled": 100,
            "probRed": 0.5,
            "lambda": 5,
            "drawnRed": 55,
            "reportedRed": 55,
            "inferredRed": 50,
            "playerTrialScore": 0,
            "oppTrialScore": -5,
            "playerTotalScore": -167,
            "oppTotalScore": -39,
            "waitTime": 2811.2048325745645,
            "responseTime": 1680649020450,
            "catchQuestion": "How many <b class=\"r\">red<\/b> marbles did you actually draw (before any changes)? ",
            "catchKey": -1,
            "catchResponse": -1,
            "catchTime": 1680648985762,
            "trialTime": 0
        },
        {
            "exptPart": "trial",
            "trialNumber": 64,
            "roleCurrent": "receiver",
            "marblesSampled": 100,
            "probRed": 0.5,
            "lambda": 5,
            "drawnRed": 70,
            "reportedRed": 74,
            "inferredRed": 73,
            "playerTrialScore": -3,
            "oppTrialScore": 3,
            "playerTotalScore": -170,
            "oppTotalScore": -36,
            "waitTime": 5845.544569080252,
            "responseTime": 1680649055353,
            "catchQuestion": "How many <b class=\"r\">red<\/b> marbles did you actually draw (before any changes)? ",
            "catchKey": -1,
            "catchResponse": -1,
            "catchTime": 1680648985762,
            "trialTime": 0
        },
        {
            "exptPart": "trial",
            "trialNumber": 65,
            "roleCurrent": "sender",
            "marblesSampled": 100,
            "probRed": 0.5,
            "lambda": 5,
            "drawnRed": 48,
            "reportedRed": 48,
            "inferredRed": 43,
            "playerTrialScore": 0,
            "oppTrialScore": -5,
            "playerTotalScore": -170,
            "oppTotalScore": -41,
            "waitTime": 2452.0397913034903,
            "responseTime": 1680649095408,
            "catchQuestion": "How many <b class=\"r\">red<\/b> marbles did you actually draw (before any changes)? ",
            "catchKey": -1,
            "catchResponse": -1,
            "catchTime": 1680649095408,
            "trialTime": 0
        },
        {
            "exptPart": "trial",
            "trialNumber": 66,
            "roleCurrent": "receiver",
            "marblesSampled": 100,
            "probRed": 0.5,
            "lambda": 5,
            "drawnRed": 26,
            "reportedRed": 31,
            "inferredRed": 25,
            "playerTrialScore": -1,
            "oppTrialScore": 0,
            "playerTotalScore": -171,
            "oppTotalScore": -41,
            "waitTime": 7197.3614427937655,
            "responseTime": 1680649110884,
            "catchQuestion": "How many <b class=\"r\">red<\/b> marbles did you actually draw (before any changes)? ",
            "catchKey": -1,
            "catchResponse": -1,
            "catchTime": 1680649095408,
            "trialTime": 0
        },
        {
            "exptPart": "trial",
            "trialNumber": 67,
            "roleCurrent": "sender",
            "marblesSampled": 100,
            "probRed": 0.5,
            "lambda": 5,
            "drawnRed": 82,
            "reportedRed": 88,
            "inferredRed": 83,
            "playerTrialScore": 1,
            "oppTrialScore": -1,
            "playerTotalScore": -170,
            "oppTotalScore": -42,
            "waitTime": 2434.601884186656,
            "responseTime": 1680649134037,
            "catchQuestion": "How many <b class=\"r\">red<\/b> marbles did you actually draw (before any changes)? ",
            "catchKey": -1,
            "catchResponse": -1,
            "catchTime": 1680649095408,
            "trialTime": 0
        },
        {
            "exptPart": "trial",
            "trialNumber": 68,
            "roleCurrent": "receiver",
            "marblesSampled": 100,
            "probRed": 0.5,
            "lambda": 5,
            "drawnRed": 53,
            "reportedRed": 56,
            "inferredRed": 50,
            "playerTrialScore": -3,
            "oppTrialScore": 0,
            "playerTotalScore": -173,
            "oppTotalScore": -42,
            "waitTime": 6475.41175506889,
            "responseTime": 1680649147794,
            "catchQuestion": "How many <b class=\"r\">red<\/b> marbles did you actually draw (before any changes)? ",
            "catchKey": -1,
            "catchResponse": -1,
            "catchTime": 1680649095408,
            "trialTime": 0
        },
        {
            "exptPart": "trial",
            "trialNumber": 69,
            "roleCurrent": "sender",
            "marblesSampled": 100,
            "probRed": 0.5,
            "lambda": 5,
            "drawnRed": 83,
            "reportedRed": 91,
            "inferredRed": 85,
            "playerTrialScore": 2,
            "oppTrialScore": -2,
            "playerTotalScore": -171,
            "oppTotalScore": -44,
            "waitTime": 2448.246842094499,
            "responseTime": 1680649177550,
            "catchQuestion": "How many <b class=\"r\">red<\/b> marbles did you actually draw (before any changes)? ",
            "catchKey": -1,
            "catchResponse": -1,
            "catchTime": 1680649095408,
            "trialTime": 0
        },
        {
            "exptPart": "trial",
            "trialNumber": 70,
            "roleCurrent": "receiver",
            "marblesSampled": 100,
            "probRed": 0.5,
            "lambda": 5,
            "drawnRed": 56,
            "reportedRed": 64,
            "inferredRed": 65,
            "playerTrialScore": -9,
            "oppTrialScore": 9,
            "playerTotalScore": -180,
            "oppTotalScore": -35,
            "waitTime": 6229.16520437978,
            "responseTime": 1680649194361,
            "catchQuestion": "How many <b class=\"r\">red<\/b> marbles did you actually draw (before any changes)? ",
            "catchKey": -1,
            "catchResponse": -1,
            "catchTime": 1680649194361,
            "trialTime": 0
        },
        {
            "exptPart": "trial",
            "trialNumber": 71,
            "roleCurrent": "sender",
            "marblesSampled": 100,
            "probRed": 0.5,
            "lambda": 5,
            "drawnRed": 46,
            "reportedRed": 46,
            "inferredRed": 42,
            "playerTrialScore": 0,
            "oppTrialScore": -4,
            "playerTotalScore": -180,
            "oppTotalScore": -39,
            "waitTime": 3023.36926893663,
            "responseTime": 1680649208692,
            "catchQuestion": "How many <b class=\"r\">red<\/b> marbles did you actually draw (before any changes)? ",
            "catchKey": 46,
            "catchResponse": 70,
            "catchTime": 1680649208692,
            "trialTime": 0
        },
        {
            "exptPart": "trial",
            "trialNumber": 72,
            "roleCurrent": "receiver",
            "marblesSampled": 100,
            "probRed": 0.5,
            "lambda": 5,
            "drawnRed": 38,
            "reportedRed": 43,
            "inferredRed": 37,
            "playerTrialScore": -1,
            "oppTrialScore": 0,
            "playerTotalScore": -181,
            "oppTotalScore": -39,
            "waitTime": 6512.403112766463,
            "responseTime": 1680649237247,
            "catchQuestion": "How many <b class=\"r\">red<\/b> marbles did you actually draw (before any changes)? ",
            "catchKey": -1,
            "catchResponse": -1,
            "catchTime": 1680649208692,
            "trialTime": 0
        },
        {
            "exptPart": "trial",
            "trialNumber": 73,
            "roleCurrent": "sender",
            "marblesSampled": 100,
            "probRed": 0.5,
            "lambda": 5,
            "drawnRed": 70,
            "reportedRed": 62,
            "inferredRed": 56,
            "playerTrialScore": 0,
            "oppTrialScore": -14,
            "playerTotalScore": -181,
            "oppTotalScore": -53,
            "waitTime": 3232.419780464234,
            "responseTime": 1680649264264,
            "catchQuestion": "How many <b class=\"r\">red<\/b> marbles did you actually draw (before any changes)? ",
            "catchKey": 70,
            "catchResponse": 60,
            "catchTime": 1680649264264,
            "trialTime": 0
        },
        {
            "exptPart": "trial",
            "trialNumber": 74,
            "roleCurrent": "receiver",
            "marblesSampled": 100,
            "probRed": 0.5,
            "lambda": 5,
            "drawnRed": 62,
            "reportedRed": 65,
            "inferredRed": 79,
            "playerTrialScore": -17,
            "oppTrialScore": 17,
            "playerTotalScore": -198,
            "oppTotalScore": -36,
            "waitTime": 5277.530591975198,
            "responseTime": 1680649286778,
            "catchQuestion": "How many <b class=\"r\">red<\/b> marbles did you actually draw (before any changes)? ",
            "catchKey": -1,
            "catchResponse": -1,
            "catchTime": 1680649264264,
            "trialTime": 0
        },
        {
            "exptPart": "trial",
            "trialNumber": 75,
            "roleCurrent": "sender",
            "marblesSampled": 100,
            "probRed": 0.5,
            "lambda": 5,
            "drawnRed": 58,
            "reportedRed": 58,
            "inferredRed": 52,
            "playerTrialScore": 0,
            "oppTrialScore": -6,
            "playerTotalScore": -198,
            "oppTotalScore": -42,
            "waitTime": 2405.4907882563202,
            "responseTime": 1680649302163,
            "catchQuestion": "How many <b class=\"r\">red<\/b> marbles did you actually draw (before any changes)? ",
            "catchKey": -1,
            "catchResponse": -1,
            "catchTime": 1680649302163,
            "trialTime": 0
        },
        {
            "exptPart": "trial",
            "trialNumber": 76,
            "roleCurrent": "receiver",
            "marblesSampled": 100,
            "probRed": 0.5,
            "lambda": 5,
            "drawnRed": 43,
            "reportedRed": 49,
            "inferredRed": 54,
            "playerTrialScore": -11,
            "oppTrialScore": 11,
            "playerTotalScore": -209,
            "oppTotalScore": -31,
            "waitTime": 5146.886724206155,
            "responseTime": 1680649324476,
            "catchQuestion": "How many <b class=\"r\">red<\/b> marbles did you actually draw (before any changes)? ",
            "catchKey": -1,
            "catchResponse": -1,
            "catchTime": 1680649302163,
            "trialTime": 0
        },
        {
            "exptPart": "trial",
            "trialNumber": 77,
            "roleCurrent": "sender",
            "marblesSampled": 100,
            "probRed": 0.5,
            "lambda": 5,
            "drawnRed": 70,
            "reportedRed": 70,
            "inferredRed": 63,
            "playerTrialScore": 0,
            "oppTrialScore": -7,
            "playerTotalScore": -209,
            "oppTotalScore": -38,
            "waitTime": 2895.017610821422,
            "responseTime": 1680649333314,
            "catchQuestion": "How many <b class=\"r\">red<\/b> marbles did you actually draw (before any changes)? ",
            "catchKey": -1,
            "catchResponse": -1,
            "catchTime": 1680649302163,
            "trialTime": 0
        },
        {
            "exptPart": "trial",
            "trialNumber": 78,
            "roleCurrent": "receiver",
            "marblesSampled": 100,
            "probRed": 0.5,
            "lambda": 5,
            "drawnRed": 63,
            "reportedRed": 70,
            "inferredRed": 70,
            "playerTrialScore": -7,
            "oppTrialScore": 7,
            "playerTotalScore": -216,
            "oppTotalScore": -31,
            "waitTime": 6079.241694510974,
            "responseTime": 1680649346002,
            "catchQuestion": "How many <b class=\"r\">red<\/b> marbles did your opponent report drawing? ",
            "catchKey": 70,
            "catchResponse": 70,
            "catchTime": 1680649346002,
            "trialTime": 0
        },
        {
            "exptPart": "trial",
            "trialNumber": 79,
            "roleCurrent": "sender",
            "marblesSampled": 100,
            "probRed": 0.5,
            "lambda": 5,
            "drawnRed": 39,
            "reportedRed": 39,
            "inferredRed": 35,
            "playerTrialScore": 0,
            "oppTrialScore": -4,
            "playerTotalScore": -216,
            "oppTotalScore": -35,
            "waitTime": 2788.338047787303,
            "responseTime": 1680649382716,
            "catchQuestion": "How many <b class=\"r\">red<\/b> marbles did your opponent report drawing? ",
            "catchKey": -1,
            "catchResponse": -1,
            "catchTime": 1680649346002,
            "trialTime": 0
        },
        {
            "exptPart": "trial",
            "trialNumber": 80,
            "roleCurrent": "receiver",
            "marblesSampled": 100,
            "probRed": 0.5,
            "lambda": 5,
            "drawnRed": 43,
            "reportedRed": 50,
            "inferredRed": 39,
            "playerTrialScore": -4,
            "oppTrialScore": 0,
            "playerTotalScore": -220,
            "oppTotalScore": -35,
            "waitTime": 6465.666166286819,
            "responseTime": 1680649398133,
            "catchQuestion": "How many <b class=\"r\">red<\/b> marbles did your opponent report drawing? ",
            "catchKey": -1,
            "catchResponse": -1,
            "catchTime": 1680649398133,
            "trialTime": 0
        },
        {
            "exptPart": "trial",
            "trialNumber": 81,
            "roleCurrent": "sender",
            "marblesSampled": 100,
            "probRed": 0.5,
            "lambda": 5,
            "drawnRed": 40,
            "reportedRed": 50,
            "inferredRed": 44,
            "playerTrialScore": 4,
            "oppTrialScore": -4,
            "playerTotalScore": -216,
            "oppTotalScore": -39,
            "waitTime": 2586.5920983151345,
            "responseTime": 1680649430157,
            "catchQuestion": "How many <b class=\"r\">red<\/b> marbles did your opponent report drawing? ",
            "catchKey": -1,
            "catchResponse": -1,
            "catchTime": 1680649398133,
            "trialTime": 0
        },
        {
            "exptPart": "trial",
            "trialNumber": 82,
            "roleCurrent": "receiver",
            "marblesSampled": 100,
            "probRed": 0.5,
            "lambda": 5,
            "drawnRed": 66,
            "reportedRed": 73,
            "inferredRed": 73,
            "playerTrialScore": -7,
            "oppTrialScore": 7,
            "playerTotalScore": -223,
            "oppTotalScore": -32,
            "waitTime": 5994.72848783193,
            "responseTime": 1680649447331,
            "catchQuestion": "How many <b class=\"r\">red<\/b> marbles did your opponent report drawing? ",
            "catchKey": -1,
            "catchResponse": -1,
            "catchTime": 1680649398133,
            "trialTime": 0
        },
        {
            "exptPart": "trial",
            "trialNumber": 83,
            "roleCurrent": "sender",
            "marblesSampled": 100,
            "probRed": 0.5,
            "lambda": 5,
            "drawnRed": 64,
            "reportedRed": 69,
            "inferredRed": 62,
            "playerTrialScore": 0,
            "oppTrialScore": -2,
            "playerTotalScore": -223,
            "oppTotalScore": -34,
            "waitTime": 2255.889920373686,
            "responseTime": 1680649474751,
            "catchQuestion": "How many <b class=\"r\">red<\/b> marbles did your opponent report drawing? ",
            "catchKey": -1,
            "catchResponse": -1,
            "catchTime": 1680649398133,
            "trialTime": 0
        },
        {
            "exptPart": "trial",
            "trialNumber": 84,
            "roleCurrent": "receiver",
            "marblesSampled": 100,
            "probRed": 0.5,
            "lambda": 5,
            "drawnRed": 61,
            "reportedRed": 65,
            "inferredRed": 69,
            "playerTrialScore": -8,
            "oppTrialScore": 8,
            "playerTotalScore": -231,
            "oppTotalScore": -26,
            "waitTime": 5272.368635275845,
            "responseTime": 1680649483985,
            "catchQuestion": "How many <b class=\"r\">red<\/b> marbles did your opponent report drawing? ",
            "catchKey": -1,
            "catchResponse": -1,
            "catchTime": 1680649398133,
            "trialTime": 0
        },
        {
            "exptPart": "trial",
            "trialNumber": 85,
            "roleCurrent": "sender",
            "marblesSampled": 100,
            "probRed": 0.5,
            "lambda": 5,
            "drawnRed": 78,
            "reportedRed": 85,
            "inferredRed": 79,
            "playerTrialScore": 1,
            "oppTrialScore": -1,
            "playerTotalScore": -230,
            "oppTotalScore": -27,
            "waitTime": 2785.5462197675415,
            "responseTime": 1680649507299,
            "catchQuestion": "How many <b class=\"r\">red<\/b> marbles did your opponent report drawing? ",
            "catchKey": -1,
            "catchResponse": -1,
            "catchTime": 1680649507299,
            "trialTime": 0
        },
        {
            "exptPart": "trial",
            "trialNumber": 86,
            "roleCurrent": "receiver",
            "marblesSampled": 100,
            "probRed": 0.5,
            "lambda": 5,
            "drawnRed": 22,
            "reportedRed": 26,
            "inferredRed": 21,
            "playerTrialScore": -1,
            "oppTrialScore": 0,
            "playerTotalScore": -231,
            "oppTotalScore": -27,
            "waitTime": 5699.2936580863825,
            "responseTime": 1680649523808,
            "catchQuestion": "How many <b class=\"r\">red<\/b> marbles did your opponent report drawing? ",
            "catchKey": 26,
            "catchResponse": 26,
            "catchTime": 1680649523809,
            "trialTime": 0
        },
        {
            "exptPart": "trial",
            "trialNumber": 87,
            "roleCurrent": "sender",
            "marblesSampled": 100,
            "probRed": 0.5,
            "lambda": 5,
            "drawnRed": 60,
            "reportedRed": 53,
            "inferredRed": 50,
            "playerTrialScore": 0,
            "oppTrialScore": -10,
            "playerTotalScore": -231,
            "oppTotalScore": -37,
            "waitTime": 2311.484332945486,
            "responseTime": 1680649553492,
            "catchQuestion": "How many <b class=\"r\">red<\/b> marbles did your opponent report drawing? ",
            "catchKey": -1,
            "catchResponse": -1,
            "catchTime": 1680649523809,
            "trialTime": 0
        },
        {
            "exptPart": "trial",
            "trialNumber": 88,
            "roleCurrent": "receiver",
            "marblesSampled": 100,
            "probRed": 0.5,
            "lambda": 5,
            "drawnRed": 51,
            "reportedRed": 55,
            "inferredRed": 50,
            "playerTrialScore": -1,
            "oppTrialScore": 0,
            "playerTotalScore": -232,
            "oppTotalScore": -37,
            "waitTime": 5641.808000184891,
            "responseTime": 1680649564700,
            "catchQuestion": "How many <b class=\"r\">red<\/b> marbles did your opponent report drawing? ",
            "catchKey": -1,
            "catchResponse": -1,
            "catchTime": 1680649523809,
            "trialTime": 0
        },
        {
            "exptPart": "trial",
            "trialNumber": 89,
            "roleCurrent": "sender",
            "marblesSampled": 100,
            "probRed": 0.5,
            "lambda": 5,
            "drawnRed": 68,
            "reportedRed": 68,
            "inferredRed": 59,
            "playerTrialScore": 0,
            "oppTrialScore": -9,
            "playerTotalScore": -232,
            "oppTotalScore": -46,
            "waitTime": 2457.3680525957598,
            "responseTime": 1680649573527,
            "catchQuestion": "How many <b class=\"r\">red<\/b> marbles did your opponent report drawing? ",
            "catchKey": -1,
            "catchResponse": -1,
            "catchTime": 1680649523809,
            "trialTime": 0
        },
        {
            "exptPart": "trial",
            "trialNumber": 90,
            "roleCurrent": "receiver",
            "marblesSampled": 100,
            "probRed": 0.5,
            "lambda": 5,
            "drawnRed": 41,
            "reportedRed": 46,
            "inferredRed": 52,
            "playerTrialScore": -11,
            "oppTrialScore": 11,
            "playerTotalScore": -243,
            "oppTotalScore": -35,
            "waitTime": 6350.6596575227995,
            "responseTime": 1680649590276,
            "catchQuestion": "How many <b class=\"r\">red<\/b> marbles did your opponent report drawing? ",
            "catchKey": -1,
            "catchResponse": -1,
            "catchTime": 1680649590276,
            "trialTime": 0
        },
        {
            "exptPart": "trial",
            "trialNumber": 91,
            "roleCurrent": "sender",
            "marblesSampled": 100,
            "probRed": 0.5,
            "lambda": 5,
            "drawnRed": 73,
            "reportedRed": 80,
            "inferredRed": 78,
            "playerTrialScore": 5,
            "oppTrialScore": -5,
            "playerTotalScore": -238,
            "oppTotalScore": -40,
            "waitTime": 3137.708927407698,
            "responseTime": 1680649615167,
            "catchQuestion": "How many <b class=\"r\">red<\/b> marbles did your opponent report drawing? ",
            "catchKey": -1,
            "catchResponse": -1,
            "catchTime": 1680649590276,
            "trialTime": 0
        },
        {
            "exptPart": "trial",
            "trialNumber": 92,
            "roleCurrent": "receiver",
            "marblesSampled": 100,
            "probRed": 0.5,
            "lambda": 5,
            "drawnRed": 51,
            "reportedRed": 54,
            "inferredRed": 46,
            "playerTrialScore": -5,
            "oppTrialScore": 0,
            "playerTotalScore": -243,
            "oppTotalScore": -40,
            "waitTime": 6686.170020606622,
            "responseTime": 1680649626636,
            "catchQuestion": "How many <b class=\"r\">red<\/b> marbles did your opponent report drawing? ",
            "catchKey": -1,
            "catchResponse": -1,
            "catchTime": 1680649590276,
            "trialTime": 0
        },
        {
            "exptPart": "trial",
            "trialNumber": 93,
            "roleCurrent": "sender",
            "marblesSampled": 100,
            "probRed": 0.5,
            "lambda": 5,
            "drawnRed": 52,
            "reportedRed": 52,
            "inferredRed": 49,
            "playerTrialScore": 0,
            "oppTrialScore": -3,
            "playerTotalScore": -243,
            "oppTotalScore": -43,
            "waitTime": 2575.4135554891636,
            "responseTime": 1680649637815,
            "catchQuestion": "How many <b class=\"r\">red<\/b> marbles did your opponent report drawing? ",
            "catchKey": -1,
            "catchResponse": -1,
            "catchTime": 1680649590276,
            "trialTime": 0
        },
        {
            "exptPart": "trial",
            "trialNumber": 94,
            "roleCurrent": "receiver",
            "marblesSampled": 100,
            "probRed": 0.5,
            "lambda": 5,
            "drawnRed": 24,
            "reportedRed": 27,
            "inferredRed": 32,
            "playerTrialScore": -8,
            "oppTrialScore": 8,
            "playerTotalScore": -251,
            "oppTotalScore": -35,
            "waitTime": 7266.455125027191,
            "responseTime": 1680649653668,
            "catchQuestion": "How many <b class=\"r\">red<\/b> marbles did your opponent report drawing? ",
            "catchKey": -1,
            "catchResponse": -1,
            "catchTime": 1680649590276,
            "trialTime": 0
        },
        {
            "exptPart": "trial",
            "trialNumber": 95,
            "roleCurrent": "sender",
            "marblesSampled": 100,
            "probRed": 0.5,
            "lambda": 5,
            "drawnRed": 43,
            "reportedRed": 51,
            "inferredRed": 41,
            "playerTrialScore": 0,
            "oppTrialScore": -2,
            "playerTotalScore": -251,
            "oppTotalScore": -37,
            "waitTime": 2235.068082649327,
            "responseTime": 1680649677658,
            "catchQuestion": "How many <b class=\"r\">red<\/b> marbles did your opponent report drawing? ",
            "catchKey": -1,
            "catchResponse": -1,
            "catchTime": 1680649677658,
            "trialTime": 0
        },
        {
            "exptPart": "trial",
            "trialNumber": 96,
            "roleCurrent": "receiver",
            "marblesSampled": 100,
            "probRed": 0.5,
            "lambda": 5,
            "drawnRed": 65,
            "reportedRed": 72,
            "inferredRed": 70,
            "playerTrialScore": -5,
            "oppTrialScore": 5,
            "playerTotalScore": -256,
            "oppTotalScore": -32,
            "waitTime": 7363.961725222826,
            "responseTime": 1680649693503,
            "catchQuestion": "How many <b class=\"r\">red<\/b> marbles did your opponent report drawing? ",
            "catchKey": -1,
            "catchResponse": -1,
            "catchTime": 1680649677658,
            "trialTime": 0
        },
        {
            "exptPart": "trial",
            "trialNumber": 97,
            "roleCurrent": "sender",
            "marblesSampled": 100,
            "probRed": 0.5,
            "lambda": 5,
            "drawnRed": 75,
            "reportedRed": 75,
            "inferredRed": 71,
            "playerTrialScore": 0,
            "oppTrialScore": -4,
            "playerTotalScore": -256,
            "oppTotalScore": -36,
            "waitTime": 2561.4845443413833,
            "responseTime": 1680649702522,
            "catchQuestion": "How many <b class=\"r\">red<\/b> marbles did your opponent report drawing? ",
            "catchKey": -1,
            "catchResponse": -1,
            "catchTime": 1680649677658,
            "trialTime": 0
        },
        {
            "exptPart": "trial",
            "trialNumber": 98,
            "roleCurrent": "receiver",
            "marblesSampled": 100,
            "probRed": 0.5,
            "lambda": 5,
            "drawnRed": 37,
            "reportedRed": 41,
            "inferredRed": 32,
            "playerTrialScore": -5,
            "oppTrialScore": 0,
            "playerTotalScore": -261,
            "oppTotalScore": -36,
            "waitTime": 5501.4002096391205,
            "responseTime": 1680649715972,
            "catchQuestion": "How many <b class=\"r\">red<\/b> marbles did your opponent report drawing? ",
            "catchKey": -1,
            "catchResponse": -1,
            "catchTime": 1680649677658,
            "trialTime": 0
        },
        {
            "exptPart": "trial",
            "trialNumber": 99,
            "roleCurrent": "sender",
            "marblesSampled": 100,
            "probRed": 0.5,
            "lambda": 5,
            "drawnRed": 54,
            "reportedRed": 61,
            "inferredRed": 57,
            "playerTrialScore": 3,
            "oppTrialScore": -3,
            "playerTotalScore": -258,
            "oppTotalScore": -39,
            "waitTime": 2162.8186284781186,
            "responseTime": 1680649739380,
            "catchQuestion": "How many <b class=\"r\">red<\/b> marbles did your opponent report drawing? ",
            "catchKey": -1,
            "catchResponse": -1,
            "catchTime": 1680649677658,
            "trialTime": 0
        },
        {
            "exptPart": "trial",
            "trialNumber": 100,
            "roleCurrent": "receiver",
            "marblesSampled": 100,
            "probRed": 0.5,
            "lambda": 5,
            "drawnRed": 47,
            "reportedRed": 52,
            "inferredRed": 52,
            "playerTrialScore": -5,
            "oppTrialScore": 5,
            "playerTotalScore": -263,
            "oppTotalScore": -34,
            "waitTime": 5322.426983654768,
            "responseTime": 1680649756203,
            "catchQuestion": "How many <b class=\"r\">red<\/b> marbles did your opponent report drawing? ",
            "catchKey": -1,
            "catchResponse": -1,
            "catchTime": 1680649756203,
            "trialTime": 0
        }
    ]
}