{
    "client": {
        "type": "sona",
        "experiment_id": 2228,
        "credit_token": "b315147ae43241ea9c65086cb510cfb7",
        "survey_code": "48030",
        "sid": "sona-48030",
        "window": {
            "width": 1440,
            "height": 821
        },
        "screen": {
            "width": 1440,
            "height": 900
        },
        "userAgent": "Mozilla\/5.0 (Macintosh; Intel Mac OS X 10_15_7) AppleWebKit\/537.36 (KHTML, like Gecko) Chrome\/110.0.0.0 Safari\/537.36",
        "score": 0,
        "bonus": 0
    },
    "expt": {
        "saveURL": "submit.simple.php",
        "trials": 100,
        "practiceTrials": 2,
        "marblesSampled": 100,
        "probRed": 0.5,
        "lambdaAI": 5,
        "roleFirst": "receiver",
        "roles": [
            "sender",
            "receiver"
        ],
        "cost": "unif",
        "goal": "under",
        "goalInstructTxt": "above",
        "catchTrials": [
            88,
            11,
            32,
            91,
            61,
            15,
            47,
            41,
            87,
            83
        ],
        "scoreTotal": {
            "player": -558,
            "opp": -1411
        },
        "sona": {
            "experiment_id": 2228,
            "credit_token": "b315147ae43241ea9c65086cb510cfb7"
        },
        "pilot": false,
        "debug": false
    },
    "trials": [
        {
            "exptPart": "practice",
            "trialNumber": 1,
            "roleCurrent": "sender",
            "marblesSampled": 100,
            "probRed": 0.5,
            "lambda": 5,
            "drawnRed": 20,
            "reportedRed": 20,
            "inferredRed": 24,
            "playerTrialScore": 0,
            "oppTrialScore": -4,
            "playerTotalScore": 0,
            "oppTotalScore": -4,
            "waitTime": 2503.0043631899007,
            "responseTime": 1678857409873,
            "catchQuestion": "How many <b class=\"r\">red<\/b> marbles did you actually draw (before any changes)? ",
            "catchKey": 20,
            "catchResponse": 20,
            "catchTime": 1678857409874,
            "trialTime": 0
        },
        {
            "exptPart": "practice",
            "trialNumber": 2,
            "roleCurrent": "receiver",
            "marblesSampled": 100,
            "probRed": 0.5,
            "lambda": 5,
            "drawnRed": 60,
            "reportedRed": 58,
            "inferredRed": 60,
            "playerTrialScore": 0,
            "oppTrialScore": 0,
            "playerTotalScore": 0,
            "oppTotalScore": -4,
            "waitTime": 5177.907822910722,
            "responseTime": 1678857459466,
            "catchQuestion": "How many <b class=\"r\">red<\/b> marbles did your opponent report drawing? ",
            "catchKey": 58,
            "catchResponse": 60,
            "catchTime": 1678857459466,
            "trialTime": 0
        },
        {
            "exptPart": "trial",
            "trialNumber": 1,
            "roleCurrent": "receiver",
            "marblesSampled": 100,
            "probRed": 0.5,
            "lambda": 5,
            "drawnRed": 87,
            "reportedRed": 83,
            "inferredRed": 85,
            "playerTrialScore": -2,
            "oppTrialScore": 2,
            "playerTotalScore": -2,
            "oppTotalScore": 2,
            "waitTime": 6312.693613738567,
            "responseTime": 1678857520897,
            "catchQuestion": "How many <b class=\"r\">red<\/b> marbles did your opponent report drawing? ",
            "catchKey": -1,
            "catchResponse": -1,
            "catchTime": 1678857459466,
            "trialTime": 0
        },
        {
            "exptPart": "trial",
            "trialNumber": 2,
            "roleCurrent": "sender",
            "marblesSampled": 100,
            "probRed": 0.5,
            "lambda": 5,
            "drawnRed": 64,
            "reportedRed": 60,
            "inferredRed": 65,
            "playerTrialScore": 0,
            "oppTrialScore": -1,
            "playerTotalScore": -2,
            "oppTotalScore": 1,
            "waitTime": 2273.4566966715074,
            "responseTime": 1678857540087,
            "catchQuestion": "How many <b class=\"r\">red<\/b> marbles did your opponent report drawing? ",
            "catchKey": -1,
            "catchResponse": -1,
            "catchTime": 1678857459466,
            "trialTime": 0
        },
        {
            "exptPart": "trial",
            "trialNumber": 3,
            "roleCurrent": "receiver",
            "marblesSampled": 100,
            "probRed": 0.5,
            "lambda": 5,
            "drawnRed": 43,
            "reportedRed": 35,
            "inferredRed": 40,
            "playerTrialScore": -3,
            "oppTrialScore": 3,
            "playerTotalScore": -5,
            "oppTotalScore": 4,
            "waitTime": 6007.064553643444,
            "responseTime": 1678857557868,
            "catchQuestion": "How many <b class=\"r\">red<\/b> marbles did your opponent report drawing? ",
            "catchKey": -1,
            "catchResponse": -1,
            "catchTime": 1678857459466,
            "trialTime": 0
        },
        {
            "exptPart": "trial",
            "trialNumber": 4,
            "roleCurrent": "sender",
            "marblesSampled": 100,
            "probRed": 0.5,
            "lambda": 5,
            "drawnRed": 72,
            "reportedRed": 67,
            "inferredRed": 75,
            "playerTrialScore": 0,
            "oppTrialScore": -3,
            "playerTotalScore": -5,
            "oppTotalScore": 1,
            "waitTime": 2353.765140479884,
            "responseTime": 1678857583401,
            "catchQuestion": "How many <b class=\"r\">red<\/b> marbles did your opponent report drawing? ",
            "catchKey": -1,
            "catchResponse": -1,
            "catchTime": 1678857459466,
            "trialTime": 0
        },
        {
            "exptPart": "trial",
            "trialNumber": 5,
            "roleCurrent": "receiver",
            "marblesSampled": 100,
            "probRed": 0.5,
            "lambda": 5,
            "drawnRed": 56,
            "reportedRed": 52,
            "inferredRed": 56,
            "playerTrialScore": 0,
            "oppTrialScore": 0,
            "playerTotalScore": -5,
            "oppTotalScore": 1,
            "waitTime": 5184.803311676579,
            "responseTime": 1678857609320,
            "catchQuestion": "How many <b class=\"r\">red<\/b> marbles did your opponent report drawing? ",
            "catchKey": -1,
            "catchResponse": -1,
            "catchTime": 1678857609320,
            "trialTime": 0
        },
        {
            "exptPart": "trial",
            "trialNumber": 6,
            "roleCurrent": "sender",
            "marblesSampled": 100,
            "probRed": 0.5,
            "lambda": 5,
            "drawnRed": 66,
            "reportedRed": 24,
            "inferredRed": 30,
            "playerTrialScore": 36,
            "oppTrialScore": -36,
            "playerTotalScore": 31,
            "oppTotalScore": -35,
            "waitTime": 2832.532789697314,
            "responseTime": 1678857678804,
            "catchQuestion": "How many <b class=\"r\">red<\/b> marbles did your opponent report drawing? ",
            "catchKey": -1,
            "catchResponse": -1,
            "catchTime": 1678857609320,
            "trialTime": 0
        },
        {
            "exptPart": "trial",
            "trialNumber": 7,
            "roleCurrent": "receiver",
            "marblesSampled": 100,
            "probRed": 0.5,
            "lambda": 5,
            "drawnRed": 78,
            "reportedRed": 72,
            "inferredRed": 100,
            "playerTrialScore": -22,
            "oppTrialScore": 0,
            "playerTotalScore": 9,
            "oppTotalScore": -35,
            "waitTime": 6542.117728059569,
            "responseTime": 1678857698285,
            "catchQuestion": "How many <b class=\"r\">red<\/b> marbles did your opponent report drawing? ",
            "catchKey": -1,
            "catchResponse": -1,
            "catchTime": 1678857609320,
            "trialTime": 0
        },
        {
            "exptPart": "trial",
            "trialNumber": 8,
            "roleCurrent": "sender",
            "marblesSampled": 100,
            "probRed": 0.5,
            "lambda": 5,
            "drawnRed": 32,
            "reportedRed": 9,
            "inferredRed": 10,
            "playerTrialScore": 22,
            "oppTrialScore": -22,
            "playerTotalScore": 31,
            "oppTotalScore": -57,
            "waitTime": 2190.5954695586656,
            "responseTime": 1678857729062,
            "catchQuestion": "How many <b class=\"r\">red<\/b> marbles did your opponent report drawing? ",
            "catchKey": -1,
            "catchResponse": -1,
            "catchTime": 1678857609320,
            "trialTime": 0
        },
        {
            "exptPart": "trial",
            "trialNumber": 9,
            "roleCurrent": "receiver",
            "marblesSampled": 100,
            "probRed": 0.5,
            "lambda": 5,
            "drawnRed": 23,
            "reportedRed": 17,
            "inferredRed": 100,
            "playerTrialScore": -77,
            "oppTrialScore": 0,
            "playerTotalScore": -46,
            "oppTotalScore": -57,
            "waitTime": 6243.486153301754,
            "responseTime": 1678857743244,
            "catchQuestion": "How many <b class=\"r\">red<\/b> marbles did your opponent report drawing? ",
            "catchKey": -1,
            "catchResponse": -1,
            "catchTime": 1678857609320,
            "trialTime": 0
        },
        {
            "exptPart": "trial",
            "trialNumber": 10,
            "roleCurrent": "sender",
            "marblesSampled": 100,
            "probRed": 0.5,
            "lambda": 5,
            "drawnRed": 58,
            "reportedRed": 36,
            "inferredRed": 41,
            "playerTrialScore": 17,
            "oppTrialScore": -17,
            "playerTotalScore": -29,
            "oppTotalScore": -74,
            "waitTime": 2475.409296475258,
            "responseTime": 1678857765351,
            "catchQuestion": "How many <b class=\"r\">red<\/b> marbles did your opponent report drawing? ",
            "catchKey": -1,
            "catchResponse": -1,
            "catchTime": 1678857765351,
            "trialTime": 0
        },
        {
            "exptPart": "trial",
            "trialNumber": 11,
            "roleCurrent": "receiver",
            "marblesSampled": 100,
            "probRed": 0.5,
            "lambda": 5,
            "drawnRed": 31,
            "reportedRed": 19,
            "inferredRed": 50,
            "playerTrialScore": -19,
            "oppTrialScore": 0,
            "playerTotalScore": -48,
            "oppTotalScore": -74,
            "waitTime": 5327.18410914919,
            "responseTime": 1678857792200,
            "catchQuestion": "How many <b class=\"r\">red<\/b> marbles did your opponent report drawing? ",
            "catchKey": -1,
            "catchResponse": -1,
            "catchTime": 1678857765351,
            "trialTime": 0
        },
        {
            "exptPart": "trial",
            "trialNumber": 12,
            "roleCurrent": "sender",
            "marblesSampled": 100,
            "probRed": 0.5,
            "lambda": 5,
            "drawnRed": 63,
            "reportedRed": 33,
            "inferredRed": 39,
            "playerTrialScore": 24,
            "oppTrialScore": -24,
            "playerTotalScore": -24,
            "oppTotalScore": -98,
            "waitTime": 2800.1355230010186,
            "responseTime": 1678857833766,
            "catchQuestion": "How many <b class=\"r\">red<\/b> marbles did you actually draw (before any changes)? ",
            "catchKey": 63,
            "catchResponse": 67,
            "catchTime": 1678857833766,
            "trialTime": 0
        },
        {
            "exptPart": "trial",
            "trialNumber": 13,
            "roleCurrent": "receiver",
            "marblesSampled": 100,
            "probRed": 0.5,
            "lambda": 5,
            "drawnRed": 55,
            "reportedRed": 48,
            "inferredRed": 67,
            "playerTrialScore": -12,
            "oppTrialScore": 0,
            "playerTotalScore": -36,
            "oppTotalScore": -98,
            "waitTime": 6240.88081514551,
            "responseTime": 1678857883142,
            "catchQuestion": "How many <b class=\"r\">red<\/b> marbles did you actually draw (before any changes)? ",
            "catchKey": -1,
            "catchResponse": -1,
            "catchTime": 1678857833766,
            "trialTime": 0
        },
        {
            "exptPart": "trial",
            "trialNumber": 14,
            "roleCurrent": "sender",
            "marblesSampled": 100,
            "probRed": 0.5,
            "lambda": 5,
            "drawnRed": 35,
            "reportedRed": 14,
            "inferredRed": 20,
            "playerTrialScore": 15,
            "oppTrialScore": -15,
            "playerTotalScore": -21,
            "oppTotalScore": -113,
            "waitTime": 2570.303714053869,
            "responseTime": 1678857909419,
            "catchQuestion": "How many <b class=\"r\">red<\/b> marbles did you actually draw (before any changes)? ",
            "catchKey": -1,
            "catchResponse": -1,
            "catchTime": 1678857833766,
            "trialTime": 0
        },
        {
            "exptPart": "trial",
            "trialNumber": 15,
            "roleCurrent": "receiver",
            "marblesSampled": 100,
            "probRed": 0.5,
            "lambda": 5,
            "drawnRed": 59,
            "reportedRed": 55,
            "inferredRed": 45,
            "playerTrialScore": -14,
            "oppTrialScore": 14,
            "playerTotalScore": -35,
            "oppTotalScore": -99,
            "waitTime": 7148.87659907447,
            "responseTime": 1678857923601,
            "catchQuestion": "How many <b class=\"r\">red<\/b> marbles did you actually draw (before any changes)? ",
            "catchKey": -1,
            "catchResponse": -1,
            "catchTime": 1678857923601,
            "trialTime": 0
        },
        {
            "exptPart": "trial",
            "trialNumber": 16,
            "roleCurrent": "sender",
            "marblesSampled": 100,
            "probRed": 0.5,
            "lambda": 5,
            "drawnRed": 55,
            "reportedRed": 32,
            "inferredRed": 36,
            "playerTrialScore": 19,
            "oppTrialScore": -19,
            "playerTotalScore": -16,
            "oppTotalScore": -118,
            "waitTime": 2108.4381003004314,
            "responseTime": 1678857968373,
            "catchQuestion": "How many <b class=\"r\">red<\/b> marbles did you actually draw (before any changes)? ",
            "catchKey": 55,
            "catchResponse": 58,
            "catchTime": 1678857968373,
            "trialTime": 0
        },
        {
            "exptPart": "trial",
            "trialNumber": 17,
            "roleCurrent": "receiver",
            "marblesSampled": 100,
            "probRed": 0.5,
            "lambda": 5,
            "drawnRed": 59,
            "reportedRed": 50,
            "inferredRed": 100,
            "playerTrialScore": -41,
            "oppTrialScore": 0,
            "playerTotalScore": -57,
            "oppTotalScore": -118,
            "waitTime": 5283.1494337817585,
            "responseTime": 1678857989198,
            "catchQuestion": "How many <b class=\"r\">red<\/b> marbles did you actually draw (before any changes)? ",
            "catchKey": -1,
            "catchResponse": -1,
            "catchTime": 1678857968373,
            "trialTime": 0
        },
        {
            "exptPart": "trial",
            "trialNumber": 18,
            "roleCurrent": "sender",
            "marblesSampled": 100,
            "probRed": 0.5,
            "lambda": 5,
            "drawnRed": 68,
            "reportedRed": 46,
            "inferredRed": 52,
            "playerTrialScore": 16,
            "oppTrialScore": -16,
            "playerTotalScore": -41,
            "oppTotalScore": -134,
            "waitTime": 2753.0967859218536,
            "responseTime": 1678858017366,
            "catchQuestion": "How many <b class=\"r\">red<\/b> marbles did you actually draw (before any changes)? ",
            "catchKey": -1,
            "catchResponse": -1,
            "catchTime": 1678857968373,
            "trialTime": 0
        },
        {
            "exptPart": "trial",
            "trialNumber": 19,
            "roleCurrent": "receiver",
            "marblesSampled": 100,
            "probRed": 0.5,
            "lambda": 5,
            "drawnRed": 26,
            "reportedRed": 23,
            "inferredRed": 50,
            "playerTrialScore": -24,
            "oppTrialScore": 0,
            "playerTotalScore": -65,
            "oppTotalScore": -134,
            "waitTime": 6610.29594321508,
            "responseTime": 1678858027672,
            "catchQuestion": "How many <b class=\"r\">red<\/b> marbles did you actually draw (before any changes)? ",
            "catchKey": -1,
            "catchResponse": -1,
            "catchTime": 1678857968373,
            "trialTime": 0
        },
        {
            "exptPart": "trial",
            "trialNumber": 20,
            "roleCurrent": "sender",
            "marblesSampled": 100,
            "probRed": 0.5,
            "lambda": 5,
            "drawnRed": 37,
            "reportedRed": 16,
            "inferredRed": 19,
            "playerTrialScore": 18,
            "oppTrialScore": -18,
            "playerTotalScore": -47,
            "oppTotalScore": -152,
            "waitTime": 2680.9184050312133,
            "responseTime": 1678858052690,
            "catchQuestion": "How many <b class=\"r\">red<\/b> marbles did you actually draw (before any changes)? ",
            "catchKey": -1,
            "catchResponse": -1,
            "catchTime": 1678858052690,
            "trialTime": 0
        },
        {
            "exptPart": "trial",
            "trialNumber": 21,
            "roleCurrent": "receiver",
            "marblesSampled": 100,
            "probRed": 0.5,
            "lambda": 5,
            "drawnRed": 32,
            "reportedRed": 26,
            "inferredRed": 50,
            "playerTrialScore": -18,
            "oppTrialScore": 0,
            "playerTotalScore": -65,
            "oppTotalScore": -152,
            "waitTime": 5560.895567464403,
            "responseTime": 1678858066603,
            "catchQuestion": "How many <b class=\"r\">red<\/b> marbles did you actually draw (before any changes)? ",
            "catchKey": -1,
            "catchResponse": -1,
            "catchTime": 1678858052690,
            "trialTime": 0
        },
        {
            "exptPart": "trial",
            "trialNumber": 22,
            "roleCurrent": "sender",
            "marblesSampled": 100,
            "probRed": 0.5,
            "lambda": 5,
            "drawnRed": 70,
            "reportedRed": 50,
            "inferredRed": 54,
            "playerTrialScore": 16,
            "oppTrialScore": -16,
            "playerTotalScore": -49,
            "oppTotalScore": -168,
            "waitTime": 2327.1726346120486,
            "responseTime": 1678858088678,
            "catchQuestion": "How many <b class=\"r\">red<\/b> marbles did you actually draw (before any changes)? ",
            "catchKey": -1,
            "catchResponse": -1,
            "catchTime": 1678858052690,
            "trialTime": 0
        },
        {
            "exptPart": "trial",
            "trialNumber": 23,
            "roleCurrent": "receiver",
            "marblesSampled": 100,
            "probRed": 0.5,
            "lambda": 5,
            "drawnRed": 39,
            "reportedRed": 30,
            "inferredRed": 50,
            "playerTrialScore": -11,
            "oppTrialScore": 0,
            "playerTotalScore": -60,
            "oppTotalScore": -168,
            "waitTime": 5569.6635916609885,
            "responseTime": 1678858097950,
            "catchQuestion": "How many <b class=\"r\">red<\/b> marbles did you actually draw (before any changes)? ",
            "catchKey": -1,
            "catchResponse": -1,
            "catchTime": 1678858052690,
            "trialTime": 0
        },
        {
            "exptPart": "trial",
            "trialNumber": 24,
            "roleCurrent": "sender",
            "marblesSampled": 100,
            "probRed": 0.5,
            "lambda": 5,
            "drawnRed": 45,
            "reportedRed": 50,
            "inferredRed": 52,
            "playerTrialScore": 0,
            "oppTrialScore": -7,
            "playerTotalScore": -60,
            "oppTotalScore": -175,
            "waitTime": 2072.486447644087,
            "responseTime": 1678858121013,
            "catchQuestion": "How many <b class=\"r\">red<\/b> marbles did you actually draw (before any changes)? ",
            "catchKey": -1,
            "catchResponse": -1,
            "catchTime": 1678858052690,
            "trialTime": 0
        },
        {
            "exptPart": "trial",
            "trialNumber": 25,
            "roleCurrent": "receiver",
            "marblesSampled": 100,
            "probRed": 0.5,
            "lambda": 5,
            "drawnRed": 20,
            "reportedRed": 12,
            "inferredRed": 50,
            "playerTrialScore": -30,
            "oppTrialScore": 0,
            "playerTotalScore": -90,
            "oppTotalScore": -175,
            "waitTime": 7023.441256757887,
            "responseTime": 1678858131330,
            "catchQuestion": "How many <b class=\"r\">red<\/b> marbles did you actually draw (before any changes)? ",
            "catchKey": -1,
            "catchResponse": -1,
            "catchTime": 1678858131330,
            "trialTime": 0
        },
        {
            "exptPart": "trial",
            "trialNumber": 26,
            "roleCurrent": "sender",
            "marblesSampled": 100,
            "probRed": 0.5,
            "lambda": 5,
            "drawnRed": 62,
            "reportedRed": 42,
            "inferredRed": 47,
            "playerTrialScore": 15,
            "oppTrialScore": -15,
            "playerTotalScore": -75,
            "oppTotalScore": -190,
            "waitTime": 2184.3943654869045,
            "responseTime": 1678858170154,
            "catchQuestion": "How many <b class=\"r\">red<\/b> marbles did you actually draw (before any changes)? ",
            "catchKey": -1,
            "catchResponse": -1,
            "catchTime": 1678858131330,
            "trialTime": 0
        },
        {
            "exptPart": "trial",
            "trialNumber": 27,
            "roleCurrent": "receiver",
            "marblesSampled": 100,
            "probRed": 0.5,
            "lambda": 5,
            "drawnRed": 42,
            "reportedRed": 37,
            "inferredRed": 50,
            "playerTrialScore": -8,
            "oppTrialScore": 0,
            "playerTotalScore": -83,
            "oppTotalScore": -190,
            "waitTime": 5949.748932223554,
            "responseTime": 1678858180573,
            "catchQuestion": "How many <b class=\"r\">red<\/b> marbles did you actually draw (before any changes)? ",
            "catchKey": -1,
            "catchResponse": -1,
            "catchTime": 1678858131330,
            "trialTime": 0
        },
        {
            "exptPart": "trial",
            "trialNumber": 28,
            "roleCurrent": "sender",
            "marblesSampled": 100,
            "probRed": 0.5,
            "lambda": 5,
            "drawnRed": 51,
            "reportedRed": 26,
            "inferredRed": 33,
            "playerTrialScore": 18,
            "oppTrialScore": -18,
            "playerTotalScore": -65,
            "oppTotalScore": -208,
            "waitTime": 2565.4920730004724,
            "responseTime": 1678858215513,
            "catchQuestion": "How many <b class=\"r\">red<\/b> marbles did you actually draw (before any changes)? ",
            "catchKey": -1,
            "catchResponse": -1,
            "catchTime": 1678858131330,
            "trialTime": 0
        },
        {
            "exptPart": "trial",
            "trialNumber": 29,
            "roleCurrent": "receiver",
            "marblesSampled": 100,
            "probRed": 0.5,
            "lambda": 5,
            "drawnRed": 9,
            "reportedRed": 5,
            "inferredRed": 25,
            "playerTrialScore": -16,
            "oppTrialScore": 0,
            "playerTotalScore": -81,
            "oppTotalScore": -208,
            "waitTime": 6851.8497162020585,
            "responseTime": 1678858227284,
            "catchQuestion": "How many <b class=\"r\">red<\/b> marbles did you actually draw (before any changes)? ",
            "catchKey": -1,
            "catchResponse": -1,
            "catchTime": 1678858131330,
            "trialTime": 0
        },
        {
            "exptPart": "trial",
            "trialNumber": 30,
            "roleCurrent": "sender",
            "marblesSampled": 100,
            "probRed": 0.5,
            "lambda": 5,
            "drawnRed": 89,
            "reportedRed": 100,
            "inferredRed": 100,
            "playerTrialScore": 0,
            "oppTrialScore": -11,
            "playerTotalScore": -81,
            "oppTotalScore": -219,
            "waitTime": 2182.1188777560064,
            "responseTime": 1678858257894,
            "catchQuestion": "How many <b class=\"r\">red<\/b> marbles did you actually draw (before any changes)? ",
            "catchKey": -1,
            "catchResponse": -1,
            "catchTime": 1678858257894,
            "trialTime": 0
        },
        {
            "exptPart": "trial",
            "trialNumber": 31,
            "roleCurrent": "receiver",
            "marblesSampled": 100,
            "probRed": 0.5,
            "lambda": 5,
            "drawnRed": 47,
            "reportedRed": 46,
            "inferredRed": 60,
            "playerTrialScore": -13,
            "oppTrialScore": 0,
            "playerTotalScore": -94,
            "oppTotalScore": -219,
            "waitTime": 7181.758744007195,
            "responseTime": 1678858287794,
            "catchQuestion": "How many <b class=\"r\">red<\/b> marbles did you actually draw (before any changes)? ",
            "catchKey": -1,
            "catchResponse": -1,
            "catchTime": 1678858257894,
            "trialTime": 0
        },
        {
            "exptPart": "trial",
            "trialNumber": 32,
            "roleCurrent": "sender",
            "marblesSampled": 100,
            "probRed": 0.5,
            "lambda": 5,
            "drawnRed": 55,
            "reportedRed": 27,
            "inferredRed": 30,
            "playerTrialScore": 25,
            "oppTrialScore": -25,
            "playerTotalScore": -69,
            "oppTotalScore": -244,
            "waitTime": 2150.4401034460834,
            "responseTime": 1678858319362,
            "catchQuestion": "How many <b class=\"r\">red<\/b> marbles did you actually draw (before any changes)? ",
            "catchKey": -1,
            "catchResponse": -1,
            "catchTime": 1678858257894,
            "trialTime": 0
        },
        {
            "exptPart": "trial",
            "trialNumber": 33,
            "roleCurrent": "receiver",
            "marblesSampled": 100,
            "probRed": 0.5,
            "lambda": 5,
            "drawnRed": 21,
            "reportedRed": 18,
            "inferredRed": 32,
            "playerTrialScore": -11,
            "oppTrialScore": 0,
            "playerTotalScore": -80,
            "oppTotalScore": -244,
            "waitTime": 6770.720165525868,
            "responseTime": 1678858337295,
            "catchQuestion": "How many <b class=\"r\">red<\/b> marbles did your opponent report drawing? ",
            "catchKey": 18,
            "catchResponse": 18,
            "catchTime": 1678858337295,
            "trialTime": 0
        },
        {
            "exptPart": "trial",
            "trialNumber": 34,
            "roleCurrent": "sender",
            "marblesSampled": 100,
            "probRed": 0.5,
            "lambda": 5,
            "drawnRed": 57,
            "reportedRed": 79,
            "inferredRed": 85,
            "playerTrialScore": 0,
            "oppTrialScore": -28,
            "playerTotalScore": -80,
            "oppTotalScore": -272,
            "waitTime": 2652.8415184308965,
            "responseTime": 1678858399664,
            "catchQuestion": "How many <b class=\"r\">red<\/b> marbles did your opponent report drawing? ",
            "catchKey": -1,
            "catchResponse": -1,
            "catchTime": 1678858337295,
            "trialTime": 0
        },
        {
            "exptPart": "trial",
            "trialNumber": 35,
            "roleCurrent": "receiver",
            "marblesSampled": 100,
            "probRed": 0.5,
            "lambda": 5,
            "drawnRed": 24,
            "reportedRed": 19,
            "inferredRed": 50,
            "playerTrialScore": -26,
            "oppTrialScore": 0,
            "playerTotalScore": -106,
            "oppTotalScore": -272,
            "waitTime": 5635.061152007694,
            "responseTime": 1678858411168,
            "catchQuestion": "How many <b class=\"r\">red<\/b> marbles did your opponent report drawing? ",
            "catchKey": -1,
            "catchResponse": -1,
            "catchTime": 1678858411168,
            "trialTime": 0
        },
        {
            "exptPart": "trial",
            "trialNumber": 36,
            "roleCurrent": "sender",
            "marblesSampled": 100,
            "probRed": 0.5,
            "lambda": 5,
            "drawnRed": 55,
            "reportedRed": -3,
            "inferredRed": 1,
            "playerTrialScore": 54,
            "oppTrialScore": -54,
            "playerTotalScore": -52,
            "oppTotalScore": -326,
            "waitTime": 2299.728734915202,
            "responseTime": 1678858521596,
            "catchQuestion": "How many <b class=\"r\">red<\/b> marbles did your opponent report drawing? ",
            "catchKey": -1,
            "catchResponse": -1,
            "catchTime": 1678858411168,
            "trialTime": 0
        },
        {
            "exptPart": "trial",
            "trialNumber": 37,
            "roleCurrent": "receiver",
            "marblesSampled": 100,
            "probRed": 0.5,
            "lambda": 5,
            "drawnRed": 48,
            "reportedRed": 43,
            "inferredRed": 100,
            "playerTrialScore": -52,
            "oppTrialScore": 0,
            "playerTotalScore": -104,
            "oppTotalScore": -326,
            "waitTime": 5402.020191047184,
            "responseTime": 1678858553339,
            "catchQuestion": "How many <b class=\"r\">red<\/b> marbles did your opponent report drawing? ",
            "catchKey": -1,
            "catchResponse": -1,
            "catchTime": 1678858411168,
            "trialTime": 0
        },
        {
            "exptPart": "trial",
            "trialNumber": 38,
            "roleCurrent": "sender",
            "marblesSampled": 100,
            "probRed": 0.5,
            "lambda": 5,
            "drawnRed": 93,
            "reportedRed": 100,
            "inferredRed": 100,
            "playerTrialScore": 0,
            "oppTrialScore": -7,
            "playerTotalScore": -104,
            "oppTotalScore": -333,
            "waitTime": 2841.885460374152,
            "responseTime": 1678858579460,
            "catchQuestion": "How many <b class=\"r\">red<\/b> marbles did your opponent report drawing? ",
            "catchKey": -1,
            "catchResponse": -1,
            "catchTime": 1678858411168,
            "trialTime": 0
        },
        {
            "exptPart": "trial",
            "trialNumber": 39,
            "roleCurrent": "receiver",
            "marblesSampled": 100,
            "probRed": 0.5,
            "lambda": 5,
            "drawnRed": 30,
            "reportedRed": 24,
            "inferredRed": 100,
            "playerTrialScore": -70,
            "oppTrialScore": 0,
            "playerTotalScore": -174,
            "oppTotalScore": -333,
            "waitTime": 5525.955974885495,
            "responseTime": 1678858593819,
            "catchQuestion": "How many <b class=\"r\">red<\/b> marbles did your opponent report drawing? ",
            "catchKey": -1,
            "catchResponse": -1,
            "catchTime": 1678858411168,
            "trialTime": 0
        },
        {
            "exptPart": "trial",
            "trialNumber": 40,
            "roleCurrent": "sender",
            "marblesSampled": 100,
            "probRed": 0.5,
            "lambda": 5,
            "drawnRed": 56,
            "reportedRed": 18,
            "inferredRed": 21,
            "playerTrialScore": 35,
            "oppTrialScore": -35,
            "playerTotalScore": -139,
            "oppTotalScore": -368,
            "waitTime": 2176.2079335385943,
            "responseTime": 1678858639604,
            "catchQuestion": "How many <b class=\"r\">red<\/b> marbles did your opponent report drawing? ",
            "catchKey": -1,
            "catchResponse": -1,
            "catchTime": 1678858639604,
            "trialTime": 0
        },
        {
            "exptPart": "trial",
            "trialNumber": 41,
            "roleCurrent": "receiver",
            "marblesSampled": 100,
            "probRed": 0.5,
            "lambda": 5,
            "drawnRed": 23,
            "reportedRed": 19,
            "inferredRed": 50,
            "playerTrialScore": -27,
            "oppTrialScore": 0,
            "playerTotalScore": -166,
            "oppTotalScore": -368,
            "waitTime": 5210.98554334959,
            "responseTime": 1678858661452,
            "catchQuestion": "How many <b class=\"r\">red<\/b> marbles did your opponent report drawing? ",
            "catchKey": -1,
            "catchResponse": -1,
            "catchTime": 1678858639604,
            "trialTime": 0
        },
        {
            "exptPart": "trial",
            "trialNumber": 42,
            "roleCurrent": "sender",
            "marblesSampled": 100,
            "probRed": 0.5,
            "lambda": 5,
            "drawnRed": 55,
            "reportedRed": 20,
            "inferredRed": 25,
            "playerTrialScore": 30,
            "oppTrialScore": -30,
            "playerTotalScore": -136,
            "oppTotalScore": -398,
            "waitTime": 2876.039904416906,
            "responseTime": 1678858695780,
            "catchQuestion": "How many <b class=\"r\">red<\/b> marbles did you actually draw (before any changes)? ",
            "catchKey": 55,
            "catchResponse": 55,
            "catchTime": 1678858695780,
            "trialTime": 0
        },
        {
            "exptPart": "trial",
            "trialNumber": 43,
            "roleCurrent": "receiver",
            "marblesSampled": 100,
            "probRed": 0.5,
            "lambda": 5,
            "drawnRed": 49,
            "reportedRed": 47,
            "inferredRed": 100,
            "playerTrialScore": -51,
            "oppTrialScore": 0,
            "playerTotalScore": -187,
            "oppTotalScore": -398,
            "waitTime": 5661.253016208257,
            "responseTime": 1678858713394,
            "catchQuestion": "How many <b class=\"r\">red<\/b> marbles did you actually draw (before any changes)? ",
            "catchKey": -1,
            "catchResponse": -1,
            "catchTime": 1678858695780,
            "trialTime": 0
        },
        {
            "exptPart": "trial",
            "trialNumber": 44,
            "roleCurrent": "sender",
            "marblesSampled": 100,
            "probRed": 0.5,
            "lambda": 5,
            "drawnRed": 70,
            "reportedRed": 100,
            "inferredRed": 100,
            "playerTrialScore": 0,
            "oppTrialScore": -30,
            "playerTotalScore": -187,
            "oppTotalScore": -428,
            "waitTime": 2210.7844669489746,
            "responseTime": 1678858744537,
            "catchQuestion": "How many <b class=\"r\">red<\/b> marbles did you actually draw (before any changes)? ",
            "catchKey": -1,
            "catchResponse": -1,
            "catchTime": 1678858695780,
            "trialTime": 0
        },
        {
            "exptPart": "trial",
            "trialNumber": 45,
            "roleCurrent": "receiver",
            "marblesSampled": 100,
            "probRed": 0.5,
            "lambda": 5,
            "drawnRed": 68,
            "reportedRed": 67,
            "inferredRed": 100,
            "playerTrialScore": -32,
            "oppTrialScore": 0,
            "playerTotalScore": -219,
            "oppTotalScore": -428,
            "waitTime": 6733.301171644229,
            "responseTime": 1678858756350,
            "catchQuestion": "How many <b class=\"r\">red<\/b> marbles did you actually draw (before any changes)? ",
            "catchKey": -1,
            "catchResponse": -1,
            "catchTime": 1678858756350,
            "trialTime": 0
        },
        {
            "exptPart": "trial",
            "trialNumber": 46,
            "roleCurrent": "sender",
            "marblesSampled": 100,
            "probRed": 0.5,
            "lambda": 5,
            "drawnRed": 39,
            "reportedRed": 9,
            "inferredRed": 18,
            "playerTrialScore": 21,
            "oppTrialScore": -21,
            "playerTotalScore": -198,
            "oppTotalScore": -449,
            "waitTime": 2865.6518751903923,
            "responseTime": 1678858800551,
            "catchQuestion": "How many <b class=\"r\">red<\/b> marbles did you actually draw (before any changes)? ",
            "catchKey": -1,
            "catchResponse": -1,
            "catchTime": 1678858756350,
            "trialTime": 0
        },
        {
            "exptPart": "trial",
            "trialNumber": 47,
            "roleCurrent": "receiver",
            "marblesSampled": 100,
            "probRed": 0.5,
            "lambda": 5,
            "drawnRed": 21,
            "reportedRed": 14,
            "inferredRed": 100,
            "playerTrialScore": -79,
            "oppTrialScore": 0,
            "playerTotalScore": -277,
            "oppTotalScore": -449,
            "waitTime": 5930.785752625363,
            "responseTime": 1678858817930,
            "catchQuestion": "How many <b class=\"r\">red<\/b> marbles did you actually draw (before any changes)? ",
            "catchKey": -1,
            "catchResponse": -1,
            "catchTime": 1678858756350,
            "trialTime": 0
        },
        {
            "exptPart": "trial",
            "trialNumber": 48,
            "roleCurrent": "sender",
            "marblesSampled": 100,
            "probRed": 0.5,
            "lambda": 5,
            "drawnRed": 43,
            "reportedRed": -1,
            "inferredRed": 2,
            "playerTrialScore": 41,
            "oppTrialScore": -41,
            "playerTotalScore": -236,
            "oppTotalScore": -490,
            "waitTime": 2503.961235765171,
            "responseTime": 1678858867266,
            "catchQuestion": "How many <b class=\"r\">red<\/b> marbles did you actually draw (before any changes)? ",
            "catchKey": 43,
            "catchResponse": 34,
            "catchTime": 1678858867266,
            "trialTime": 0
        },
        {
            "exptPart": "trial",
            "trialNumber": 49,
            "roleCurrent": "receiver",
            "marblesSampled": 100,
            "probRed": 0.5,
            "lambda": 5,
            "drawnRed": 70,
            "reportedRed": 66,
            "inferredRed": 100,
            "playerTrialScore": -30,
            "oppTrialScore": 0,
            "playerTotalScore": -266,
            "oppTotalScore": -490,
            "waitTime": 7436.289195826363,
            "responseTime": 1678858909654,
            "catchQuestion": "How many <b class=\"r\">red<\/b> marbles did you actually draw (before any changes)? ",
            "catchKey": -1,
            "catchResponse": -1,
            "catchTime": 1678858867266,
            "trialTime": 0
        },
        {
            "exptPart": "trial",
            "trialNumber": 50,
            "roleCurrent": "sender",
            "marblesSampled": 100,
            "probRed": 0.5,
            "lambda": 5,
            "drawnRed": 65,
            "reportedRed": -1,
            "inferredRed": 2,
            "playerTrialScore": 63,
            "oppTrialScore": -63,
            "playerTotalScore": -203,
            "oppTotalScore": -553,
            "waitTime": 2862.8819688968406,
            "responseTime": 1678859033233,
            "catchQuestion": "How many <b class=\"r\">red<\/b> marbles did you actually draw (before any changes)? ",
            "catchKey": -1,
            "catchResponse": -1,
            "catchTime": 1678859033233,
            "trialTime": 0
        },
        {
            "exptPart": "trial",
            "trialNumber": 51,
            "roleCurrent": "receiver",
            "marblesSampled": 100,
            "probRed": 0.5,
            "lambda": 5,
            "drawnRed": 61,
            "reportedRed": 57,
            "inferredRed": 100,
            "playerTrialScore": -39,
            "oppTrialScore": 0,
            "playerTotalScore": -242,
            "oppTotalScore": -553,
            "waitTime": 5132.857933880706,
            "responseTime": 1678859256586,
            "catchQuestion": "How many <b class=\"r\">red<\/b> marbles did you actually draw (before any changes)? ",
            "catchKey": -1,
            "catchResponse": -1,
            "catchTime": 1678859033233,
            "trialTime": 0
        },
        {
            "exptPart": "trial",
            "trialNumber": 52,
            "roleCurrent": "sender",
            "marblesSampled": 100,
            "probRed": 0.5,
            "lambda": 5,
            "drawnRed": 40,
            "reportedRed": 0,
            "inferredRed": 5,
            "playerTrialScore": 35,
            "oppTrialScore": -35,
            "playerTotalScore": -207,
            "oppTotalScore": -588,
            "waitTime": 2818.7329955352116,
            "responseTime": 1678859298457,
            "catchQuestion": "How many <b class=\"r\">red<\/b> marbles did you actually draw (before any changes)? ",
            "catchKey": -1,
            "catchResponse": -1,
            "catchTime": 1678859033233,
            "trialTime": 0
        },
        {
            "exptPart": "trial",
            "trialNumber": 53,
            "roleCurrent": "receiver",
            "marblesSampled": 100,
            "probRed": 0.5,
            "lambda": 5,
            "drawnRed": 65,
            "reportedRed": 61,
            "inferredRed": 100,
            "playerTrialScore": -35,
            "oppTrialScore": 0,
            "playerTotalScore": -242,
            "oppTotalScore": -588,
            "waitTime": 5943.427431901897,
            "responseTime": 1678859308514,
            "catchQuestion": "How many <b class=\"r\">red<\/b> marbles did you actually draw (before any changes)? ",
            "catchKey": -1,
            "catchResponse": -1,
            "catchTime": 1678859033233,
            "trialTime": 0
        },
        {
            "exptPart": "trial",
            "trialNumber": 54,
            "roleCurrent": "sender",
            "marblesSampled": 100,
            "probRed": 0.5,
            "lambda": 5,
            "drawnRed": 15,
            "reportedRed": 0,
            "inferredRed": 4,
            "playerTrialScore": 11,
            "oppTrialScore": -11,
            "playerTotalScore": -231,
            "oppTotalScore": -599,
            "waitTime": 2217.6963757207277,
            "responseTime": 1678859330395,
            "catchQuestion": "How many <b class=\"r\">red<\/b> marbles did you actually draw (before any changes)? ",
            "catchKey": -1,
            "catchResponse": -1,
            "catchTime": 1678859033233,
            "trialTime": 0
        },
        {
            "exptPart": "trial",
            "trialNumber": 55,
            "roleCurrent": "receiver",
            "marblesSampled": 100,
            "probRed": 0.5,
            "lambda": 5,
            "drawnRed": 64,
            "reportedRed": 55,
            "inferredRed": 100,
            "playerTrialScore": -36,
            "oppTrialScore": 0,
            "playerTotalScore": -267,
            "oppTotalScore": -599,
            "waitTime": 5492.057726725484,
            "responseTime": 1678859339411,
            "catchQuestion": "How many <b class=\"r\">red<\/b> marbles did you actually draw (before any changes)? ",
            "catchKey": -1,
            "catchResponse": -1,
            "catchTime": 1678859339412,
            "trialTime": 0
        },
        {
            "exptPart": "trial",
            "trialNumber": 56,
            "roleCurrent": "sender",
            "marblesSampled": 100,
            "probRed": 0.5,
            "lambda": 5,
            "drawnRed": 70,
            "reportedRed": 29,
            "inferredRed": 36,
            "playerTrialScore": 34,
            "oppTrialScore": -34,
            "playerTotalScore": -233,
            "oppTotalScore": -633,
            "waitTime": 2759.485837263979,
            "responseTime": 1678859397053,
            "catchQuestion": "How many <b class=\"r\">red<\/b> marbles did you actually draw (before any changes)? ",
            "catchKey": -1,
            "catchResponse": -1,
            "catchTime": 1678859339412,
            "trialTime": 0
        },
        {
            "exptPart": "trial",
            "trialNumber": 57,
            "roleCurrent": "receiver",
            "marblesSampled": 100,
            "probRed": 0.5,
            "lambda": 5,
            "drawnRed": 56,
            "reportedRed": 51,
            "inferredRed": 100,
            "playerTrialScore": -44,
            "oppTrialScore": 0,
            "playerTotalScore": -277,
            "oppTotalScore": -633,
            "waitTime": 5281.593657500631,
            "responseTime": 1678859408619,
            "catchQuestion": "How many <b class=\"r\">red<\/b> marbles did you actually draw (before any changes)? ",
            "catchKey": -1,
            "catchResponse": -1,
            "catchTime": 1678859339412,
            "trialTime": 0
        },
        {
            "exptPart": "trial",
            "trialNumber": 58,
            "roleCurrent": "sender",
            "marblesSampled": 100,
            "probRed": 0.5,
            "lambda": 5,
            "drawnRed": 53,
            "reportedRed": 20,
            "inferredRed": 27,
            "playerTrialScore": 26,
            "oppTrialScore": -26,
            "playerTotalScore": -251,
            "oppTotalScore": -659,
            "waitTime": 2296.002586614056,
            "responseTime": 1678859447828,
            "catchQuestion": "How many <b class=\"r\">red<\/b> marbles did you actually draw (before any changes)? ",
            "catchKey": -1,
            "catchResponse": -1,
            "catchTime": 1678859339412,
            "trialTime": 0
        },
        {
            "exptPart": "trial",
            "trialNumber": 59,
            "roleCurrent": "receiver",
            "marblesSampled": 100,
            "probRed": 0.5,
            "lambda": 5,
            "drawnRed": 55,
            "reportedRed": 49,
            "inferredRed": 100,
            "playerTrialScore": -45,
            "oppTrialScore": 0,
            "playerTotalScore": -296,
            "oppTotalScore": -659,
            "waitTime": 5334.806221259407,
            "responseTime": 1678859459686,
            "catchQuestion": "How many <b class=\"r\">red<\/b> marbles did you actually draw (before any changes)? ",
            "catchKey": -1,
            "catchResponse": -1,
            "catchTime": 1678859339412,
            "trialTime": 0
        },
        {
            "exptPart": "trial",
            "trialNumber": 60,
            "roleCurrent": "sender",
            "marblesSampled": 100,
            "probRed": 0.5,
            "lambda": 5,
            "drawnRed": 54,
            "reportedRed": 18,
            "inferredRed": 25,
            "playerTrialScore": 29,
            "oppTrialScore": -29,
            "playerTotalScore": -267,
            "oppTotalScore": -688,
            "waitTime": 2341.790393330143,
            "responseTime": 1678859505990,
            "catchQuestion": "How many <b class=\"r\">red<\/b> marbles did you actually draw (before any changes)? ",
            "catchKey": -1,
            "catchResponse": -1,
            "catchTime": 1678859505990,
            "trialTime": 0
        },
        {
            "exptPart": "trial",
            "trialNumber": 61,
            "roleCurrent": "receiver",
            "marblesSampled": 100,
            "probRed": 0.5,
            "lambda": 5,
            "drawnRed": 58,
            "reportedRed": 56,
            "inferredRed": 100,
            "playerTrialScore": -42,
            "oppTrialScore": 0,
            "playerTotalScore": -309,
            "oppTotalScore": -688,
            "waitTime": 5734.102615925205,
            "responseTime": 1678859527406,
            "catchQuestion": "How many <b class=\"r\">red<\/b> marbles did you actually draw (before any changes)? ",
            "catchKey": -1,
            "catchResponse": -1,
            "catchTime": 1678859505990,
            "trialTime": 0
        },
        {
            "exptPart": "trial",
            "trialNumber": 62,
            "roleCurrent": "sender",
            "marblesSampled": 100,
            "probRed": 0.5,
            "lambda": 5,
            "drawnRed": 71,
            "reportedRed": 23,
            "inferredRed": 29,
            "playerTrialScore": 42,
            "oppTrialScore": -42,
            "playerTotalScore": -267,
            "oppTotalScore": -730,
            "waitTime": 2634.725031197745,
            "responseTime": 1678859592921,
            "catchQuestion": "How many <b class=\"r\">red<\/b> marbles did you actually draw (before any changes)? ",
            "catchKey": 71,
            "catchResponse": 77,
            "catchTime": 1678859592922,
            "trialTime": 0
        },
        {
            "exptPart": "trial",
            "trialNumber": 63,
            "roleCurrent": "receiver",
            "marblesSampled": 100,
            "probRed": 0.5,
            "lambda": 5,
            "drawnRed": 38,
            "reportedRed": 33,
            "inferredRed": 100,
            "playerTrialScore": -62,
            "oppTrialScore": 0,
            "playerTotalScore": -329,
            "oppTotalScore": -730,
            "waitTime": 7348.157940094039,
            "responseTime": 1678859619233,
            "catchQuestion": "How many <b class=\"r\">red<\/b> marbles did you actually draw (before any changes)? ",
            "catchKey": -1,
            "catchResponse": -1,
            "catchTime": 1678859592922,
            "trialTime": 0
        },
        {
            "exptPart": "trial",
            "trialNumber": 64,
            "roleCurrent": "sender",
            "marblesSampled": 100,
            "probRed": 0.5,
            "lambda": 5,
            "drawnRed": 59,
            "reportedRed": 13,
            "inferredRed": 17,
            "playerTrialScore": 42,
            "oppTrialScore": -42,
            "playerTotalScore": -287,
            "oppTotalScore": -772,
            "waitTime": 2336.1634490559954,
            "responseTime": 1678859659127,
            "catchQuestion": "How many <b class=\"r\">red<\/b> marbles did you actually draw (before any changes)? ",
            "catchKey": -1,
            "catchResponse": -1,
            "catchTime": 1678859592922,
            "trialTime": 0
        },
        {
            "exptPart": "trial",
            "trialNumber": 65,
            "roleCurrent": "receiver",
            "marblesSampled": 100,
            "probRed": 0.5,
            "lambda": 5,
            "drawnRed": 69,
            "reportedRed": 65,
            "inferredRed": 100,
            "playerTrialScore": -31,
            "oppTrialScore": 0,
            "playerTotalScore": -318,
            "oppTotalScore": -772,
            "waitTime": 5461.578696908011,
            "responseTime": 1678859670339,
            "catchQuestion": "How many <b class=\"r\">red<\/b> marbles did you actually draw (before any changes)? ",
            "catchKey": -1,
            "catchResponse": -1,
            "catchTime": 1678859670339,
            "trialTime": 0
        },
        {
            "exptPart": "trial",
            "trialNumber": 66,
            "roleCurrent": "sender",
            "marblesSampled": 100,
            "probRed": 0.5,
            "lambda": 5,
            "drawnRed": 65,
            "reportedRed": 19,
            "inferredRed": 22,
            "playerTrialScore": 43,
            "oppTrialScore": -43,
            "playerTotalScore": -275,
            "oppTotalScore": -815,
            "waitTime": 2914.6245348036737,
            "responseTime": 1678859752917,
            "catchQuestion": "How many <b class=\"r\">red<\/b> marbles did you actually draw (before any changes)? ",
            "catchKey": -1,
            "catchResponse": -1,
            "catchTime": 1678859670339,
            "trialTime": 0
        },
        {
            "exptPart": "trial",
            "trialNumber": 67,
            "roleCurrent": "receiver",
            "marblesSampled": 100,
            "probRed": 0.5,
            "lambda": 5,
            "drawnRed": 28,
            "reportedRed": 26,
            "inferredRed": 100,
            "playerTrialScore": -72,
            "oppTrialScore": 0,
            "playerTotalScore": -347,
            "oppTotalScore": -815,
            "waitTime": 6347.734428612212,
            "responseTime": 1678859789158,
            "catchQuestion": "How many <b class=\"r\">red<\/b> marbles did you actually draw (before any changes)? ",
            "catchKey": -1,
            "catchResponse": -1,
            "catchTime": 1678859670339,
            "trialTime": 0
        },
        {
            "exptPart": "trial",
            "trialNumber": 68,
            "roleCurrent": "sender",
            "marblesSampled": 100,
            "probRed": 0.5,
            "lambda": 5,
            "drawnRed": 42,
            "reportedRed": 12,
            "inferredRed": 20,
            "playerTrialScore": 22,
            "oppTrialScore": -22,
            "playerTotalScore": -325,
            "oppTotalScore": -837,
            "waitTime": 2733.8111406226226,
            "responseTime": 1678859834999,
            "catchQuestion": "How many <b class=\"r\">red<\/b> marbles did you actually draw (before any changes)? ",
            "catchKey": -1,
            "catchResponse": -1,
            "catchTime": 1678859670339,
            "trialTime": 0
        },
        {
            "exptPart": "trial",
            "trialNumber": 69,
            "roleCurrent": "receiver",
            "marblesSampled": 100,
            "probRed": 0.5,
            "lambda": 5,
            "drawnRed": 58,
            "reportedRed": 51,
            "inferredRed": 100,
            "playerTrialScore": -42,
            "oppTrialScore": 0,
            "playerTotalScore": -367,
            "oppTotalScore": -837,
            "waitTime": 6857.982211546845,
            "responseTime": 1678859859533,
            "catchQuestion": "How many <b class=\"r\">red<\/b> marbles did you actually draw (before any changes)? ",
            "catchKey": -1,
            "catchResponse": -1,
            "catchTime": 1678859670339,
            "trialTime": 0
        },
        {
            "exptPart": "trial",
            "trialNumber": 70,
            "roleCurrent": "sender",
            "marblesSampled": 100,
            "probRed": 0.5,
            "lambda": 5,
            "drawnRed": 49,
            "reportedRed": 17,
            "inferredRed": 22,
            "playerTrialScore": 27,
            "oppTrialScore": -27,
            "playerTotalScore": -340,
            "oppTotalScore": -864,
            "waitTime": 2205.4423591058467,
            "responseTime": 1678859900594,
            "catchQuestion": "How many <b class=\"r\">red<\/b> marbles did you actually draw (before any changes)? ",
            "catchKey": -1,
            "catchResponse": -1,
            "catchTime": 1678859900595,
            "trialTime": 0
        },
        {
            "exptPart": "trial",
            "trialNumber": 71,
            "roleCurrent": "receiver",
            "marblesSampled": 100,
            "probRed": 0.5,
            "lambda": 5,
            "drawnRed": 29,
            "reportedRed": 24,
            "inferredRed": 100,
            "playerTrialScore": -71,
            "oppTrialScore": 0,
            "playerTotalScore": -411,
            "oppTotalScore": -864,
            "waitTime": 5297.046457908502,
            "responseTime": 1678859933272,
            "catchQuestion": "How many <b class=\"r\">red<\/b> marbles did you actually draw (before any changes)? ",
            "catchKey": -1,
            "catchResponse": -1,
            "catchTime": 1678859900595,
            "trialTime": 0
        },
        {
            "exptPart": "trial",
            "trialNumber": 72,
            "roleCurrent": "sender",
            "marblesSampled": 100,
            "probRed": 0.5,
            "lambda": 5,
            "drawnRed": 30,
            "reportedRed": -1,
            "inferredRed": 3,
            "playerTrialScore": 27,
            "oppTrialScore": -27,
            "playerTotalScore": -384,
            "oppTotalScore": -891,
            "waitTime": 2850.7763751064667,
            "responseTime": 1678860025997,
            "catchQuestion": "How many <b class=\"r\">red<\/b> marbles did you actually draw (before any changes)? ",
            "catchKey": -1,
            "catchResponse": -1,
            "catchTime": 1678859900595,
            "trialTime": 0
        },
        {
            "exptPart": "trial",
            "trialNumber": 73,
            "roleCurrent": "receiver",
            "marblesSampled": 100,
            "probRed": 0.5,
            "lambda": 5,
            "drawnRed": 63,
            "reportedRed": 54,
            "inferredRed": 100,
            "playerTrialScore": -37,
            "oppTrialScore": 0,
            "playerTotalScore": -421,
            "oppTotalScore": -891,
            "waitTime": 5942.379602025166,
            "responseTime": 1678860036368,
            "catchQuestion": "How many <b class=\"r\">red<\/b> marbles did you actually draw (before any changes)? ",
            "catchKey": -1,
            "catchResponse": -1,
            "catchTime": 1678859900595,
            "trialTime": 0
        },
        {
            "exptPart": "trial",
            "trialNumber": 74,
            "roleCurrent": "sender",
            "marblesSampled": 100,
            "probRed": 0.5,
            "lambda": 5,
            "drawnRed": 38,
            "reportedRed": 0,
            "inferredRed": 7,
            "playerTrialScore": 31,
            "oppTrialScore": -31,
            "playerTotalScore": -390,
            "oppTotalScore": -922,
            "waitTime": 2339.2480576926882,
            "responseTime": 1678860082114,
            "catchQuestion": "How many <b class=\"r\">red<\/b> marbles did you actually draw (before any changes)? ",
            "catchKey": -1,
            "catchResponse": -1,
            "catchTime": 1678859900595,
            "trialTime": 0
        },
        {
            "exptPart": "trial",
            "trialNumber": 75,
            "roleCurrent": "receiver",
            "marblesSampled": 100,
            "probRed": 0.5,
            "lambda": 5,
            "drawnRed": 60,
            "reportedRed": 56,
            "inferredRed": 100,
            "playerTrialScore": -40,
            "oppTrialScore": 0,
            "playerTotalScore": -430,
            "oppTotalScore": -922,
            "waitTime": 6617.841341675015,
            "responseTime": 1678860092234,
            "catchQuestion": "How many <b class=\"r\">red<\/b> marbles did you actually draw (before any changes)? ",
            "catchKey": -1,
            "catchResponse": -1,
            "catchTime": 1678860092234,
            "trialTime": 0
        },
        {
            "exptPart": "trial",
            "trialNumber": 76,
            "roleCurrent": "sender",
            "marblesSampled": 100,
            "probRed": 0.5,
            "lambda": 5,
            "drawnRed": 16,
            "reportedRed": 0,
            "inferredRed": 5,
            "playerTrialScore": 11,
            "oppTrialScore": -11,
            "playerTotalScore": -419,
            "oppTotalScore": -933,
            "waitTime": 2150.7208416976428,
            "responseTime": 1678860121008,
            "catchQuestion": "How many <b class=\"r\">red<\/b> marbles did you actually draw (before any changes)? ",
            "catchKey": -1,
            "catchResponse": -1,
            "catchTime": 1678860092234,
            "trialTime": 0
        },
        {
            "exptPart": "trial",
            "trialNumber": 77,
            "roleCurrent": "receiver",
            "marblesSampled": 100,
            "probRed": 0.5,
            "lambda": 5,
            "drawnRed": 41,
            "reportedRed": 36,
            "inferredRed": 100,
            "playerTrialScore": -59,
            "oppTrialScore": 0,
            "playerTotalScore": -478,
            "oppTotalScore": -933,
            "waitTime": 6786.081150192214,
            "responseTime": 1678860132415,
            "catchQuestion": "How many <b class=\"r\">red<\/b> marbles did you actually draw (before any changes)? ",
            "catchKey": -1,
            "catchResponse": -1,
            "catchTime": 1678860092234,
            "trialTime": 0
        },
        {
            "exptPart": "trial",
            "trialNumber": 78,
            "roleCurrent": "sender",
            "marblesSampled": 100,
            "probRed": 0.5,
            "lambda": 5,
            "drawnRed": 24,
            "reportedRed": 0,
            "inferredRed": 5,
            "playerTrialScore": 19,
            "oppTrialScore": -19,
            "playerTotalScore": -459,
            "oppTotalScore": -952,
            "waitTime": 2435.47945105857,
            "responseTime": 1678860173172,
            "catchQuestion": "How many <b class=\"r\">red<\/b> marbles did you actually draw (before any changes)? ",
            "catchKey": -1,
            "catchResponse": -1,
            "catchTime": 1678860092234,
            "trialTime": 0
        },
        {
            "exptPart": "trial",
            "trialNumber": 79,
            "roleCurrent": "receiver",
            "marblesSampled": 100,
            "probRed": 0.5,
            "lambda": 5,
            "drawnRed": 48,
            "reportedRed": 41,
            "inferredRed": 100,
            "playerTrialScore": -52,
            "oppTrialScore": 0,
            "playerTotalScore": -511,
            "oppTotalScore": -952,
            "waitTime": 5701.29334142769,
            "responseTime": 1678860182872,
            "catchQuestion": "How many <b class=\"r\">red<\/b> marbles did you actually draw (before any changes)? ",
            "catchKey": -1,
            "catchResponse": -1,
            "catchTime": 1678860092234,
            "trialTime": 0
        },
        {
            "exptPart": "trial",
            "trialNumber": 80,
            "roleCurrent": "sender",
            "marblesSampled": 100,
            "probRed": 0.5,
            "lambda": 5,
            "drawnRed": 41,
            "reportedRed": 0,
            "inferredRed": 3,
            "playerTrialScore": 38,
            "oppTrialScore": -38,
            "playerTotalScore": -473,
            "oppTotalScore": -990,
            "waitTime": 2468.102970298391,
            "responseTime": 1678860216444,
            "catchQuestion": "How many <b class=\"r\">red<\/b> marbles did you actually draw (before any changes)? ",
            "catchKey": -1,
            "catchResponse": -1,
            "catchTime": 1678860216444,
            "trialTime": 0
        },
        {
            "exptPart": "trial",
            "trialNumber": 81,
            "roleCurrent": "receiver",
            "marblesSampled": 100,
            "probRed": 0.5,
            "lambda": 5,
            "drawnRed": 46,
            "reportedRed": 40,
            "inferredRed": 100,
            "playerTrialScore": -54,
            "oppTrialScore": 0,
            "playerTotalScore": -527,
            "oppTotalScore": -990,
            "waitTime": 5536.337971852558,
            "responseTime": 1678860240670,
            "catchQuestion": "How many <b class=\"r\">red<\/b> marbles did you actually draw (before any changes)? ",
            "catchKey": -1,
            "catchResponse": -1,
            "catchTime": 1678860216444,
            "trialTime": 0
        },
        {
            "exptPart": "trial",
            "trialNumber": 82,
            "roleCurrent": "sender",
            "marblesSampled": 100,
            "probRed": 0.5,
            "lambda": 5,
            "drawnRed": 92,
            "reportedRed": 5,
            "inferredRed": 8,
            "playerTrialScore": 84,
            "oppTrialScore": -84,
            "playerTotalScore": -443,
            "oppTotalScore": -1074,
            "waitTime": 2794.9324262580203,
            "responseTime": 1678860337672,
            "catchQuestion": "How many <b class=\"r\">red<\/b> marbles did you actually draw (before any changes)? ",
            "catchKey": -1,
            "catchResponse": -1,
            "catchTime": 1678860216444,
            "trialTime": 0
        },
        {
            "exptPart": "trial",
            "trialNumber": 83,
            "roleCurrent": "receiver",
            "marblesSampled": 100,
            "probRed": 0.5,
            "lambda": 5,
            "drawnRed": 59,
            "reportedRed": 56,
            "inferredRed": 100,
            "playerTrialScore": -41,
            "oppTrialScore": 0,
            "playerTotalScore": -484,
            "oppTotalScore": -1074,
            "waitTime": 5365.648609854054,
            "responseTime": 1678860370185,
            "catchQuestion": "How many <b class=\"r\">red<\/b> marbles did you actually draw (before any changes)? ",
            "catchKey": -1,
            "catchResponse": -1,
            "catchTime": 1678860216444,
            "trialTime": 0
        },
        {
            "exptPart": "trial",
            "trialNumber": 84,
            "roleCurrent": "sender",
            "marblesSampled": 100,
            "probRed": 0.5,
            "lambda": 5,
            "drawnRed": 48,
            "reportedRed": 0,
            "inferredRed": 9,
            "playerTrialScore": 39,
            "oppTrialScore": -39,
            "playerTotalScore": -445,
            "oppTotalScore": -1113,
            "waitTime": 3135.170323290141,
            "responseTime": 1678860425640,
            "catchQuestion": "How many <b class=\"r\">red<\/b> marbles did you actually draw (before any changes)? ",
            "catchKey": 48,
            "catchResponse": 50,
            "catchTime": 1678860425640,
            "trialTime": 0
        },
        {
            "exptPart": "trial",
            "trialNumber": 85,
            "roleCurrent": "receiver",
            "marblesSampled": 100,
            "probRed": 0.5,
            "lambda": 5,
            "drawnRed": 97,
            "reportedRed": 91,
            "inferredRed": 100,
            "playerTrialScore": -3,
            "oppTrialScore": 0,
            "playerTotalScore": -448,
            "oppTotalScore": -1113,
            "waitTime": 6013.4321856609895,
            "responseTime": 1678860462499,
            "catchQuestion": "How many <b class=\"r\">red<\/b> marbles did you actually draw (before any changes)? ",
            "catchKey": -1,
            "catchResponse": -1,
            "catchTime": 1678860462499,
            "trialTime": 0
        },
        {
            "exptPart": "trial",
            "trialNumber": 86,
            "roleCurrent": "sender",
            "marblesSampled": 100,
            "probRed": 0.5,
            "lambda": 5,
            "drawnRed": 37,
            "reportedRed": 0,
            "inferredRed": 5,
            "playerTrialScore": 32,
            "oppTrialScore": -32,
            "playerTotalScore": -416,
            "oppTotalScore": -1145,
            "waitTime": 2727.995234940626,
            "responseTime": 1678860520833,
            "catchQuestion": "How many <b class=\"r\">red<\/b> marbles did you actually draw (before any changes)? ",
            "catchKey": -1,
            "catchResponse": -1,
            "catchTime": 1678860462499,
            "trialTime": 0
        },
        {
            "exptPart": "trial",
            "trialNumber": 87,
            "roleCurrent": "receiver",
            "marblesSampled": 100,
            "probRed": 0.5,
            "lambda": 5,
            "drawnRed": 27,
            "reportedRed": 21,
            "inferredRed": 100,
            "playerTrialScore": -73,
            "oppTrialScore": 0,
            "playerTotalScore": -489,
            "oppTotalScore": -1145,
            "waitTime": 7003.480126281585,
            "responseTime": 1678860531965,
            "catchQuestion": "How many <b class=\"r\">red<\/b> marbles did you actually draw (before any changes)? ",
            "catchKey": -1,
            "catchResponse": -1,
            "catchTime": 1678860462499,
            "trialTime": 0
        },
        {
            "exptPart": "trial",
            "trialNumber": 88,
            "roleCurrent": "sender",
            "marblesSampled": 100,
            "probRed": 0.5,
            "lambda": 5,
            "drawnRed": 39,
            "reportedRed": 0,
            "inferredRed": 2,
            "playerTrialScore": 37,
            "oppTrialScore": -37,
            "playerTotalScore": -452,
            "oppTotalScore": -1182,
            "waitTime": 2831.6053818170376,
            "responseTime": 1678860568328,
            "catchQuestion": "How many <b class=\"r\">red<\/b> marbles did you actually draw (before any changes)? ",
            "catchKey": 39,
            "catchResponse": 39,
            "catchTime": 1678860568328,
            "trialTime": 0
        },
        {
            "exptPart": "trial",
            "trialNumber": 89,
            "roleCurrent": "receiver",
            "marblesSampled": 100,
            "probRed": 0.5,
            "lambda": 5,
            "drawnRed": 38,
            "reportedRed": 31,
            "inferredRed": 100,
            "playerTrialScore": -62,
            "oppTrialScore": 0,
            "playerTotalScore": -514,
            "oppTotalScore": -1182,
            "waitTime": 5343.078936977595,
            "responseTime": 1678860587095,
            "catchQuestion": "How many <b class=\"r\">red<\/b> marbles did your opponent report drawing? ",
            "catchKey": 31,
            "catchResponse": 19,
            "catchTime": 1678860587096,
            "trialTime": 0
        },
        {
            "exptPart": "trial",
            "trialNumber": 90,
            "roleCurrent": "sender",
            "marblesSampled": 100,
            "probRed": 0.5,
            "lambda": 5,
            "drawnRed": 44,
            "reportedRed": 0,
            "inferredRed": 3,
            "playerTrialScore": 41,
            "oppTrialScore": -41,
            "playerTotalScore": -473,
            "oppTotalScore": -1223,
            "waitTime": 2361.311180336209,
            "responseTime": 1678860632850,
            "catchQuestion": "How many <b class=\"r\">red<\/b> marbles did your opponent report drawing? ",
            "catchKey": -1,
            "catchResponse": -1,
            "catchTime": 1678860632850,
            "trialTime": 0
        },
        {
            "exptPart": "trial",
            "trialNumber": 91,
            "roleCurrent": "receiver",
            "marblesSampled": 100,
            "probRed": 0.5,
            "lambda": 5,
            "drawnRed": 9,
            "reportedRed": 4,
            "inferredRed": 100,
            "playerTrialScore": -91,
            "oppTrialScore": 0,
            "playerTotalScore": -564,
            "oppTotalScore": -1223,
            "waitTime": 5882.638370638053,
            "responseTime": 1678860655969,
            "catchQuestion": "How many <b class=\"r\">red<\/b> marbles did your opponent report drawing? ",
            "catchKey": -1,
            "catchResponse": -1,
            "catchTime": 1678860632850,
            "trialTime": 0
        },
        {
            "exptPart": "trial",
            "trialNumber": 92,
            "roleCurrent": "sender",
            "marblesSampled": 100,
            "probRed": 0.5,
            "lambda": 5,
            "drawnRed": 30,
            "reportedRed": 0,
            "inferredRed": 2,
            "playerTrialScore": 28,
            "oppTrialScore": -28,
            "playerTotalScore": -536,
            "oppTotalScore": -1251,
            "waitTime": 2751.7095449455064,
            "responseTime": 1678860692628,
            "catchQuestion": "How many <b class=\"r\">red<\/b> marbles did you actually draw (before any changes)? ",
            "catchKey": 30,
            "catchResponse": 30,
            "catchTime": 1678860692628,
            "trialTime": 0
        },
        {
            "exptPart": "trial",
            "trialNumber": 93,
            "roleCurrent": "receiver",
            "marblesSampled": 100,
            "probRed": 0.5,
            "lambda": 5,
            "drawnRed": 55,
            "reportedRed": 47,
            "inferredRed": 100,
            "playerTrialScore": -45,
            "oppTrialScore": 0,
            "playerTotalScore": -581,
            "oppTotalScore": -1251,
            "waitTime": 7219.430811134778,
            "responseTime": 1678860711165,
            "catchQuestion": "How many <b class=\"r\">red<\/b> marbles did you actually draw (before any changes)? ",
            "catchKey": -1,
            "catchResponse": -1,
            "catchTime": 1678860692628,
            "trialTime": 0
        },
        {
            "exptPart": "trial",
            "trialNumber": 94,
            "roleCurrent": "sender",
            "marblesSampled": 100,
            "probRed": 0.5,
            "lambda": 5,
            "drawnRed": 58,
            "reportedRed": 5,
            "inferredRed": 7,
            "playerTrialScore": 51,
            "oppTrialScore": -51,
            "playerTotalScore": -530,
            "oppTotalScore": -1302,
            "waitTime": 2436.924811641383,
            "responseTime": 1678860756802,
            "catchQuestion": "How many <b class=\"r\">red<\/b> marbles did you actually draw (before any changes)? ",
            "catchKey": -1,
            "catchResponse": -1,
            "catchTime": 1678860692628,
            "trialTime": 0
        },
        {
            "exptPart": "trial",
            "trialNumber": 95,
            "roleCurrent": "receiver",
            "marblesSampled": 100,
            "probRed": 0.5,
            "lambda": 5,
            "drawnRed": 62,
            "reportedRed": 57,
            "inferredRed": 100,
            "playerTrialScore": -38,
            "oppTrialScore": 0,
            "playerTotalScore": -568,
            "oppTotalScore": -1302,
            "waitTime": 6302.330555042009,
            "responseTime": 1678860771852,
            "catchQuestion": "How many <b class=\"r\">red<\/b> marbles did you actually draw (before any changes)? ",
            "catchKey": -1,
            "catchResponse": -1,
            "catchTime": 1678860771852,
            "trialTime": 0
        },
        {
            "exptPart": "trial",
            "trialNumber": 96,
            "roleCurrent": "sender",
            "marblesSampled": 100,
            "probRed": 0.5,
            "lambda": 5,
            "drawnRed": 29,
            "reportedRed": 0,
            "inferredRed": 2,
            "playerTrialScore": 27,
            "oppTrialScore": -27,
            "playerTotalScore": -541,
            "oppTotalScore": -1329,
            "waitTime": 2108.8027169149495,
            "responseTime": 1678860803928,
            "catchQuestion": "How many <b class=\"r\">red<\/b> marbles did you actually draw (before any changes)? ",
            "catchKey": -1,
            "catchResponse": -1,
            "catchTime": 1678860771852,
            "trialTime": 0
        },
        {
            "exptPart": "trial",
            "trialNumber": 97,
            "roleCurrent": "receiver",
            "marblesSampled": 100,
            "probRed": 0.5,
            "lambda": 5,
            "drawnRed": 90,
            "reportedRed": 84,
            "inferredRed": 100,
            "playerTrialScore": -10,
            "oppTrialScore": 0,
            "playerTotalScore": -551,
            "oppTotalScore": -1329,
            "waitTime": 6533.076699387968,
            "responseTime": 1678860818484,
            "catchQuestion": "How many <b class=\"r\">red<\/b> marbles did you actually draw (before any changes)? ",
            "catchKey": -1,
            "catchResponse": -1,
            "catchTime": 1678860771852,
            "trialTime": 0
        },
        {
            "exptPart": "trial",
            "trialNumber": 98,
            "roleCurrent": "sender",
            "marblesSampled": 100,
            "probRed": 0.5,
            "lambda": 5,
            "drawnRed": 28,
            "reportedRed": 0,
            "inferredRed": 7,
            "playerTrialScore": 21,
            "oppTrialScore": -21,
            "playerTotalScore": -530,
            "oppTotalScore": -1350,
            "waitTime": 2158.658299196327,
            "responseTime": 1678860856502,
            "catchQuestion": "How many <b class=\"r\">red<\/b> marbles did you actually draw (before any changes)? ",
            "catchKey": -1,
            "catchResponse": -1,
            "catchTime": 1678860771852,
            "trialTime": 0
        },
        {
            "exptPart": "trial",
            "trialNumber": 99,
            "roleCurrent": "receiver",
            "marblesSampled": 100,
            "probRed": 0.5,
            "lambda": 5,
            "drawnRed": 11,
            "reportedRed": 5,
            "inferredRed": 100,
            "playerTrialScore": -89,
            "oppTrialScore": 0,
            "playerTotalScore": -619,
            "oppTotalScore": -1350,
            "waitTime": 6382.5561402864205,
            "responseTime": 1678860867539,
            "catchQuestion": "How many <b class=\"r\">red<\/b> marbles did you actually draw (before any changes)? ",
            "catchKey": -1,
            "catchResponse": -1,
            "catchTime": 1678860771852,
            "trialTime": 0
        },
        {
            "exptPart": "trial",
            "trialNumber": 100,
            "roleCurrent": "sender",
            "marblesSampled": 100,
            "probRed": 0.5,
            "lambda": 5,
            "drawnRed": 63,
            "reportedRed": -1,
            "inferredRed": 2,
            "playerTrialScore": 61,
            "oppTrialScore": -61,
            "playerTotalScore": -558,
            "oppTotalScore": -1411,
            "waitTime": 2936.505063927024,
            "responseTime": 1678860918645,
            "catchQuestion": "How many <b class=\"r\">red<\/b> marbles did you actually draw (before any changes)? ",
            "catchKey": -1,
            "catchResponse": -1,
            "catchTime": 1678860918645,
            "trialTime": 0
        }
    ]
}