{
    "client": {
        "type": "sona",
        "experiment_id": 2228,
        "credit_token": "b315147ae43241ea9c65086cb510cfb7",
        "survey_code": "31798",
        "sid": "sona-31798",
        "window": {
            "width": 1920,
            "height": 937
        },
        "screen": {
            "width": 1920,
            "height": 1080
        },
        "userAgent": "Mozilla\/5.0 (Windows NT 10.0; Win64; x64) AppleWebKit\/537.36 (KHTML, like Gecko) Chrome\/111.0.0.0 Safari\/537.36",
        "score": 0,
        "bonus": 0
    },
    "expt": {
        "saveURL": "submit.simple.php",
        "trials": 100,
        "practiceTrials": 2,
        "marblesSampled": 100,
        "probRed": 0.5,
        "lambdaAI": 5,
        "roleFirst": "sender",
        "roles": [
            "sender",
            "receiver"
        ],
        "cost": "linear",
        "goal": "under",
        "goalInstructTxt": "above",
        "catchTrials": [
            18,
            77,
            58,
            67,
            81,
            43,
            96,
            2,
            4,
            31
        ],
        "scoreTotal": {
            "player": -280,
            "opp": -29
        },
        "sona": {
            "experiment_id": 2228,
            "credit_token": "b315147ae43241ea9c65086cb510cfb7"
        },
        "pilot": false,
        "debug": false
    },
    "trials": [
        {
            "exptPart": "practice",
            "trialNumber": 1,
            "roleCurrent": "sender",
            "marblesSampled": 100,
            "probRed": 0.5,
            "lambda": 5,
            "drawnRed": 56,
            "reportedRed": 55,
            "inferredRed": 60,
            "playerTrialScore": 0,
            "oppTrialScore": -4,
            "playerTotalScore": 0,
            "oppTotalScore": -4,
            "waitTime": 3059.6362870022754,
            "responseTime": 1678829768899,
            "catchQuestion": "How many <b class=\"r\">red<\/b> marbles did you actually draw (before any changes)? ",
            "catchKey": 56,
            "catchResponse": 56,
            "catchTime": 1678829768900,
            "trialTime": 0
        },
        {
            "exptPart": "practice",
            "trialNumber": 2,
            "roleCurrent": "receiver",
            "marblesSampled": 100,
            "probRed": 0.5,
            "lambda": 5,
            "drawnRed": 74,
            "reportedRed": 73,
            "inferredRed": 80,
            "playerTrialScore": -6,
            "oppTrialScore": 0,
            "playerTotalScore": -6,
            "oppTotalScore": -4,
            "waitTime": 5527.1460869193925,
            "responseTime": 1678829822741,
            "catchQuestion": "How many <b class=\"r\">red<\/b> marbles did your opponent report drawing? ",
            "catchKey": 73,
            "catchResponse": 73,
            "catchTime": 1678829822741,
            "trialTime": 0
        },
        {
            "exptPart": "trial",
            "trialNumber": 1,
            "roleCurrent": "sender",
            "marblesSampled": 100,
            "probRed": 0.5,
            "lambda": 5,
            "drawnRed": 37,
            "reportedRed": 37,
            "inferredRed": 44,
            "playerTrialScore": 0,
            "oppTrialScore": -7,
            "playerTotalScore": 0,
            "oppTotalScore": -7,
            "waitTime": 2348.369917899142,
            "responseTime": 1678829851460,
            "catchQuestion": "How many <b class=\"r\">red<\/b> marbles did your opponent report drawing? ",
            "catchKey": -1,
            "catchResponse": -1,
            "catchTime": 1678829822741,
            "trialTime": 0
        },
        {
            "exptPart": "trial",
            "trialNumber": 2,
            "roleCurrent": "receiver",
            "marblesSampled": 100,
            "probRed": 0.5,
            "lambda": 5,
            "drawnRed": 60,
            "reportedRed": 56,
            "inferredRed": 57,
            "playerTrialScore": -3,
            "oppTrialScore": 3,
            "playerTotalScore": -3,
            "oppTotalScore": -4,
            "waitTime": 7426.377403307902,
            "responseTime": 1678829865477,
            "catchQuestion": "How many <b class=\"r\">red<\/b> marbles did your opponent report drawing? ",
            "catchKey": -1,
            "catchResponse": -1,
            "catchTime": 1678829822741,
            "trialTime": 0
        },
        {
            "exptPart": "trial",
            "trialNumber": 3,
            "roleCurrent": "sender",
            "marblesSampled": 100,
            "probRed": 0.5,
            "lambda": 5,
            "drawnRed": 91,
            "reportedRed": 92,
            "inferredRed": 96,
            "playerTrialScore": 0,
            "oppTrialScore": -5,
            "playerTotalScore": -3,
            "oppTotalScore": -9,
            "waitTime": 2538.6288009596146,
            "responseTime": 1678829891577,
            "catchQuestion": "How many <b class=\"r\">red<\/b> marbles did you actually draw (before any changes)? ",
            "catchKey": 91,
            "catchResponse": 91,
            "catchTime": 1678829891577,
            "trialTime": 0
        },
        {
            "exptPart": "trial",
            "trialNumber": 4,
            "roleCurrent": "receiver",
            "marblesSampled": 100,
            "probRed": 0.5,
            "lambda": 5,
            "drawnRed": 83,
            "reportedRed": 79,
            "inferredRed": 80,
            "playerTrialScore": -3,
            "oppTrialScore": 3,
            "playerTotalScore": -6,
            "oppTotalScore": -6,
            "waitTime": 5913.898870069286,
            "responseTime": 1678829912623,
            "catchQuestion": "How many <b class=\"r\">red<\/b> marbles did you actually draw (before any changes)? ",
            "catchKey": -1,
            "catchResponse": -1,
            "catchTime": 1678829891577,
            "trialTime": 0
        },
        {
            "exptPart": "trial",
            "trialNumber": 5,
            "roleCurrent": "sender",
            "marblesSampled": 100,
            "probRed": 0.5,
            "lambda": 5,
            "drawnRed": 35,
            "reportedRed": 34,
            "inferredRed": 45,
            "playerTrialScore": 0,
            "oppTrialScore": -10,
            "playerTotalScore": -6,
            "oppTotalScore": -16,
            "waitTime": 2664.555320874203,
            "responseTime": 1678829924029,
            "catchQuestion": "How many <b class=\"r\">red<\/b> marbles did you actually draw (before any changes)? ",
            "catchKey": 35,
            "catchResponse": 35,
            "catchTime": 1678829924029,
            "trialTime": 0
        },
        {
            "exptPart": "trial",
            "trialNumber": 6,
            "roleCurrent": "receiver",
            "marblesSampled": 100,
            "probRed": 0.5,
            "lambda": 5,
            "drawnRed": 25,
            "reportedRed": 23,
            "inferredRed": 24,
            "playerTrialScore": -1,
            "oppTrialScore": 1,
            "playerTotalScore": -7,
            "oppTotalScore": -15,
            "waitTime": 5761.2564915545445,
            "responseTime": 1678829940393,
            "catchQuestion": "How many <b class=\"r\">red<\/b> marbles did you actually draw (before any changes)? ",
            "catchKey": -1,
            "catchResponse": -1,
            "catchTime": 1678829924029,
            "trialTime": 0
        },
        {
            "exptPart": "trial",
            "trialNumber": 7,
            "roleCurrent": "sender",
            "marblesSampled": 100,
            "probRed": 0.5,
            "lambda": 5,
            "drawnRed": 68,
            "reportedRed": 69,
            "inferredRed": 72,
            "playerTrialScore": 0,
            "oppTrialScore": -4,
            "playerTotalScore": -7,
            "oppTotalScore": -19,
            "waitTime": 3090.0317425114845,
            "responseTime": 1678829987004,
            "catchQuestion": "How many <b class=\"r\">red<\/b> marbles did you actually draw (before any changes)? ",
            "catchKey": -1,
            "catchResponse": -1,
            "catchTime": 1678829924029,
            "trialTime": 0
        },
        {
            "exptPart": "trial",
            "trialNumber": 8,
            "roleCurrent": "receiver",
            "marblesSampled": 100,
            "probRed": 0.5,
            "lambda": 5,
            "drawnRed": 49,
            "reportedRed": 44,
            "inferredRed": 45,
            "playerTrialScore": -4,
            "oppTrialScore": 4,
            "playerTotalScore": -11,
            "oppTotalScore": -15,
            "waitTime": 5373.867732452791,
            "responseTime": 1678830003567,
            "catchQuestion": "How many <b class=\"r\">red<\/b> marbles did you actually draw (before any changes)? ",
            "catchKey": -1,
            "catchResponse": -1,
            "catchTime": 1678829924029,
            "trialTime": 0
        },
        {
            "exptPart": "trial",
            "trialNumber": 9,
            "roleCurrent": "sender",
            "marblesSampled": 100,
            "probRed": 0.5,
            "lambda": 5,
            "drawnRed": 66,
            "reportedRed": 67,
            "inferredRed": 75,
            "playerTrialScore": 0,
            "oppTrialScore": -9,
            "playerTotalScore": -11,
            "oppTotalScore": -24,
            "waitTime": 2899.310542963418,
            "responseTime": 1678830026385,
            "catchQuestion": "How many <b class=\"r\">red<\/b> marbles did you actually draw (before any changes)? ",
            "catchKey": -1,
            "catchResponse": -1,
            "catchTime": 1678829924029,
            "trialTime": 0
        },
        {
            "exptPart": "trial",
            "trialNumber": 10,
            "roleCurrent": "receiver",
            "marblesSampled": 100,
            "probRed": 0.5,
            "lambda": 5,
            "drawnRed": 50,
            "reportedRed": 42,
            "inferredRed": 44,
            "playerTrialScore": -6,
            "oppTrialScore": 6,
            "playerTotalScore": -17,
            "oppTotalScore": -18,
            "waitTime": 5312.724629180979,
            "responseTime": 1678830042986,
            "catchQuestion": "How many <b class=\"r\">red<\/b> marbles did you actually draw (before any changes)? ",
            "catchKey": -1,
            "catchResponse": -1,
            "catchTime": 1678830042986,
            "trialTime": 0
        },
        {
            "exptPart": "trial",
            "trialNumber": 11,
            "roleCurrent": "sender",
            "marblesSampled": 100,
            "probRed": 0.5,
            "lambda": 5,
            "drawnRed": 49,
            "reportedRed": 48,
            "inferredRed": 53,
            "playerTrialScore": 0,
            "oppTrialScore": -4,
            "playerTotalScore": -17,
            "oppTotalScore": -22,
            "waitTime": 3241.1699787232865,
            "responseTime": 1678830070795,
            "catchQuestion": "How many <b class=\"r\">red<\/b> marbles did you actually draw (before any changes)? ",
            "catchKey": -1,
            "catchResponse": -1,
            "catchTime": 1678830042986,
            "trialTime": 0
        },
        {
            "exptPart": "trial",
            "trialNumber": 12,
            "roleCurrent": "receiver",
            "marblesSampled": 100,
            "probRed": 0.5,
            "lambda": 5,
            "drawnRed": 53,
            "reportedRed": 51,
            "inferredRed": 52,
            "playerTrialScore": -1,
            "oppTrialScore": 1,
            "playerTotalScore": -18,
            "oppTotalScore": -21,
            "waitTime": 6528.701917953228,
            "responseTime": 1678830084274,
            "catchQuestion": "How many <b class=\"r\">red<\/b> marbles did you actually draw (before any changes)? ",
            "catchKey": -1,
            "catchResponse": -1,
            "catchTime": 1678830042986,
            "trialTime": 0
        },
        {
            "exptPart": "trial",
            "trialNumber": 13,
            "roleCurrent": "sender",
            "marblesSampled": 100,
            "probRed": 0.5,
            "lambda": 5,
            "drawnRed": 25,
            "reportedRed": 24,
            "inferredRed": 31,
            "playerTrialScore": 0,
            "oppTrialScore": -6,
            "playerTotalScore": -18,
            "oppTotalScore": -27,
            "waitTime": 2098.0731753844993,
            "responseTime": 1678830095521,
            "catchQuestion": "How many <b class=\"r\">red<\/b> marbles did you actually draw (before any changes)? ",
            "catchKey": -1,
            "catchResponse": -1,
            "catchTime": 1678830042986,
            "trialTime": 0
        },
        {
            "exptPart": "trial",
            "trialNumber": 14,
            "roleCurrent": "receiver",
            "marblesSampled": 100,
            "probRed": 0.5,
            "lambda": 5,
            "drawnRed": 74,
            "reportedRed": 73,
            "inferredRed": 74,
            "playerTrialScore": 0,
            "oppTrialScore": 0,
            "playerTotalScore": -18,
            "oppTotalScore": -27,
            "waitTime": 5900.874234708732,
            "responseTime": 1678830112396,
            "catchQuestion": "How many <b class=\"r\">red<\/b> marbles did you actually draw (before any changes)? ",
            "catchKey": -1,
            "catchResponse": -1,
            "catchTime": 1678830042986,
            "trialTime": 0
        },
        {
            "exptPart": "trial",
            "trialNumber": 15,
            "roleCurrent": "sender",
            "marblesSampled": 100,
            "probRed": 0.5,
            "lambda": 5,
            "drawnRed": 52,
            "reportedRed": 53,
            "inferredRed": 59,
            "playerTrialScore": 0,
            "oppTrialScore": -7,
            "playerTotalScore": -18,
            "oppTotalScore": -34,
            "waitTime": 3130.485506856186,
            "responseTime": 1678830126911,
            "catchQuestion": "How many <b class=\"r\">red<\/b> marbles did you actually draw (before any changes)? ",
            "catchKey": -1,
            "catchResponse": -1,
            "catchTime": 1678830126911,
            "trialTime": 0
        },
        {
            "exptPart": "trial",
            "trialNumber": 16,
            "roleCurrent": "receiver",
            "marblesSampled": 100,
            "probRed": 0.5,
            "lambda": 5,
            "drawnRed": 50,
            "reportedRed": 45,
            "inferredRed": 46,
            "playerTrialScore": -4,
            "oppTrialScore": 4,
            "playerTotalScore": -22,
            "oppTotalScore": -30,
            "waitTime": 5721.55286667761,
            "responseTime": 1678830142025,
            "catchQuestion": "How many <b class=\"r\">red<\/b> marbles did you actually draw (before any changes)? ",
            "catchKey": -1,
            "catchResponse": -1,
            "catchTime": 1678830126911,
            "trialTime": 0
        },
        {
            "exptPart": "trial",
            "trialNumber": 17,
            "roleCurrent": "sender",
            "marblesSampled": 100,
            "probRed": 0.5,
            "lambda": 5,
            "drawnRed": 38,
            "reportedRed": 39,
            "inferredRed": 47,
            "playerTrialScore": 0,
            "oppTrialScore": -9,
            "playerTotalScore": -22,
            "oppTotalScore": -39,
            "waitTime": 2452.794649344316,
            "responseTime": 1678830157701,
            "catchQuestion": "How many <b class=\"r\">red<\/b> marbles did you actually draw (before any changes)? ",
            "catchKey": -1,
            "catchResponse": -1,
            "catchTime": 1678830126911,
            "trialTime": 0
        },
        {
            "exptPart": "trial",
            "trialNumber": 18,
            "roleCurrent": "receiver",
            "marblesSampled": 100,
            "probRed": 0.5,
            "lambda": 5,
            "drawnRed": 11,
            "reportedRed": 4,
            "inferredRed": 4,
            "playerTrialScore": -7,
            "oppTrialScore": 7,
            "playerTotalScore": -29,
            "oppTotalScore": -32,
            "waitTime": 6989.583224753547,
            "responseTime": 1678830178755,
            "catchQuestion": "How many <b class=\"r\">red<\/b> marbles did you actually draw (before any changes)? ",
            "catchKey": -1,
            "catchResponse": -1,
            "catchTime": 1678830126911,
            "trialTime": 0
        },
        {
            "exptPart": "trial",
            "trialNumber": 19,
            "roleCurrent": "sender",
            "marblesSampled": 100,
            "probRed": 0.5,
            "lambda": 5,
            "drawnRed": 72,
            "reportedRed": 73,
            "inferredRed": 77,
            "playerTrialScore": 0,
            "oppTrialScore": -5,
            "playerTotalScore": -29,
            "oppTotalScore": -37,
            "waitTime": 3152.642622029267,
            "responseTime": 1678830194423,
            "catchQuestion": "How many <b class=\"r\">red<\/b> marbles did you actually draw (before any changes)? ",
            "catchKey": 72,
            "catchResponse": 72,
            "catchTime": 1678830194423,
            "trialTime": 0
        },
        {
            "exptPart": "trial",
            "trialNumber": 20,
            "roleCurrent": "receiver",
            "marblesSampled": 100,
            "probRed": 0.5,
            "lambda": 5,
            "drawnRed": 66,
            "reportedRed": 59,
            "inferredRed": 60,
            "playerTrialScore": -6,
            "oppTrialScore": 6,
            "playerTotalScore": -35,
            "oppTotalScore": -31,
            "waitTime": 5297.865781470933,
            "responseTime": 1678830214292,
            "catchQuestion": "How many <b class=\"r\">red<\/b> marbles did you actually draw (before any changes)? ",
            "catchKey": -1,
            "catchResponse": -1,
            "catchTime": 1678830214293,
            "trialTime": 0
        },
        {
            "exptPart": "trial",
            "trialNumber": 21,
            "roleCurrent": "sender",
            "marblesSampled": 100,
            "probRed": 0.5,
            "lambda": 5,
            "drawnRed": 38,
            "reportedRed": 38,
            "inferredRed": 43,
            "playerTrialScore": 0,
            "oppTrialScore": -5,
            "playerTotalScore": -35,
            "oppTotalScore": -36,
            "waitTime": 2214.3216310048792,
            "responseTime": 1678830228394,
            "catchQuestion": "How many <b class=\"r\">red<\/b> marbles did you actually draw (before any changes)? ",
            "catchKey": -1,
            "catchResponse": -1,
            "catchTime": 1678830214293,
            "trialTime": 0
        },
        {
            "exptPart": "trial",
            "trialNumber": 22,
            "roleCurrent": "receiver",
            "marblesSampled": 100,
            "probRed": 0.5,
            "lambda": 5,
            "drawnRed": 28,
            "reportedRed": 23,
            "inferredRed": 23,
            "playerTrialScore": -5,
            "oppTrialScore": 5,
            "playerTotalScore": -40,
            "oppTotalScore": -31,
            "waitTime": 5843.766892150626,
            "responseTime": 1678830238646,
            "catchQuestion": "How many <b class=\"r\">red<\/b> marbles did you actually draw (before any changes)? ",
            "catchKey": -1,
            "catchResponse": -1,
            "catchTime": 1678830214293,
            "trialTime": 0
        },
        {
            "exptPart": "trial",
            "trialNumber": 23,
            "roleCurrent": "sender",
            "marblesSampled": 100,
            "probRed": 0.5,
            "lambda": 5,
            "drawnRed": 21,
            "reportedRed": 20,
            "inferredRed": 28,
            "playerTrialScore": 0,
            "oppTrialScore": -7,
            "playerTotalScore": -40,
            "oppTotalScore": -38,
            "waitTime": 2915.878933265505,
            "responseTime": 1678830253891,
            "catchQuestion": "How many <b class=\"r\">red<\/b> marbles did you actually draw (before any changes)? ",
            "catchKey": -1,
            "catchResponse": -1,
            "catchTime": 1678830214293,
            "trialTime": 0
        },
        {
            "exptPart": "trial",
            "trialNumber": 24,
            "roleCurrent": "receiver",
            "marblesSampled": 100,
            "probRed": 0.5,
            "lambda": 5,
            "drawnRed": 31,
            "reportedRed": 28,
            "inferredRed": 28,
            "playerTrialScore": -3,
            "oppTrialScore": 3,
            "playerTotalScore": -43,
            "oppTotalScore": -35,
            "waitTime": 7378.428671541826,
            "responseTime": 1678830265768,
            "catchQuestion": "How many <b class=\"r\">red<\/b> marbles did you actually draw (before any changes)? ",
            "catchKey": -1,
            "catchResponse": -1,
            "catchTime": 1678830214293,
            "trialTime": 0
        },
        {
            "exptPart": "trial",
            "trialNumber": 25,
            "roleCurrent": "sender",
            "marblesSampled": 100,
            "probRed": 0.5,
            "lambda": 5,
            "drawnRed": 19,
            "reportedRed": 20,
            "inferredRed": 27,
            "playerTrialScore": 0,
            "oppTrialScore": -8,
            "playerTotalScore": -43,
            "oppTotalScore": -43,
            "waitTime": 3229.298330441546,
            "responseTime": 1678830278948,
            "catchQuestion": "How many <b class=\"r\">red<\/b> marbles did you actually draw (before any changes)? ",
            "catchKey": -1,
            "catchResponse": -1,
            "catchTime": 1678830278948,
            "trialTime": 0
        },
        {
            "exptPart": "trial",
            "trialNumber": 26,
            "roleCurrent": "receiver",
            "marblesSampled": 100,
            "probRed": 0.5,
            "lambda": 5,
            "drawnRed": 48,
            "reportedRed": 43,
            "inferredRed": 43,
            "playerTrialScore": -5,
            "oppTrialScore": 5,
            "playerTotalScore": -48,
            "oppTotalScore": -38,
            "waitTime": 7088.286145993045,
            "responseTime": 1678830290594,
            "catchQuestion": "How many <b class=\"r\">red<\/b> marbles did you actually draw (before any changes)? ",
            "catchKey": -1,
            "catchResponse": -1,
            "catchTime": 1678830278948,
            "trialTime": 0
        },
        {
            "exptPart": "trial",
            "trialNumber": 27,
            "roleCurrent": "sender",
            "marblesSampled": 100,
            "probRed": 0.5,
            "lambda": 5,
            "drawnRed": 30,
            "reportedRed": 31,
            "inferredRed": 37,
            "playerTrialScore": 0,
            "oppTrialScore": -7,
            "playerTotalScore": -48,
            "oppTotalScore": -45,
            "waitTime": 2369.546974851915,
            "responseTime": 1678830306739,
            "catchQuestion": "How many <b class=\"r\">red<\/b> marbles did you actually draw (before any changes)? ",
            "catchKey": -1,
            "catchResponse": -1,
            "catchTime": 1678830278948,
            "trialTime": 0
        },
        {
            "exptPart": "trial",
            "trialNumber": 28,
            "roleCurrent": "receiver",
            "marblesSampled": 100,
            "probRed": 0.5,
            "lambda": 5,
            "drawnRed": 18,
            "reportedRed": 14,
            "inferredRed": 14,
            "playerTrialScore": -4,
            "oppTrialScore": 4,
            "playerTotalScore": -52,
            "oppTotalScore": -41,
            "waitTime": 7399.057764167742,
            "responseTime": 1678830320920,
            "catchQuestion": "How many <b class=\"r\">red<\/b> marbles did you actually draw (before any changes)? ",
            "catchKey": -1,
            "catchResponse": -1,
            "catchTime": 1678830278948,
            "trialTime": 0
        },
        {
            "exptPart": "trial",
            "trialNumber": 29,
            "roleCurrent": "sender",
            "marblesSampled": 100,
            "probRed": 0.5,
            "lambda": 5,
            "drawnRed": 73,
            "reportedRed": 74,
            "inferredRed": 81,
            "playerTrialScore": 0,
            "oppTrialScore": -8,
            "playerTotalScore": -52,
            "oppTotalScore": -49,
            "waitTime": 2508.2398431816305,
            "responseTime": 1678830332074,
            "catchQuestion": "How many <b class=\"r\">red<\/b> marbles did you actually draw (before any changes)? ",
            "catchKey": -1,
            "catchResponse": -1,
            "catchTime": 1678830278948,
            "trialTime": 0
        },
        {
            "exptPart": "trial",
            "trialNumber": 30,
            "roleCurrent": "receiver",
            "marblesSampled": 100,
            "probRed": 0.5,
            "lambda": 5,
            "drawnRed": 68,
            "reportedRed": 62,
            "inferredRed": 62,
            "playerTrialScore": -6,
            "oppTrialScore": 6,
            "playerTotalScore": -58,
            "oppTotalScore": -43,
            "waitTime": 6147.566372568181,
            "responseTime": 1678830349965,
            "catchQuestion": "How many <b class=\"r\">red<\/b> marbles did you actually draw (before any changes)? ",
            "catchKey": -1,
            "catchResponse": -1,
            "catchTime": 1678830349965,
            "trialTime": 0
        },
        {
            "exptPart": "trial",
            "trialNumber": 31,
            "roleCurrent": "sender",
            "marblesSampled": 100,
            "probRed": 0.5,
            "lambda": 5,
            "drawnRed": 38,
            "reportedRed": 42,
            "inferredRed": 46,
            "playerTrialScore": 0,
            "oppTrialScore": -8,
            "playerTotalScore": -58,
            "oppTotalScore": -51,
            "waitTime": 2697.4863608452915,
            "responseTime": 1678830366235,
            "catchQuestion": "How many <b class=\"r\">red<\/b> marbles did you actually draw (before any changes)? ",
            "catchKey": -1,
            "catchResponse": -1,
            "catchTime": 1678830349965,
            "trialTime": 0
        },
        {
            "exptPart": "trial",
            "trialNumber": 32,
            "roleCurrent": "receiver",
            "marblesSampled": 100,
            "probRed": 0.5,
            "lambda": 5,
            "drawnRed": 47,
            "reportedRed": 42,
            "inferredRed": 42,
            "playerTrialScore": -5,
            "oppTrialScore": 5,
            "playerTotalScore": -63,
            "oppTotalScore": -46,
            "waitTime": 7497.619942213406,
            "responseTime": 1678830376035,
            "catchQuestion": "How many <b class=\"r\">red<\/b> marbles did your opponent report drawing? ",
            "catchKey": 42,
            "catchResponse": 42,
            "catchTime": 1678830376036,
            "trialTime": 0
        },
        {
            "exptPart": "trial",
            "trialNumber": 33,
            "roleCurrent": "sender",
            "marblesSampled": 100,
            "probRed": 0.5,
            "lambda": 5,
            "drawnRed": 36,
            "reportedRed": 37,
            "inferredRed": 44,
            "playerTrialScore": 0,
            "oppTrialScore": -8,
            "playerTotalScore": -63,
            "oppTotalScore": -54,
            "waitTime": 2452.742184046151,
            "responseTime": 1678830389756,
            "catchQuestion": "How many <b class=\"r\">red<\/b> marbles did your opponent report drawing? ",
            "catchKey": -1,
            "catchResponse": -1,
            "catchTime": 1678830376036,
            "trialTime": 0
        },
        {
            "exptPart": "trial",
            "trialNumber": 34,
            "roleCurrent": "receiver",
            "marblesSampled": 100,
            "probRed": 0.5,
            "lambda": 5,
            "drawnRed": 26,
            "reportedRed": 14,
            "inferredRed": 14,
            "playerTrialScore": -12,
            "oppTrialScore": 12,
            "playerTotalScore": -75,
            "oppTotalScore": -42,
            "waitTime": 5977.4488445012375,
            "responseTime": 1678830401704,
            "catchQuestion": "How many <b class=\"r\">red<\/b> marbles did your opponent report drawing? ",
            "catchKey": -1,
            "catchResponse": -1,
            "catchTime": 1678830376036,
            "trialTime": 0
        },
        {
            "exptPart": "trial",
            "trialNumber": 35,
            "roleCurrent": "sender",
            "marblesSampled": 100,
            "probRed": 0.5,
            "lambda": 5,
            "drawnRed": 33,
            "reportedRed": 34,
            "inferredRed": 42,
            "playerTrialScore": 0,
            "oppTrialScore": -9,
            "playerTotalScore": -75,
            "oppTotalScore": -51,
            "waitTime": 2452.3735008816207,
            "responseTime": 1678830409389,
            "catchQuestion": "How many <b class=\"r\">red<\/b> marbles did your opponent report drawing? ",
            "catchKey": -1,
            "catchResponse": -1,
            "catchTime": 1678830409389,
            "trialTime": 0
        },
        {
            "exptPart": "trial",
            "trialNumber": 36,
            "roleCurrent": "receiver",
            "marblesSampled": 100,
            "probRed": 0.5,
            "lambda": 5,
            "drawnRed": 38,
            "reportedRed": 30,
            "inferredRed": 30,
            "playerTrialScore": -8,
            "oppTrialScore": 8,
            "playerTotalScore": -83,
            "oppTotalScore": -43,
            "waitTime": 6508.351611963026,
            "responseTime": 1678830440492,
            "catchQuestion": "How many <b class=\"r\">red<\/b> marbles did your opponent report drawing? ",
            "catchKey": -1,
            "catchResponse": -1,
            "catchTime": 1678830409389,
            "trialTime": 0
        },
        {
            "exptPart": "trial",
            "trialNumber": 37,
            "roleCurrent": "sender",
            "marblesSampled": 100,
            "probRed": 0.5,
            "lambda": 5,
            "drawnRed": 18,
            "reportedRed": 19,
            "inferredRed": 25,
            "playerTrialScore": 0,
            "oppTrialScore": -7,
            "playerTotalScore": -83,
            "oppTotalScore": -50,
            "waitTime": 2289.559364277377,
            "responseTime": 1678830451715,
            "catchQuestion": "How many <b class=\"r\">red<\/b> marbles did your opponent report drawing? ",
            "catchKey": -1,
            "catchResponse": -1,
            "catchTime": 1678830409389,
            "trialTime": 0
        },
        {
            "exptPart": "trial",
            "trialNumber": 38,
            "roleCurrent": "receiver",
            "marblesSampled": 100,
            "probRed": 0.5,
            "lambda": 5,
            "drawnRed": 84,
            "reportedRed": 78,
            "inferredRed": 78,
            "playerTrialScore": -6,
            "oppTrialScore": 6,
            "playerTotalScore": -89,
            "oppTotalScore": -44,
            "waitTime": 6564.406029707809,
            "responseTime": 1678830463162,
            "catchQuestion": "How many <b class=\"r\">red<\/b> marbles did your opponent report drawing? ",
            "catchKey": -1,
            "catchResponse": -1,
            "catchTime": 1678830409389,
            "trialTime": 0
        },
        {
            "exptPart": "trial",
            "trialNumber": 39,
            "roleCurrent": "sender",
            "marblesSampled": 100,
            "probRed": 0.5,
            "lambda": 5,
            "drawnRed": 23,
            "reportedRed": 24,
            "inferredRed": 25,
            "playerTrialScore": 0,
            "oppTrialScore": -2,
            "playerTotalScore": -89,
            "oppTotalScore": -46,
            "waitTime": 3090.4555977692035,
            "responseTime": 1678830472305,
            "catchQuestion": "How many <b class=\"r\">red<\/b> marbles did your opponent report drawing? ",
            "catchKey": -1,
            "catchResponse": -1,
            "catchTime": 1678830409389,
            "trialTime": 0
        },
        {
            "exptPart": "trial",
            "trialNumber": 40,
            "roleCurrent": "receiver",
            "marblesSampled": 100,
            "probRed": 0.5,
            "lambda": 5,
            "drawnRed": 51,
            "reportedRed": 49,
            "inferredRed": 48,
            "playerTrialScore": -3,
            "oppTrialScore": 3,
            "playerTotalScore": -92,
            "oppTotalScore": -43,
            "waitTime": 6046.963931528053,
            "responseTime": 1678830493170,
            "catchQuestion": "How many <b class=\"r\">red<\/b> marbles did your opponent report drawing? ",
            "catchKey": -1,
            "catchResponse": -1,
            "catchTime": 1678830493170,
            "trialTime": 0
        },
        {
            "exptPart": "trial",
            "trialNumber": 41,
            "roleCurrent": "sender",
            "marblesSampled": 100,
            "probRed": 0.5,
            "lambda": 5,
            "drawnRed": 17,
            "reportedRed": 18,
            "inferredRed": 22,
            "playerTrialScore": 0,
            "oppTrialScore": -5,
            "playerTotalScore": -92,
            "oppTotalScore": -48,
            "waitTime": 2234.3202400434666,
            "responseTime": 1678830502478,
            "catchQuestion": "How many <b class=\"r\">red<\/b> marbles did your opponent report drawing? ",
            "catchKey": -1,
            "catchResponse": -1,
            "catchTime": 1678830493170,
            "trialTime": 0
        },
        {
            "exptPart": "trial",
            "trialNumber": 42,
            "roleCurrent": "receiver",
            "marblesSampled": 100,
            "probRed": 0.5,
            "lambda": 5,
            "drawnRed": 37,
            "reportedRed": 32,
            "inferredRed": 32,
            "playerTrialScore": -5,
            "oppTrialScore": 5,
            "playerTotalScore": -97,
            "oppTotalScore": -43,
            "waitTime": 5219.523977250999,
            "responseTime": 1678830511750,
            "catchQuestion": "How many <b class=\"r\">red<\/b> marbles did your opponent report drawing? ",
            "catchKey": -1,
            "catchResponse": -1,
            "catchTime": 1678830493170,
            "trialTime": 0
        },
        {
            "exptPart": "trial",
            "trialNumber": 43,
            "roleCurrent": "sender",
            "marblesSampled": 100,
            "probRed": 0.5,
            "lambda": 5,
            "drawnRed": 42,
            "reportedRed": 43,
            "inferredRed": 48,
            "playerTrialScore": 0,
            "oppTrialScore": -6,
            "playerTotalScore": -97,
            "oppTotalScore": -49,
            "waitTime": 2447.794798210788,
            "responseTime": 1678830520356,
            "catchQuestion": "How many <b class=\"r\">red<\/b> marbles did your opponent report drawing? ",
            "catchKey": -1,
            "catchResponse": -1,
            "catchTime": 1678830493170,
            "trialTime": 0
        },
        {
            "exptPart": "trial",
            "trialNumber": 44,
            "roleCurrent": "receiver",
            "marblesSampled": 100,
            "probRed": 0.5,
            "lambda": 5,
            "drawnRed": 62,
            "reportedRed": 54,
            "inferredRed": 55,
            "playerTrialScore": -7,
            "oppTrialScore": 7,
            "playerTotalScore": -104,
            "oppTotalScore": -42,
            "waitTime": 6352.483571747831,
            "responseTime": 1678830537835,
            "catchQuestion": "How many <b class=\"r\">red<\/b> marbles did your opponent report drawing? ",
            "catchKey": 54,
            "catchResponse": 54,
            "catchTime": 1678830537835,
            "trialTime": 0
        },
        {
            "exptPart": "trial",
            "trialNumber": 45,
            "roleCurrent": "sender",
            "marblesSampled": 100,
            "probRed": 0.5,
            "lambda": 5,
            "drawnRed": 83,
            "reportedRed": 84,
            "inferredRed": 92,
            "playerTrialScore": 0,
            "oppTrialScore": -9,
            "playerTotalScore": -104,
            "oppTotalScore": -51,
            "waitTime": 2692.1975802879097,
            "responseTime": 1678830550288,
            "catchQuestion": "How many <b class=\"r\">red<\/b> marbles did your opponent report drawing? ",
            "catchKey": -1,
            "catchResponse": -1,
            "catchTime": 1678830550288,
            "trialTime": 0
        },
        {
            "exptPart": "trial",
            "trialNumber": 46,
            "roleCurrent": "receiver",
            "marblesSampled": 100,
            "probRed": 0.5,
            "lambda": 5,
            "drawnRed": 31,
            "reportedRed": 24,
            "inferredRed": 25,
            "playerTrialScore": -6,
            "oppTrialScore": 6,
            "playerTotalScore": -110,
            "oppTotalScore": -45,
            "waitTime": 6014.493952415982,
            "responseTime": 1678830560127,
            "catchQuestion": "How many <b class=\"r\">red<\/b> marbles did your opponent report drawing? ",
            "catchKey": -1,
            "catchResponse": -1,
            "catchTime": 1678830550288,
            "trialTime": 0
        },
        {
            "exptPart": "trial",
            "trialNumber": 47,
            "roleCurrent": "sender",
            "marblesSampled": 100,
            "probRed": 0.5,
            "lambda": 5,
            "drawnRed": 78,
            "reportedRed": 79,
            "inferredRed": 86,
            "playerTrialScore": 0,
            "oppTrialScore": -8,
            "playerTotalScore": -110,
            "oppTotalScore": -53,
            "waitTime": 2069.423239230903,
            "responseTime": 1678830570944,
            "catchQuestion": "How many <b class=\"r\">red<\/b> marbles did your opponent report drawing? ",
            "catchKey": -1,
            "catchResponse": -1,
            "catchTime": 1678830550288,
            "trialTime": 0
        },
        {
            "exptPart": "trial",
            "trialNumber": 48,
            "roleCurrent": "receiver",
            "marblesSampled": 100,
            "probRed": 0.5,
            "lambda": 5,
            "drawnRed": 45,
            "reportedRed": 35,
            "inferredRed": 3,
            "playerTrialScore": -42,
            "oppTrialScore": 42,
            "playerTotalScore": -152,
            "oppTotalScore": -11,
            "waitTime": 6065.714538314714,
            "responseTime": 1678830581297,
            "catchQuestion": "How many <b class=\"r\">red<\/b> marbles did your opponent report drawing? ",
            "catchKey": -1,
            "catchResponse": -1,
            "catchTime": 1678830550288,
            "trialTime": 0
        },
        {
            "exptPart": "trial",
            "trialNumber": 49,
            "roleCurrent": "sender",
            "marblesSampled": 100,
            "probRed": 0.5,
            "lambda": 5,
            "drawnRed": 34,
            "reportedRed": 35,
            "inferredRed": 40,
            "playerTrialScore": 0,
            "oppTrialScore": -6,
            "playerTotalScore": -152,
            "oppTotalScore": -17,
            "waitTime": 3126.5238787733574,
            "responseTime": 1678830589502,
            "catchQuestion": "How many <b class=\"r\">red<\/b> marbles did your opponent report drawing? ",
            "catchKey": -1,
            "catchResponse": -1,
            "catchTime": 1678830550288,
            "trialTime": 0
        },
        {
            "exptPart": "trial",
            "trialNumber": 50,
            "roleCurrent": "receiver",
            "marblesSampled": 100,
            "probRed": 0.5,
            "lambda": 5,
            "drawnRed": 71,
            "reportedRed": 68,
            "inferredRed": 70,
            "playerTrialScore": -1,
            "oppTrialScore": 1,
            "playerTotalScore": -153,
            "oppTotalScore": -16,
            "waitTime": 5756.740148191942,
            "responseTime": 1678830598696,
            "catchQuestion": "How many <b class=\"r\">red<\/b> marbles did your opponent report drawing? ",
            "catchKey": -1,
            "catchResponse": -1,
            "catchTime": 1678830598696,
            "trialTime": 0
        },
        {
            "exptPart": "trial",
            "trialNumber": 51,
            "roleCurrent": "sender",
            "marblesSampled": 100,
            "probRed": 0.5,
            "lambda": 5,
            "drawnRed": 73,
            "reportedRed": 73,
            "inferredRed": 76,
            "playerTrialScore": 0,
            "oppTrialScore": -3,
            "playerTotalScore": -153,
            "oppTotalScore": -19,
            "waitTime": 2224.2586917308445,
            "responseTime": 1678830608728,
            "catchQuestion": "How many <b class=\"r\">red<\/b> marbles did your opponent report drawing? ",
            "catchKey": -1,
            "catchResponse": -1,
            "catchTime": 1678830598696,
            "trialTime": 0
        },
        {
            "exptPart": "trial",
            "trialNumber": 52,
            "roleCurrent": "receiver",
            "marblesSampled": 100,
            "probRed": 0.5,
            "lambda": 5,
            "drawnRed": 58,
            "reportedRed": 56,
            "inferredRed": 57,
            "playerTrialScore": -1,
            "oppTrialScore": 1,
            "playerTotalScore": -154,
            "oppTotalScore": -18,
            "waitTime": 6998.933048125364,
            "responseTime": 1678830619171,
            "catchQuestion": "How many <b class=\"r\">red<\/b> marbles did your opponent report drawing? ",
            "catchKey": -1,
            "catchResponse": -1,
            "catchTime": 1678830598696,
            "trialTime": 0
        },
        {
            "exptPart": "trial",
            "trialNumber": 53,
            "roleCurrent": "sender",
            "marblesSampled": 100,
            "probRed": 0.5,
            "lambda": 5,
            "drawnRed": 62,
            "reportedRed": 62,
            "inferredRed": 67,
            "playerTrialScore": 0,
            "oppTrialScore": -5,
            "playerTotalScore": -154,
            "oppTotalScore": -23,
            "waitTime": 2335.4531215080942,
            "responseTime": 1678830626036,
            "catchQuestion": "How many <b class=\"r\">red<\/b> marbles did your opponent report drawing? ",
            "catchKey": -1,
            "catchResponse": -1,
            "catchTime": 1678830598696,
            "trialTime": 0
        },
        {
            "exptPart": "trial",
            "trialNumber": 54,
            "roleCurrent": "receiver",
            "marblesSampled": 100,
            "probRed": 0.5,
            "lambda": 5,
            "drawnRed": 63,
            "reportedRed": 59,
            "inferredRed": 60,
            "playerTrialScore": -3,
            "oppTrialScore": 3,
            "playerTotalScore": -157,
            "oppTotalScore": -20,
            "waitTime": 6110.921960298798,
            "responseTime": 1678830776970,
            "catchQuestion": "How many <b class=\"r\">red<\/b> marbles did your opponent report drawing? ",
            "catchKey": -1,
            "catchResponse": -1,
            "catchTime": 1678830598696,
            "trialTime": 0
        },
        {
            "exptPart": "trial",
            "trialNumber": 55,
            "roleCurrent": "sender",
            "marblesSampled": 100,
            "probRed": 0.5,
            "lambda": 5,
            "drawnRed": 30,
            "reportedRed": 31,
            "inferredRed": 35,
            "playerTrialScore": 0,
            "oppTrialScore": -5,
            "playerTotalScore": -157,
            "oppTotalScore": -25,
            "waitTime": 3109.4370572775433,
            "responseTime": 1678830786821,
            "catchQuestion": "How many <b class=\"r\">red<\/b> marbles did your opponent report drawing? ",
            "catchKey": -1,
            "catchResponse": -1,
            "catchTime": 1678830786821,
            "trialTime": 0
        },
        {
            "exptPart": "trial",
            "trialNumber": 56,
            "roleCurrent": "receiver",
            "marblesSampled": 100,
            "probRed": 0.5,
            "lambda": 5,
            "drawnRed": 41,
            "reportedRed": 35,
            "inferredRed": 35,
            "playerTrialScore": -6,
            "oppTrialScore": 6,
            "playerTotalScore": -163,
            "oppTotalScore": -19,
            "waitTime": 7053.197166520129,
            "responseTime": 1678830798361,
            "catchQuestion": "How many <b class=\"r\">red<\/b> marbles did your opponent report drawing? ",
            "catchKey": -1,
            "catchResponse": -1,
            "catchTime": 1678830786821,
            "trialTime": 0
        },
        {
            "exptPart": "trial",
            "trialNumber": 57,
            "roleCurrent": "sender",
            "marblesSampled": 100,
            "probRed": 0.5,
            "lambda": 5,
            "drawnRed": 58,
            "reportedRed": 59,
            "inferredRed": 61,
            "playerTrialScore": 0,
            "oppTrialScore": -3,
            "playerTotalScore": -163,
            "oppTotalScore": -22,
            "waitTime": 3222.1551705422958,
            "responseTime": 1678830809926,
            "catchQuestion": "How many <b class=\"r\">red<\/b> marbles did your opponent report drawing? ",
            "catchKey": -1,
            "catchResponse": -1,
            "catchTime": 1678830786821,
            "trialTime": 0
        },
        {
            "exptPart": "trial",
            "trialNumber": 58,
            "roleCurrent": "receiver",
            "marblesSampled": 100,
            "probRed": 0.5,
            "lambda": 5,
            "drawnRed": 76,
            "reportedRed": 73,
            "inferredRed": 73,
            "playerTrialScore": -3,
            "oppTrialScore": 3,
            "playerTotalScore": -166,
            "oppTotalScore": -19,
            "waitTime": 5142.398681624162,
            "responseTime": 1678830835287,
            "catchQuestion": "How many <b class=\"r\">red<\/b> marbles did your opponent report drawing? ",
            "catchKey": -1,
            "catchResponse": -1,
            "catchTime": 1678830786821,
            "trialTime": 0
        },
        {
            "exptPart": "trial",
            "trialNumber": 59,
            "roleCurrent": "sender",
            "marblesSampled": 100,
            "probRed": 0.5,
            "lambda": 5,
            "drawnRed": 48,
            "reportedRed": 49,
            "inferredRed": 56,
            "playerTrialScore": 0,
            "oppTrialScore": -8,
            "playerTotalScore": -166,
            "oppTotalScore": -27,
            "waitTime": 2093.276956471464,
            "responseTime": 1678830848508,
            "catchQuestion": "How many <b class=\"r\">red<\/b> marbles did you actually draw (before any changes)? ",
            "catchKey": 48,
            "catchResponse": 48,
            "catchTime": 1678830848508,
            "trialTime": 0
        },
        {
            "exptPart": "trial",
            "trialNumber": 60,
            "roleCurrent": "receiver",
            "marblesSampled": 100,
            "probRed": 0.5,
            "lambda": 5,
            "drawnRed": 45,
            "reportedRed": 35,
            "inferredRed": 30,
            "playerTrialScore": -15,
            "oppTrialScore": 15,
            "playerTotalScore": -181,
            "oppTotalScore": -12,
            "waitTime": 5174.283252265064,
            "responseTime": 1678830862311,
            "catchQuestion": "How many <b class=\"r\">red<\/b> marbles did you actually draw (before any changes)? ",
            "catchKey": -1,
            "catchResponse": -1,
            "catchTime": 1678830862311,
            "trialTime": 0
        },
        {
            "exptPart": "trial",
            "trialNumber": 61,
            "roleCurrent": "sender",
            "marblesSampled": 100,
            "probRed": 0.5,
            "lambda": 5,
            "drawnRed": 77,
            "reportedRed": 78,
            "inferredRed": 82,
            "playerTrialScore": 0,
            "oppTrialScore": -5,
            "playerTotalScore": -181,
            "oppTotalScore": -17,
            "waitTime": 2549.1738952413434,
            "responseTime": 1678830870131,
            "catchQuestion": "How many <b class=\"r\">red<\/b> marbles did you actually draw (before any changes)? ",
            "catchKey": -1,
            "catchResponse": -1,
            "catchTime": 1678830862311,
            "trialTime": 0
        },
        {
            "exptPart": "trial",
            "trialNumber": 62,
            "roleCurrent": "receiver",
            "marblesSampled": 100,
            "probRed": 0.5,
            "lambda": 5,
            "drawnRed": 45,
            "reportedRed": 41,
            "inferredRed": 40,
            "playerTrialScore": -5,
            "oppTrialScore": 5,
            "playerTotalScore": -186,
            "oppTotalScore": -12,
            "waitTime": 7257.388980041741,
            "responseTime": 1678830880462,
            "catchQuestion": "How many <b class=\"r\">red<\/b> marbles did you actually draw (before any changes)? ",
            "catchKey": -1,
            "catchResponse": -1,
            "catchTime": 1678830862311,
            "trialTime": 0
        },
        {
            "exptPart": "trial",
            "trialNumber": 63,
            "roleCurrent": "sender",
            "marblesSampled": 100,
            "probRed": 0.5,
            "lambda": 5,
            "drawnRed": 40,
            "reportedRed": 41,
            "inferredRed": 48,
            "playerTrialScore": 0,
            "oppTrialScore": -8,
            "playerTotalScore": -186,
            "oppTotalScore": -20,
            "waitTime": 2670.2997351835697,
            "responseTime": 1678830927253,
            "catchQuestion": "How many <b class=\"r\">red<\/b> marbles did you actually draw (before any changes)? ",
            "catchKey": -1,
            "catchResponse": -1,
            "catchTime": 1678830862311,
            "trialTime": 0
        },
        {
            "exptPart": "trial",
            "trialNumber": 64,
            "roleCurrent": "receiver",
            "marblesSampled": 100,
            "probRed": 0.5,
            "lambda": 5,
            "drawnRed": 13,
            "reportedRed": 11,
            "inferredRed": 11,
            "playerTrialScore": -2,
            "oppTrialScore": 2,
            "playerTotalScore": -188,
            "oppTotalScore": -18,
            "waitTime": 7104.857001441454,
            "responseTime": 1678830940815,
            "catchQuestion": "How many <b class=\"r\">red<\/b> marbles did you actually draw (before any changes)? ",
            "catchKey": -1,
            "catchResponse": -1,
            "catchTime": 1678830862311,
            "trialTime": 0
        },
        {
            "exptPart": "trial",
            "trialNumber": 65,
            "roleCurrent": "sender",
            "marblesSampled": 100,
            "probRed": 0.5,
            "lambda": 5,
            "drawnRed": 56,
            "reportedRed": 57,
            "inferredRed": 64,
            "playerTrialScore": 0,
            "oppTrialScore": -8,
            "playerTotalScore": -188,
            "oppTotalScore": -26,
            "waitTime": 2160.371657798103,
            "responseTime": 1678830949794,
            "catchQuestion": "How many <b class=\"r\">red<\/b> marbles did you actually draw (before any changes)? ",
            "catchKey": -1,
            "catchResponse": -1,
            "catchTime": 1678830949794,
            "trialTime": 0
        },
        {
            "exptPart": "trial",
            "trialNumber": 66,
            "roleCurrent": "receiver",
            "marblesSampled": 100,
            "probRed": 0.5,
            "lambda": 5,
            "drawnRed": 77,
            "reportedRed": 74,
            "inferredRed": 70,
            "playerTrialScore": -7,
            "oppTrialScore": 7,
            "playerTotalScore": -195,
            "oppTotalScore": -19,
            "waitTime": 6911.266889666905,
            "responseTime": 1678830963605,
            "catchQuestion": "How many <b class=\"r\">red<\/b> marbles did you actually draw (before any changes)? ",
            "catchKey": -1,
            "catchResponse": -1,
            "catchTime": 1678830949794,
            "trialTime": 0
        },
        {
            "exptPart": "trial",
            "trialNumber": 67,
            "roleCurrent": "sender",
            "marblesSampled": 100,
            "probRed": 0.5,
            "lambda": 5,
            "drawnRed": 52,
            "reportedRed": 53,
            "inferredRed": 60,
            "playerTrialScore": 0,
            "oppTrialScore": -8,
            "playerTotalScore": -195,
            "oppTotalScore": -27,
            "waitTime": 2779.888647083033,
            "responseTime": 1678830971300,
            "catchQuestion": "How many <b class=\"r\">red<\/b> marbles did you actually draw (before any changes)? ",
            "catchKey": -1,
            "catchResponse": -1,
            "catchTime": 1678830949794,
            "trialTime": 0
        },
        {
            "exptPart": "trial",
            "trialNumber": 68,
            "roleCurrent": "receiver",
            "marblesSampled": 100,
            "probRed": 0.5,
            "lambda": 5,
            "drawnRed": 56,
            "reportedRed": 50,
            "inferredRed": 50,
            "playerTrialScore": -6,
            "oppTrialScore": 6,
            "playerTotalScore": -201,
            "oppTotalScore": -21,
            "waitTime": 7344.073744192542,
            "responseTime": 1678830982908,
            "catchQuestion": "How many <b class=\"r\">red<\/b> marbles did your opponent report drawing? ",
            "catchKey": 50,
            "catchResponse": 50,
            "catchTime": 1678830982908,
            "trialTime": 0
        },
        {
            "exptPart": "trial",
            "trialNumber": 69,
            "roleCurrent": "sender",
            "marblesSampled": 100,
            "probRed": 0.5,
            "lambda": 5,
            "drawnRed": 56,
            "reportedRed": 57,
            "inferredRed": 60,
            "playerTrialScore": 0,
            "oppTrialScore": -4,
            "playerTotalScore": -201,
            "oppTotalScore": -25,
            "waitTime": 2536.785772050655,
            "responseTime": 1678830994130,
            "catchQuestion": "How many <b class=\"r\">red<\/b> marbles did your opponent report drawing? ",
            "catchKey": -1,
            "catchResponse": -1,
            "catchTime": 1678830982908,
            "trialTime": 0
        },
        {
            "exptPart": "trial",
            "trialNumber": 70,
            "roleCurrent": "receiver",
            "marblesSampled": 100,
            "probRed": 0.5,
            "lambda": 5,
            "drawnRed": 54,
            "reportedRed": 49,
            "inferredRed": 49,
            "playerTrialScore": -5,
            "oppTrialScore": 5,
            "playerTotalScore": -206,
            "oppTotalScore": -20,
            "waitTime": 6684.641256100337,
            "responseTime": 1678831006321,
            "catchQuestion": "How many <b class=\"r\">red<\/b> marbles did your opponent report drawing? ",
            "catchKey": -1,
            "catchResponse": -1,
            "catchTime": 1678831006321,
            "trialTime": 0
        },
        {
            "exptPart": "trial",
            "trialNumber": 71,
            "roleCurrent": "sender",
            "marblesSampled": 100,
            "probRed": 0.5,
            "lambda": 5,
            "drawnRed": 70,
            "reportedRed": 70,
            "inferredRed": 76,
            "playerTrialScore": 0,
            "oppTrialScore": -6,
            "playerTotalScore": -206,
            "oppTotalScore": -26,
            "waitTime": 3075.6641908300985,
            "responseTime": 1678831015943,
            "catchQuestion": "How many <b class=\"r\">red<\/b> marbles did your opponent report drawing? ",
            "catchKey": -1,
            "catchResponse": -1,
            "catchTime": 1678831006321,
            "trialTime": 0
        },
        {
            "exptPart": "trial",
            "trialNumber": 72,
            "roleCurrent": "receiver",
            "marblesSampled": 100,
            "probRed": 0.5,
            "lambda": 5,
            "drawnRed": 47,
            "reportedRed": 39,
            "inferredRed": 40,
            "playerTrialScore": -7,
            "oppTrialScore": 7,
            "playerTotalScore": -213,
            "oppTotalScore": -19,
            "waitTime": 6177.969497316639,
            "responseTime": 1678831025741,
            "catchQuestion": "How many <b class=\"r\">red<\/b> marbles did your opponent report drawing? ",
            "catchKey": -1,
            "catchResponse": -1,
            "catchTime": 1678831006321,
            "trialTime": 0
        },
        {
            "exptPart": "trial",
            "trialNumber": 73,
            "roleCurrent": "sender",
            "marblesSampled": 100,
            "probRed": 0.5,
            "lambda": 5,
            "drawnRed": 77,
            "reportedRed": 78,
            "inferredRed": 81,
            "playerTrialScore": 0,
            "oppTrialScore": -4,
            "playerTotalScore": -213,
            "oppTotalScore": -23,
            "waitTime": 2342.6972605271253,
            "responseTime": 1678831034737,
            "catchQuestion": "How many <b class=\"r\">red<\/b> marbles did your opponent report drawing? ",
            "catchKey": -1,
            "catchResponse": -1,
            "catchTime": 1678831006321,
            "trialTime": 0
        },
        {
            "exptPart": "trial",
            "trialNumber": 74,
            "roleCurrent": "receiver",
            "marblesSampled": 100,
            "probRed": 0.5,
            "lambda": 5,
            "drawnRed": 61,
            "reportedRed": 55,
            "inferredRed": 55,
            "playerTrialScore": -6,
            "oppTrialScore": 6,
            "playerTotalScore": -219,
            "oppTotalScore": -17,
            "waitTime": 6786.422912765666,
            "responseTime": 1678831045917,
            "catchQuestion": "How many <b class=\"r\">red<\/b> marbles did your opponent report drawing? ",
            "catchKey": -1,
            "catchResponse": -1,
            "catchTime": 1678831006321,
            "trialTime": 0
        },
        {
            "exptPart": "trial",
            "trialNumber": 75,
            "roleCurrent": "sender",
            "marblesSampled": 100,
            "probRed": 0.5,
            "lambda": 5,
            "drawnRed": 58,
            "reportedRed": 58,
            "inferredRed": 60,
            "playerTrialScore": 0,
            "oppTrialScore": -2,
            "playerTotalScore": -219,
            "oppTotalScore": -19,
            "waitTime": 2928.258914228057,
            "responseTime": 1678831053711,
            "catchQuestion": "How many <b class=\"r\">red<\/b> marbles did your opponent report drawing? ",
            "catchKey": -1,
            "catchResponse": -1,
            "catchTime": 1678831053711,
            "trialTime": 0
        },
        {
            "exptPart": "trial",
            "trialNumber": 76,
            "roleCurrent": "receiver",
            "marblesSampled": 100,
            "probRed": 0.5,
            "lambda": 5,
            "drawnRed": 27,
            "reportedRed": 26,
            "inferredRed": 26,
            "playerTrialScore": -1,
            "oppTrialScore": 1,
            "playerTotalScore": -220,
            "oppTotalScore": -18,
            "waitTime": 6339.732293579981,
            "responseTime": 1678831064970,
            "catchQuestion": "How many <b class=\"r\">red<\/b> marbles did your opponent report drawing? ",
            "catchKey": -1,
            "catchResponse": -1,
            "catchTime": 1678831053711,
            "trialTime": 0
        },
        {
            "exptPart": "trial",
            "trialNumber": 77,
            "roleCurrent": "sender",
            "marblesSampled": 100,
            "probRed": 0.5,
            "lambda": 5,
            "drawnRed": 75,
            "reportedRed": 76,
            "inferredRed": 82,
            "playerTrialScore": 0,
            "oppTrialScore": -7,
            "playerTotalScore": -220,
            "oppTotalScore": -25,
            "waitTime": 2519.2463494299664,
            "responseTime": 1678831072148,
            "catchQuestion": "How many <b class=\"r\">red<\/b> marbles did your opponent report drawing? ",
            "catchKey": -1,
            "catchResponse": -1,
            "catchTime": 1678831053711,
            "trialTime": 0
        },
        {
            "exptPart": "trial",
            "trialNumber": 78,
            "roleCurrent": "receiver",
            "marblesSampled": 100,
            "probRed": 0.5,
            "lambda": 5,
            "drawnRed": 52,
            "reportedRed": 47,
            "inferredRed": 48,
            "playerTrialScore": -4,
            "oppTrialScore": 4,
            "playerTotalScore": -224,
            "oppTotalScore": -21,
            "waitTime": 5693.2924701103,
            "responseTime": 1678831082441,
            "catchQuestion": "How many <b class=\"r\">red<\/b> marbles did your opponent report drawing? ",
            "catchKey": 47,
            "catchResponse": 47,
            "catchTime": 1678831082441,
            "trialTime": 0
        },
        {
            "exptPart": "trial",
            "trialNumber": 79,
            "roleCurrent": "sender",
            "marblesSampled": 100,
            "probRed": 0.5,
            "lambda": 5,
            "drawnRed": 69,
            "reportedRed": 69,
            "inferredRed": 71,
            "playerTrialScore": 0,
            "oppTrialScore": -2,
            "playerTotalScore": -224,
            "oppTotalScore": -23,
            "waitTime": 2300.8578983284706,
            "responseTime": 1678831092345,
            "catchQuestion": "How many <b class=\"r\">red<\/b> marbles did your opponent report drawing? ",
            "catchKey": -1,
            "catchResponse": -1,
            "catchTime": 1678831082441,
            "trialTime": 0
        },
        {
            "exptPart": "trial",
            "trialNumber": 80,
            "roleCurrent": "receiver",
            "marblesSampled": 100,
            "probRed": 0.5,
            "lambda": 5,
            "drawnRed": 61,
            "reportedRed": 57,
            "inferredRed": 60,
            "playerTrialScore": -1,
            "oppTrialScore": 1,
            "playerTotalScore": -225,
            "oppTotalScore": -22,
            "waitTime": 5358.054074759762,
            "responseTime": 1678831100925,
            "catchQuestion": "How many <b class=\"r\">red<\/b> marbles did your opponent report drawing? ",
            "catchKey": -1,
            "catchResponse": -1,
            "catchTime": 1678831100925,
            "trialTime": 0
        },
        {
            "exptPart": "trial",
            "trialNumber": 81,
            "roleCurrent": "sender",
            "marblesSampled": 100,
            "probRed": 0.5,
            "lambda": 5,
            "drawnRed": 26,
            "reportedRed": 27,
            "inferredRed": 32,
            "playerTrialScore": 0,
            "oppTrialScore": -6,
            "playerTotalScore": -225,
            "oppTotalScore": -28,
            "waitTime": 3028.4634479976735,
            "responseTime": 1678831132922,
            "catchQuestion": "How many <b class=\"r\">red<\/b> marbles did your opponent report drawing? ",
            "catchKey": -1,
            "catchResponse": -1,
            "catchTime": 1678831100925,
            "trialTime": 0
        },
        {
            "exptPart": "trial",
            "trialNumber": 82,
            "roleCurrent": "receiver",
            "marblesSampled": 100,
            "probRed": 0.5,
            "lambda": 5,
            "drawnRed": 51,
            "reportedRed": 44,
            "inferredRed": 45,
            "playerTrialScore": -6,
            "oppTrialScore": 6,
            "playerTotalScore": -231,
            "oppTotalScore": -22,
            "waitTime": 6119.6168653275145,
            "responseTime": 1678831143071,
            "catchQuestion": "How many <b class=\"r\">red<\/b> marbles did your opponent report drawing? ",
            "catchKey": 44,
            "catchResponse": 44,
            "catchTime": 1678831143071,
            "trialTime": 0
        },
        {
            "exptPart": "trial",
            "trialNumber": 83,
            "roleCurrent": "sender",
            "marblesSampled": 100,
            "probRed": 0.5,
            "lambda": 5,
            "drawnRed": 25,
            "reportedRed": 26,
            "inferredRed": 33,
            "playerTrialScore": 0,
            "oppTrialScore": -8,
            "playerTotalScore": -231,
            "oppTotalScore": -30,
            "waitTime": 2813.5965414922935,
            "responseTime": 1678831154435,
            "catchQuestion": "How many <b class=\"r\">red<\/b> marbles did your opponent report drawing? ",
            "catchKey": -1,
            "catchResponse": -1,
            "catchTime": 1678831143071,
            "trialTime": 0
        },
        {
            "exptPart": "trial",
            "trialNumber": 84,
            "roleCurrent": "receiver",
            "marblesSampled": 100,
            "probRed": 0.5,
            "lambda": 5,
            "drawnRed": 46,
            "reportedRed": 39,
            "inferredRed": 40,
            "playerTrialScore": -6,
            "oppTrialScore": 6,
            "playerTotalScore": -237,
            "oppTotalScore": -24,
            "waitTime": 5697.467875242897,
            "responseTime": 1678831166247,
            "catchQuestion": "How many <b class=\"r\">red<\/b> marbles did your opponent report drawing? ",
            "catchKey": -1,
            "catchResponse": -1,
            "catchTime": 1678831143071,
            "trialTime": 0
        },
        {
            "exptPart": "trial",
            "trialNumber": 85,
            "roleCurrent": "sender",
            "marblesSampled": 100,
            "probRed": 0.5,
            "lambda": 5,
            "drawnRed": 59,
            "reportedRed": 60,
            "inferredRed": 67,
            "playerTrialScore": 0,
            "oppTrialScore": -8,
            "playerTotalScore": -237,
            "oppTotalScore": -32,
            "waitTime": 3011.7586909106403,
            "responseTime": 1678831176095,
            "catchQuestion": "How many <b class=\"r\">red<\/b> marbles did your opponent report drawing? ",
            "catchKey": -1,
            "catchResponse": -1,
            "catchTime": 1678831176095,
            "trialTime": 0
        },
        {
            "exptPart": "trial",
            "trialNumber": 86,
            "roleCurrent": "receiver",
            "marblesSampled": 100,
            "probRed": 0.5,
            "lambda": 5,
            "drawnRed": 72,
            "reportedRed": 68,
            "inferredRed": 68,
            "playerTrialScore": -4,
            "oppTrialScore": 4,
            "playerTotalScore": -241,
            "oppTotalScore": -28,
            "waitTime": 5829.985169636804,
            "responseTime": 1678831186568,
            "catchQuestion": "How many <b class=\"r\">red<\/b> marbles did your opponent report drawing? ",
            "catchKey": -1,
            "catchResponse": -1,
            "catchTime": 1678831176095,
            "trialTime": 0
        },
        {
            "exptPart": "trial",
            "trialNumber": 87,
            "roleCurrent": "sender",
            "marblesSampled": 100,
            "probRed": 0.5,
            "lambda": 5,
            "drawnRed": 36,
            "reportedRed": 37,
            "inferredRed": 41,
            "playerTrialScore": 0,
            "oppTrialScore": -5,
            "playerTotalScore": -241,
            "oppTotalScore": -33,
            "waitTime": 2633.7006899276685,
            "responseTime": 1678831194603,
            "catchQuestion": "How many <b class=\"r\">red<\/b> marbles did your opponent report drawing? ",
            "catchKey": -1,
            "catchResponse": -1,
            "catchTime": 1678831176095,
            "trialTime": 0
        },
        {
            "exptPart": "trial",
            "trialNumber": 88,
            "roleCurrent": "receiver",
            "marblesSampled": 100,
            "probRed": 0.5,
            "lambda": 5,
            "drawnRed": 12,
            "reportedRed": 9,
            "inferredRed": 9,
            "playerTrialScore": -3,
            "oppTrialScore": 3,
            "playerTotalScore": -244,
            "oppTotalScore": -30,
            "waitTime": 6185.228704394869,
            "responseTime": 1678831207394,
            "catchQuestion": "How many <b class=\"r\">red<\/b> marbles did your opponent report drawing? ",
            "catchKey": -1,
            "catchResponse": -1,
            "catchTime": 1678831176095,
            "trialTime": 0
        },
        {
            "exptPart": "trial",
            "trialNumber": 89,
            "roleCurrent": "sender",
            "marblesSampled": 100,
            "probRed": 0.5,
            "lambda": 5,
            "drawnRed": 42,
            "reportedRed": 43,
            "inferredRed": 52,
            "playerTrialScore": 0,
            "oppTrialScore": -10,
            "playerTotalScore": -244,
            "oppTotalScore": -40,
            "waitTime": 2196.244106001052,
            "responseTime": 1678831218297,
            "catchQuestion": "How many <b class=\"r\">red<\/b> marbles did your opponent report drawing? ",
            "catchKey": -1,
            "catchResponse": -1,
            "catchTime": 1678831176095,
            "trialTime": 0
        },
        {
            "exptPart": "trial",
            "trialNumber": 90,
            "roleCurrent": "receiver",
            "marblesSampled": 100,
            "probRed": 0.5,
            "lambda": 5,
            "drawnRed": 31,
            "reportedRed": 26,
            "inferredRed": 25,
            "playerTrialScore": -6,
            "oppTrialScore": 6,
            "playerTotalScore": -250,
            "oppTotalScore": -34,
            "waitTime": 5178.079042938051,
            "responseTime": 1678831225896,
            "catchQuestion": "How many <b class=\"r\">red<\/b> marbles did your opponent report drawing? ",
            "catchKey": -1,
            "catchResponse": -1,
            "catchTime": 1678831225896,
            "trialTime": 0
        },
        {
            "exptPart": "trial",
            "trialNumber": 91,
            "roleCurrent": "sender",
            "marblesSampled": 100,
            "probRed": 0.5,
            "lambda": 5,
            "drawnRed": 59,
            "reportedRed": 60,
            "inferredRed": 62,
            "playerTrialScore": 0,
            "oppTrialScore": -3,
            "playerTotalScore": -250,
            "oppTotalScore": -37,
            "waitTime": 2063.296055348578,
            "responseTime": 1678831234100,
            "catchQuestion": "How many <b class=\"r\">red<\/b> marbles did your opponent report drawing? ",
            "catchKey": -1,
            "catchResponse": -1,
            "catchTime": 1678831225896,
            "trialTime": 0
        },
        {
            "exptPart": "trial",
            "trialNumber": 92,
            "roleCurrent": "receiver",
            "marblesSampled": 100,
            "probRed": 0.5,
            "lambda": 5,
            "drawnRed": 36,
            "reportedRed": 30,
            "inferredRed": 30,
            "playerTrialScore": -6,
            "oppTrialScore": 6,
            "playerTotalScore": -256,
            "oppTotalScore": -31,
            "waitTime": 6223.916044222669,
            "responseTime": 1678831243686,
            "catchQuestion": "How many <b class=\"r\">red<\/b> marbles did your opponent report drawing? ",
            "catchKey": -1,
            "catchResponse": -1,
            "catchTime": 1678831225896,
            "trialTime": 0
        },
        {
            "exptPart": "trial",
            "trialNumber": 93,
            "roleCurrent": "sender",
            "marblesSampled": 100,
            "probRed": 0.5,
            "lambda": 5,
            "drawnRed": 26,
            "reportedRed": 27,
            "inferredRed": 33,
            "playerTrialScore": 0,
            "oppTrialScore": -7,
            "playerTotalScore": -256,
            "oppTotalScore": -38,
            "waitTime": 3010.5736285597914,
            "responseTime": 1678831251745,
            "catchQuestion": "How many <b class=\"r\">red<\/b> marbles did your opponent report drawing? ",
            "catchKey": -1,
            "catchResponse": -1,
            "catchTime": 1678831225896,
            "trialTime": 0
        },
        {
            "exptPart": "trial",
            "trialNumber": 94,
            "roleCurrent": "receiver",
            "marblesSampled": 100,
            "probRed": 0.5,
            "lambda": 5,
            "drawnRed": 37,
            "reportedRed": 32,
            "inferredRed": 32,
            "playerTrialScore": -5,
            "oppTrialScore": 5,
            "playerTotalScore": -261,
            "oppTotalScore": -33,
            "waitTime": 5810.975409280922,
            "responseTime": 1678831260063,
            "catchQuestion": "How many <b class=\"r\">red<\/b> marbles did your opponent report drawing? ",
            "catchKey": -1,
            "catchResponse": -1,
            "catchTime": 1678831225896,
            "trialTime": 0
        },
        {
            "exptPart": "trial",
            "trialNumber": 95,
            "roleCurrent": "sender",
            "marblesSampled": 100,
            "probRed": 0.5,
            "lambda": 5,
            "drawnRed": 57,
            "reportedRed": 58,
            "inferredRed": 61,
            "playerTrialScore": 0,
            "oppTrialScore": -4,
            "playerTotalScore": -261,
            "oppTotalScore": -37,
            "waitTime": 2064.489468886927,
            "responseTime": 1678831267274,
            "catchQuestion": "How many <b class=\"r\">red<\/b> marbles did your opponent report drawing? ",
            "catchKey": -1,
            "catchResponse": -1,
            "catchTime": 1678831267274,
            "trialTime": 0
        },
        {
            "exptPart": "trial",
            "trialNumber": 96,
            "roleCurrent": "receiver",
            "marblesSampled": 100,
            "probRed": 0.5,
            "lambda": 5,
            "drawnRed": 79,
            "reportedRed": 73,
            "inferredRed": 73,
            "playerTrialScore": -6,
            "oppTrialScore": 6,
            "playerTotalScore": -267,
            "oppTotalScore": -31,
            "waitTime": 5505.150110875401,
            "responseTime": 1678831276670,
            "catchQuestion": "How many <b class=\"r\">red<\/b> marbles did your opponent report drawing? ",
            "catchKey": -1,
            "catchResponse": -1,
            "catchTime": 1678831267274,
            "trialTime": 0
        },
        {
            "exptPart": "trial",
            "trialNumber": 97,
            "roleCurrent": "sender",
            "marblesSampled": 100,
            "probRed": 0.5,
            "lambda": 5,
            "drawnRed": 62,
            "reportedRed": 63,
            "inferredRed": 68,
            "playerTrialScore": 0,
            "oppTrialScore": -6,
            "playerTotalScore": -267,
            "oppTotalScore": -37,
            "waitTime": 3020.5041915288957,
            "responseTime": 1678831283675,
            "catchQuestion": "How many <b class=\"r\">red<\/b> marbles did you actually draw (before any changes)? ",
            "catchKey": 62,
            "catchResponse": 73,
            "catchTime": 1678831283675,
            "trialTime": 0
        },
        {
            "exptPart": "trial",
            "trialNumber": 98,
            "roleCurrent": "receiver",
            "marblesSampled": 100,
            "probRed": 0.5,
            "lambda": 5,
            "drawnRed": 57,
            "reportedRed": 51,
            "inferredRed": 51,
            "playerTrialScore": -6,
            "oppTrialScore": 6,
            "playerTotalScore": -273,
            "oppTotalScore": -31,
            "waitTime": 5599.2690697368325,
            "responseTime": 1678831299222,
            "catchQuestion": "How many <b class=\"r\">red<\/b> marbles did you actually draw (before any changes)? ",
            "catchKey": -1,
            "catchResponse": -1,
            "catchTime": 1678831283675,
            "trialTime": 0
        },
        {
            "exptPart": "trial",
            "trialNumber": 99,
            "roleCurrent": "sender",
            "marblesSampled": 100,
            "probRed": 0.5,
            "lambda": 5,
            "drawnRed": 67,
            "reportedRed": 68,
            "inferredRed": 72,
            "playerTrialScore": 0,
            "oppTrialScore": -5,
            "playerTotalScore": -273,
            "oppTotalScore": -36,
            "waitTime": 2468.950183160081,
            "responseTime": 1678831307453,
            "catchQuestion": "How many <b class=\"r\">red<\/b> marbles did you actually draw (before any changes)? ",
            "catchKey": -1,
            "catchResponse": -1,
            "catchTime": 1678831283675,
            "trialTime": 0
        },
        {
            "exptPart": "trial",
            "trialNumber": 100,
            "roleCurrent": "receiver",
            "marblesSampled": 100,
            "probRed": 0.5,
            "lambda": 5,
            "drawnRed": 55,
            "reportedRed": 48,
            "inferredRed": 48,
            "playerTrialScore": -7,
            "oppTrialScore": 7,
            "playerTotalScore": -280,
            "oppTotalScore": -29,
            "waitTime": 6252.749300920288,
            "responseTime": 1678831316503,
            "catchQuestion": "How many <b class=\"r\">red<\/b> marbles did you actually draw (before any changes)? ",
            "catchKey": -1,
            "catchResponse": -1,
            "catchTime": 1678831316504,
            "trialTime": 0
        }
    ]
}