{
    "client": {
        "type": "sona",
        "experiment_id": 2228,
        "credit_token": "b315147ae43241ea9c65086cb510cfb7",
        "survey_code": "37592",
        "sid": "sona-37592",
        "window": {
            "width": 1440,
            "height": 709
        },
        "screen": {
            "width": 1440,
            "height": 900
        },
        "userAgent": "Mozilla\/5.0 (Macintosh; Intel Mac OS X 10_15_7) AppleWebKit\/537.36 (KHTML, like Gecko) Chrome\/110.0.0.0 Safari\/537.36",
        "score": 0,
        "bonus": 0
    },
    "expt": {
        "saveURL": "submit.simple.php",
        "trials": 100,
        "practiceTrials": 2,
        "marblesSampled": 100,
        "probRed": 0.5,
        "lambdaAI": 5,
        "roleFirst": "receiver",
        "roles": [
            "sender",
            "receiver"
        ],
        "cost": "unif",
        "goal": "under",
        "goalInstructTxt": "above",
        "catchTrials": [
            27,
            62,
            57,
            26,
            6,
            38,
            96,
            45,
            80,
            71
        ],
        "scoreTotal": {
            "player": 318,
            "opp": -356
        },
        "sona": {
            "experiment_id": 2228,
            "credit_token": "b315147ae43241ea9c65086cb510cfb7"
        },
        "pilot": false,
        "debug": false
    },
    "trials": [
        {
            "exptPart": "practice",
            "trialNumber": 1,
            "roleCurrent": "sender",
            "marblesSampled": 100,
            "probRed": 0.5,
            "lambda": 5,
            "drawnRed": 62,
            "reportedRed": 55,
            "inferredRed": 59,
            "playerTrialScore": 3,
            "oppTrialScore": -3,
            "playerTotalScore": 3,
            "oppTotalScore": -3,
            "waitTime": 2700.8658020491803,
            "responseTime": 1678834748688,
            "catchQuestion": "How many <b class=\"r\">red<\/b> marbles did you actually draw (before any changes)? ",
            "catchKey": 62,
            "catchResponse": 63,
            "catchTime": 1678834748689,
            "trialTime": 0
        },
        {
            "exptPart": "practice",
            "trialNumber": 2,
            "roleCurrent": "receiver",
            "marblesSampled": 100,
            "probRed": 0.5,
            "lambda": 5,
            "drawnRed": 26,
            "reportedRed": 22,
            "inferredRed": 25,
            "playerTrialScore": -1,
            "oppTrialScore": 1,
            "playerTotalScore": 2,
            "oppTotalScore": -2,
            "waitTime": 5413.000000987829,
            "responseTime": 1678834791824,
            "catchQuestion": "How many <b class=\"r\">red<\/b> marbles did your opponent report drawing? ",
            "catchKey": 22,
            "catchResponse": 22,
            "catchTime": 1678834791824,
            "trialTime": 0
        },
        {
            "exptPart": "trial",
            "trialNumber": 1,
            "roleCurrent": "receiver",
            "marblesSampled": 100,
            "probRed": 0.5,
            "lambda": 5,
            "drawnRed": 61,
            "reportedRed": 51,
            "inferredRed": 57,
            "playerTrialScore": -4,
            "oppTrialScore": 4,
            "playerTotalScore": -4,
            "oppTotalScore": 4,
            "waitTime": 6473.483984740458,
            "responseTime": 1678834881551,
            "catchQuestion": "How many <b class=\"r\">red<\/b> marbles did your opponent report drawing? ",
            "catchKey": -1,
            "catchResponse": -1,
            "catchTime": 1678834791824,
            "trialTime": 0
        },
        {
            "exptPart": "trial",
            "trialNumber": 2,
            "roleCurrent": "sender",
            "marblesSampled": 100,
            "probRed": 0.5,
            "lambda": 5,
            "drawnRed": 52,
            "reportedRed": 44,
            "inferredRed": 47,
            "playerTrialScore": 5,
            "oppTrialScore": -5,
            "playerTotalScore": 1,
            "oppTotalScore": -1,
            "waitTime": 2605.9348975940893,
            "responseTime": 1678834905527,
            "catchQuestion": "How many <b class=\"r\">red<\/b> marbles did your opponent report drawing? ",
            "catchKey": -1,
            "catchResponse": -1,
            "catchTime": 1678834791824,
            "trialTime": 0
        },
        {
            "exptPart": "trial",
            "trialNumber": 3,
            "roleCurrent": "receiver",
            "marblesSampled": 100,
            "probRed": 0.5,
            "lambda": 5,
            "drawnRed": 51,
            "reportedRed": 47,
            "inferredRed": 49,
            "playerTrialScore": -2,
            "oppTrialScore": 2,
            "playerTotalScore": -1,
            "oppTotalScore": 1,
            "waitTime": 6319.932584604721,
            "responseTime": 1678834922552,
            "catchQuestion": "How many <b class=\"r\">red<\/b> marbles did your opponent report drawing? ",
            "catchKey": -1,
            "catchResponse": -1,
            "catchTime": 1678834791824,
            "trialTime": 0
        },
        {
            "exptPart": "trial",
            "trialNumber": 4,
            "roleCurrent": "sender",
            "marblesSampled": 100,
            "probRed": 0.5,
            "lambda": 5,
            "drawnRed": 77,
            "reportedRed": 77,
            "inferredRed": 83,
            "playerTrialScore": 0,
            "oppTrialScore": -6,
            "playerTotalScore": -1,
            "oppTotalScore": -5,
            "waitTime": 3031.5351075572075,
            "responseTime": 1678834940581,
            "catchQuestion": "How many <b class=\"r\">red<\/b> marbles did your opponent report drawing? ",
            "catchKey": -1,
            "catchResponse": -1,
            "catchTime": 1678834791824,
            "trialTime": 0
        },
        {
            "exptPart": "trial",
            "trialNumber": 5,
            "roleCurrent": "receiver",
            "marblesSampled": 100,
            "probRed": 0.5,
            "lambda": 5,
            "drawnRed": 54,
            "reportedRed": 52,
            "inferredRed": 54,
            "playerTrialScore": 0,
            "oppTrialScore": 0,
            "playerTotalScore": -1,
            "oppTotalScore": -5,
            "waitTime": 6563.505394926466,
            "responseTime": 1678834956657,
            "catchQuestion": "How many <b class=\"r\">red<\/b> marbles did your opponent report drawing? ",
            "catchKey": -1,
            "catchResponse": -1,
            "catchTime": 1678834956657,
            "trialTime": 0
        },
        {
            "exptPart": "trial",
            "trialNumber": 6,
            "roleCurrent": "sender",
            "marblesSampled": 100,
            "probRed": 0.5,
            "lambda": 5,
            "drawnRed": 45,
            "reportedRed": 41,
            "inferredRed": 46,
            "playerTrialScore": 0,
            "oppTrialScore": -1,
            "playerTotalScore": -1,
            "oppTotalScore": -6,
            "waitTime": 2125.086434769484,
            "responseTime": 1678834979365,
            "catchQuestion": "How many <b class=\"r\">red<\/b> marbles did your opponent report drawing? ",
            "catchKey": -1,
            "catchResponse": -1,
            "catchTime": 1678834956657,
            "trialTime": 0
        },
        {
            "exptPart": "trial",
            "trialNumber": 7,
            "roleCurrent": "receiver",
            "marblesSampled": 100,
            "probRed": 0.5,
            "lambda": 5,
            "drawnRed": 82,
            "reportedRed": 74,
            "inferredRed": 79,
            "playerTrialScore": -3,
            "oppTrialScore": 3,
            "playerTotalScore": -4,
            "oppTotalScore": -3,
            "waitTime": 7003.600663924122,
            "responseTime": 1678834993091,
            "catchQuestion": "How many <b class=\"r\">red<\/b> marbles did your opponent report drawing? ",
            "catchKey": 74,
            "catchResponse": 73,
            "catchTime": 1678834993092,
            "trialTime": 0
        },
        {
            "exptPart": "trial",
            "trialNumber": 8,
            "roleCurrent": "sender",
            "marblesSampled": 100,
            "probRed": 0.5,
            "lambda": 5,
            "drawnRed": 73,
            "reportedRed": 68,
            "inferredRed": 72,
            "playerTrialScore": 1,
            "oppTrialScore": -1,
            "playerTotalScore": -3,
            "oppTotalScore": -4,
            "waitTime": 2258.7237468767707,
            "responseTime": 1678835033899,
            "catchQuestion": "How many <b class=\"r\">red<\/b> marbles did your opponent report drawing? ",
            "catchKey": -1,
            "catchResponse": -1,
            "catchTime": 1678834993092,
            "trialTime": 0
        },
        {
            "exptPart": "trial",
            "trialNumber": 9,
            "roleCurrent": "receiver",
            "marblesSampled": 100,
            "probRed": 0.5,
            "lambda": 5,
            "drawnRed": 44,
            "reportedRed": 41,
            "inferredRed": 44,
            "playerTrialScore": 0,
            "oppTrialScore": 0,
            "playerTotalScore": -3,
            "oppTotalScore": -4,
            "waitTime": 5926.081076075419,
            "responseTime": 1678835049028,
            "catchQuestion": "How many <b class=\"r\">red<\/b> marbles did your opponent report drawing? ",
            "catchKey": -1,
            "catchResponse": -1,
            "catchTime": 1678834993092,
            "trialTime": 0
        },
        {
            "exptPart": "trial",
            "trialNumber": 10,
            "roleCurrent": "sender",
            "marblesSampled": 100,
            "probRed": 0.5,
            "lambda": 5,
            "drawnRed": 34,
            "reportedRed": 30,
            "inferredRed": 33,
            "playerTrialScore": 1,
            "oppTrialScore": -1,
            "playerTotalScore": -2,
            "oppTotalScore": -5,
            "waitTime": 3162.126069017911,
            "responseTime": 1678835065015,
            "catchQuestion": "How many <b class=\"r\">red<\/b> marbles did your opponent report drawing? ",
            "catchKey": -1,
            "catchResponse": -1,
            "catchTime": 1678835065015,
            "trialTime": 0
        },
        {
            "exptPart": "trial",
            "trialNumber": 11,
            "roleCurrent": "receiver",
            "marblesSampled": 100,
            "probRed": 0.5,
            "lambda": 5,
            "drawnRed": 33,
            "reportedRed": 31,
            "inferredRed": 32,
            "playerTrialScore": -1,
            "oppTrialScore": 1,
            "playerTotalScore": -3,
            "oppTotalScore": -4,
            "waitTime": 5471.310376801512,
            "responseTime": 1678835079744,
            "catchQuestion": "How many <b class=\"r\">red<\/b> marbles did your opponent report drawing? ",
            "catchKey": -1,
            "catchResponse": -1,
            "catchTime": 1678835065015,
            "trialTime": 0
        },
        {
            "exptPart": "trial",
            "trialNumber": 12,
            "roleCurrent": "sender",
            "marblesSampled": 100,
            "probRed": 0.5,
            "lambda": 5,
            "drawnRed": 55,
            "reportedRed": 48,
            "inferredRed": 53,
            "playerTrialScore": 2,
            "oppTrialScore": -2,
            "playerTotalScore": -1,
            "oppTotalScore": -6,
            "waitTime": 3009.7536234453137,
            "responseTime": 1678835095740,
            "catchQuestion": "How many <b class=\"r\">red<\/b> marbles did your opponent report drawing? ",
            "catchKey": -1,
            "catchResponse": -1,
            "catchTime": 1678835065015,
            "trialTime": 0
        },
        {
            "exptPart": "trial",
            "trialNumber": 13,
            "roleCurrent": "receiver",
            "marblesSampled": 100,
            "probRed": 0.5,
            "lambda": 5,
            "drawnRed": 3,
            "reportedRed": 0,
            "inferredRed": 8,
            "playerTrialScore": -5,
            "oppTrialScore": 0,
            "playerTotalScore": -6,
            "oppTotalScore": -6,
            "waitTime": 7215.664057496415,
            "responseTime": 1678835127817,
            "catchQuestion": "How many <b class=\"r\">red<\/b> marbles did your opponent report drawing? ",
            "catchKey": -1,
            "catchResponse": -1,
            "catchTime": 1678835065015,
            "trialTime": 0
        },
        {
            "exptPart": "trial",
            "trialNumber": 14,
            "roleCurrent": "sender",
            "marblesSampled": 100,
            "probRed": 0.5,
            "lambda": 5,
            "drawnRed": 59,
            "reportedRed": 57,
            "inferredRed": 60,
            "playerTrialScore": 0,
            "oppTrialScore": -1,
            "playerTotalScore": -6,
            "oppTotalScore": -7,
            "waitTime": 2506.692910541891,
            "responseTime": 1678835139406,
            "catchQuestion": "How many <b class=\"r\">red<\/b> marbles did your opponent report drawing? ",
            "catchKey": -1,
            "catchResponse": -1,
            "catchTime": 1678835065015,
            "trialTime": 0
        },
        {
            "exptPart": "trial",
            "trialNumber": 15,
            "roleCurrent": "receiver",
            "marblesSampled": 100,
            "probRed": 0.5,
            "lambda": 5,
            "drawnRed": 40,
            "reportedRed": 34,
            "inferredRed": 33,
            "playerTrialScore": -7,
            "oppTrialScore": 7,
            "playerTotalScore": -13,
            "oppTotalScore": 0,
            "waitTime": 5262.272816373633,
            "responseTime": 1678835152202,
            "catchQuestion": "How many <b class=\"r\">red<\/b> marbles did your opponent report drawing? ",
            "catchKey": -1,
            "catchResponse": -1,
            "catchTime": 1678835152202,
            "trialTime": 0
        },
        {
            "exptPart": "trial",
            "trialNumber": 16,
            "roleCurrent": "sender",
            "marblesSampled": 100,
            "probRed": 0.5,
            "lambda": 5,
            "drawnRed": 58,
            "reportedRed": 41,
            "inferredRed": 46,
            "playerTrialScore": 12,
            "oppTrialScore": -12,
            "playerTotalScore": -1,
            "oppTotalScore": -12,
            "waitTime": 2784.3529482979147,
            "responseTime": 1678835180495,
            "catchQuestion": "How many <b class=\"r\">red<\/b> marbles did your opponent report drawing? ",
            "catchKey": -1,
            "catchResponse": -1,
            "catchTime": 1678835152202,
            "trialTime": 0
        },
        {
            "exptPart": "trial",
            "trialNumber": 17,
            "roleCurrent": "receiver",
            "marblesSampled": 100,
            "probRed": 0.5,
            "lambda": 5,
            "drawnRed": 51,
            "reportedRed": 46,
            "inferredRed": 48,
            "playerTrialScore": -3,
            "oppTrialScore": 3,
            "playerTotalScore": -4,
            "oppTotalScore": -9,
            "waitTime": 6838.1455653757,
            "responseTime": 1678835191675,
            "catchQuestion": "How many <b class=\"r\">red<\/b> marbles did your opponent report drawing? ",
            "catchKey": -1,
            "catchResponse": -1,
            "catchTime": 1678835152202,
            "trialTime": 0
        },
        {
            "exptPart": "trial",
            "trialNumber": 18,
            "roleCurrent": "sender",
            "marblesSampled": 100,
            "probRed": 0.5,
            "lambda": 5,
            "drawnRed": 34,
            "reportedRed": 28,
            "inferredRed": 35,
            "playerTrialScore": 0,
            "oppTrialScore": -1,
            "playerTotalScore": -4,
            "oppTotalScore": -10,
            "waitTime": 2101.1511060449584,
            "responseTime": 1678835205141,
            "catchQuestion": "How many <b class=\"r\">red<\/b> marbles did your opponent report drawing? ",
            "catchKey": -1,
            "catchResponse": -1,
            "catchTime": 1678835152202,
            "trialTime": 0
        },
        {
            "exptPart": "trial",
            "trialNumber": 19,
            "roleCurrent": "receiver",
            "marblesSampled": 100,
            "probRed": 0.5,
            "lambda": 5,
            "drawnRed": 79,
            "reportedRed": 76,
            "inferredRed": 80,
            "playerTrialScore": -1,
            "oppTrialScore": 0,
            "playerTotalScore": -5,
            "oppTotalScore": -10,
            "waitTime": 5570.989279261555,
            "responseTime": 1678835217164,
            "catchQuestion": "How many <b class=\"r\">red<\/b> marbles did your opponent report drawing? ",
            "catchKey": -1,
            "catchResponse": -1,
            "catchTime": 1678835152202,
            "trialTime": 0
        },
        {
            "exptPart": "trial",
            "trialNumber": 20,
            "roleCurrent": "sender",
            "marblesSampled": 100,
            "probRed": 0.5,
            "lambda": 5,
            "drawnRed": 38,
            "reportedRed": 25,
            "inferredRed": 29,
            "playerTrialScore": 9,
            "oppTrialScore": -9,
            "playerTotalScore": 4,
            "oppTotalScore": -19,
            "waitTime": 2134.2701067475773,
            "responseTime": 1678835235231,
            "catchQuestion": "How many <b class=\"r\">red<\/b> marbles did your opponent report drawing? ",
            "catchKey": -1,
            "catchResponse": -1,
            "catchTime": 1678835235231,
            "trialTime": 0
        },
        {
            "exptPart": "trial",
            "trialNumber": 21,
            "roleCurrent": "receiver",
            "marblesSampled": 100,
            "probRed": 0.5,
            "lambda": 5,
            "drawnRed": 64,
            "reportedRed": 59,
            "inferredRed": 62,
            "playerTrialScore": -2,
            "oppTrialScore": 2,
            "playerTotalScore": 2,
            "oppTotalScore": -17,
            "waitTime": 6150.134886045378,
            "responseTime": 1678835248036,
            "catchQuestion": "How many <b class=\"r\">red<\/b> marbles did your opponent report drawing? ",
            "catchKey": -1,
            "catchResponse": -1,
            "catchTime": 1678835235231,
            "trialTime": 0
        },
        {
            "exptPart": "trial",
            "trialNumber": 22,
            "roleCurrent": "sender",
            "marblesSampled": 100,
            "probRed": 0.5,
            "lambda": 5,
            "drawnRed": 21,
            "reportedRed": 11,
            "inferredRed": 19,
            "playerTrialScore": 2,
            "oppTrialScore": -2,
            "playerTotalScore": 4,
            "oppTotalScore": -19,
            "waitTime": 2671.1630141874252,
            "responseTime": 1678835264436,
            "catchQuestion": "How many <b class=\"r\">red<\/b> marbles did your opponent report drawing? ",
            "catchKey": -1,
            "catchResponse": -1,
            "catchTime": 1678835235231,
            "trialTime": 0
        },
        {
            "exptPart": "trial",
            "trialNumber": 23,
            "roleCurrent": "receiver",
            "marblesSampled": 100,
            "probRed": 0.5,
            "lambda": 5,
            "drawnRed": 15,
            "reportedRed": 15,
            "inferredRed": 19,
            "playerTrialScore": -4,
            "oppTrialScore": 0,
            "playerTotalScore": 0,
            "oppTotalScore": -19,
            "waitTime": 6639.959728927883,
            "responseTime": 1678835278635,
            "catchQuestion": "How many <b class=\"r\">red<\/b> marbles did your opponent report drawing? ",
            "catchKey": -1,
            "catchResponse": -1,
            "catchTime": 1678835235231,
            "trialTime": 0
        },
        {
            "exptPart": "trial",
            "trialNumber": 24,
            "roleCurrent": "sender",
            "marblesSampled": 100,
            "probRed": 0.5,
            "lambda": 5,
            "drawnRed": 48,
            "reportedRed": 40,
            "inferredRed": 51,
            "playerTrialScore": 0,
            "oppTrialScore": -3,
            "playerTotalScore": 0,
            "oppTotalScore": -22,
            "waitTime": 2140.93670246986,
            "responseTime": 1678835292448,
            "catchQuestion": "How many <b class=\"r\">red<\/b> marbles did your opponent report drawing? ",
            "catchKey": -1,
            "catchResponse": -1,
            "catchTime": 1678835235231,
            "trialTime": 0
        },
        {
            "exptPart": "trial",
            "trialNumber": 25,
            "roleCurrent": "receiver",
            "marblesSampled": 100,
            "probRed": 0.5,
            "lambda": 5,
            "drawnRed": 33,
            "reportedRed": 27,
            "inferredRed": 31,
            "playerTrialScore": -2,
            "oppTrialScore": 2,
            "playerTotalScore": -2,
            "oppTotalScore": -20,
            "waitTime": 6104.0841978470435,
            "responseTime": 1678835302514,
            "catchQuestion": "How many <b class=\"r\">red<\/b> marbles did your opponent report drawing? ",
            "catchKey": -1,
            "catchResponse": -1,
            "catchTime": 1678835302515,
            "trialTime": 0
        },
        {
            "exptPart": "trial",
            "trialNumber": 26,
            "roleCurrent": "sender",
            "marblesSampled": 100,
            "probRed": 0.5,
            "lambda": 5,
            "drawnRed": 50,
            "reportedRed": 33,
            "inferredRed": 40,
            "playerTrialScore": 10,
            "oppTrialScore": -10,
            "playerTotalScore": 8,
            "oppTotalScore": -30,
            "waitTime": 3020.1823390465333,
            "responseTime": 1678835328049,
            "catchQuestion": "How many <b class=\"r\">red<\/b> marbles did your opponent report drawing? ",
            "catchKey": -1,
            "catchResponse": -1,
            "catchTime": 1678835302515,
            "trialTime": 0
        },
        {
            "exptPart": "trial",
            "trialNumber": 27,
            "roleCurrent": "receiver",
            "marblesSampled": 100,
            "probRed": 0.5,
            "lambda": 5,
            "drawnRed": 34,
            "reportedRed": 31,
            "inferredRed": 36,
            "playerTrialScore": -2,
            "oppTrialScore": 0,
            "playerTotalScore": 6,
            "oppTotalScore": -30,
            "waitTime": 5452.9893677841,
            "responseTime": 1678835337480,
            "catchQuestion": "How many <b class=\"r\">red<\/b> marbles did your opponent report drawing? ",
            "catchKey": 31,
            "catchResponse": 31,
            "catchTime": 1678835337480,
            "trialTime": 0
        },
        {
            "exptPart": "trial",
            "trialNumber": 28,
            "roleCurrent": "sender",
            "marblesSampled": 100,
            "probRed": 0.5,
            "lambda": 5,
            "drawnRed": 10,
            "reportedRed": 5,
            "inferredRed": 9,
            "playerTrialScore": 1,
            "oppTrialScore": -1,
            "playerTotalScore": 7,
            "oppTotalScore": -31,
            "waitTime": 3126.9908185467766,
            "responseTime": 1678835364114,
            "catchQuestion": "How many <b class=\"r\">red<\/b> marbles did you actually draw (before any changes)? ",
            "catchKey": 10,
            "catchResponse": 10,
            "catchTime": 1678835364114,
            "trialTime": 0
        },
        {
            "exptPart": "trial",
            "trialNumber": 29,
            "roleCurrent": "receiver",
            "marblesSampled": 100,
            "probRed": 0.5,
            "lambda": 5,
            "drawnRed": 83,
            "reportedRed": 78,
            "inferredRed": 82,
            "playerTrialScore": -1,
            "oppTrialScore": 1,
            "playerTotalScore": 6,
            "oppTotalScore": -30,
            "waitTime": 6533.4765178197595,
            "responseTime": 1678835381746,
            "catchQuestion": "How many <b class=\"r\">red<\/b> marbles did you actually draw (before any changes)? ",
            "catchKey": -1,
            "catchResponse": -1,
            "catchTime": 1678835364114,
            "trialTime": 0
        },
        {
            "exptPart": "trial",
            "trialNumber": 30,
            "roleCurrent": "sender",
            "marblesSampled": 100,
            "probRed": 0.5,
            "lambda": 5,
            "drawnRed": 48,
            "reportedRed": 35,
            "inferredRed": 45,
            "playerTrialScore": 3,
            "oppTrialScore": -3,
            "playerTotalScore": 9,
            "oppTotalScore": -33,
            "waitTime": 2572.546855504006,
            "responseTime": 1678835399945,
            "catchQuestion": "How many <b class=\"r\">red<\/b> marbles did you actually draw (before any changes)? ",
            "catchKey": -1,
            "catchResponse": -1,
            "catchTime": 1678835399945,
            "trialTime": 0
        },
        {
            "exptPart": "trial",
            "trialNumber": 31,
            "roleCurrent": "receiver",
            "marblesSampled": 100,
            "probRed": 0.5,
            "lambda": 5,
            "drawnRed": 69,
            "reportedRed": 64,
            "inferredRed": 69,
            "playerTrialScore": 0,
            "oppTrialScore": 0,
            "playerTotalScore": 9,
            "oppTotalScore": -33,
            "waitTime": 7396.436580465792,
            "responseTime": 1678835416863,
            "catchQuestion": "How many <b class=\"r\">red<\/b> marbles did you actually draw (before any changes)? ",
            "catchKey": -1,
            "catchResponse": -1,
            "catchTime": 1678835399945,
            "trialTime": 0
        },
        {
            "exptPart": "trial",
            "trialNumber": 32,
            "roleCurrent": "sender",
            "marblesSampled": 100,
            "probRed": 0.5,
            "lambda": 5,
            "drawnRed": 47,
            "reportedRed": 33,
            "inferredRed": 37,
            "playerTrialScore": 10,
            "oppTrialScore": -10,
            "playerTotalScore": 19,
            "oppTotalScore": -43,
            "waitTime": 2555.9679119304833,
            "responseTime": 1678835434029,
            "catchQuestion": "How many <b class=\"r\">red<\/b> marbles did you actually draw (before any changes)? ",
            "catchKey": -1,
            "catchResponse": -1,
            "catchTime": 1678835399945,
            "trialTime": 0
        },
        {
            "exptPart": "trial",
            "trialNumber": 33,
            "roleCurrent": "receiver",
            "marblesSampled": 100,
            "probRed": 0.5,
            "lambda": 5,
            "drawnRed": 90,
            "reportedRed": 85,
            "inferredRed": 90,
            "playerTrialScore": 0,
            "oppTrialScore": 0,
            "playerTotalScore": 19,
            "oppTotalScore": -43,
            "waitTime": 6783.367398264629,
            "responseTime": 1678835445679,
            "catchQuestion": "How many <b class=\"r\">red<\/b> marbles did you actually draw (before any changes)? ",
            "catchKey": -1,
            "catchResponse": -1,
            "catchTime": 1678835399945,
            "trialTime": 0
        },
        {
            "exptPart": "trial",
            "trialNumber": 34,
            "roleCurrent": "sender",
            "marblesSampled": 100,
            "probRed": 0.5,
            "lambda": 5,
            "drawnRed": 48,
            "reportedRed": 34,
            "inferredRed": 41,
            "playerTrialScore": 7,
            "oppTrialScore": -7,
            "playerTotalScore": 26,
            "oppTotalScore": -50,
            "waitTime": 2184.6002574792774,
            "responseTime": 1678835465112,
            "catchQuestion": "How many <b class=\"r\">red<\/b> marbles did you actually draw (before any changes)? ",
            "catchKey": -1,
            "catchResponse": -1,
            "catchTime": 1678835399945,
            "trialTime": 0
        },
        {
            "exptPart": "trial",
            "trialNumber": 35,
            "roleCurrent": "receiver",
            "marblesSampled": 100,
            "probRed": 0.5,
            "lambda": 5,
            "drawnRed": 21,
            "reportedRed": 19,
            "inferredRed": 24,
            "playerTrialScore": -3,
            "oppTrialScore": 0,
            "playerTotalScore": 23,
            "oppTotalScore": -50,
            "waitTime": 6632.282767989334,
            "responseTime": 1678835478279,
            "catchQuestion": "How many <b class=\"r\">red<\/b> marbles did you actually draw (before any changes)? ",
            "catchKey": -1,
            "catchResponse": -1,
            "catchTime": 1678835478279,
            "trialTime": 0
        },
        {
            "exptPart": "trial",
            "trialNumber": 36,
            "roleCurrent": "sender",
            "marblesSampled": 100,
            "probRed": 0.5,
            "lambda": 5,
            "drawnRed": 56,
            "reportedRed": 40,
            "inferredRed": 46,
            "playerTrialScore": 10,
            "oppTrialScore": -10,
            "playerTotalScore": 33,
            "oppTotalScore": -60,
            "waitTime": 2633.5675360944933,
            "responseTime": 1678835522844,
            "catchQuestion": "How many <b class=\"r\">red<\/b> marbles did you actually draw (before any changes)? ",
            "catchKey": -1,
            "catchResponse": -1,
            "catchTime": 1678835478279,
            "trialTime": 0
        },
        {
            "exptPart": "trial",
            "trialNumber": 37,
            "roleCurrent": "receiver",
            "marblesSampled": 100,
            "probRed": 0.5,
            "lambda": 5,
            "drawnRed": 41,
            "reportedRed": 37,
            "inferredRed": 41,
            "playerTrialScore": 0,
            "oppTrialScore": 0,
            "playerTotalScore": 33,
            "oppTotalScore": -60,
            "waitTime": 5713.186738634966,
            "responseTime": 1678835531844,
            "catchQuestion": "How many <b class=\"r\">red<\/b> marbles did you actually draw (before any changes)? ",
            "catchKey": -1,
            "catchResponse": -1,
            "catchTime": 1678835478279,
            "trialTime": 0
        },
        {
            "exptPart": "trial",
            "trialNumber": 38,
            "roleCurrent": "sender",
            "marblesSampled": 100,
            "probRed": 0.5,
            "lambda": 5,
            "drawnRed": 84,
            "reportedRed": 60,
            "inferredRed": 67,
            "playerTrialScore": 17,
            "oppTrialScore": -17,
            "playerTotalScore": 50,
            "oppTotalScore": -77,
            "waitTime": 2614.3697458673446,
            "responseTime": 1678835552044,
            "catchQuestion": "How many <b class=\"r\">red<\/b> marbles did you actually draw (before any changes)? ",
            "catchKey": -1,
            "catchResponse": -1,
            "catchTime": 1678835478279,
            "trialTime": 0
        },
        {
            "exptPart": "trial",
            "trialNumber": 39,
            "roleCurrent": "receiver",
            "marblesSampled": 100,
            "probRed": 0.5,
            "lambda": 5,
            "drawnRed": 57,
            "reportedRed": 50,
            "inferredRed": 54,
            "playerTrialScore": -3,
            "oppTrialScore": 3,
            "playerTotalScore": 47,
            "oppTotalScore": -74,
            "waitTime": 5787.9081531119045,
            "responseTime": 1678835562692,
            "catchQuestion": "How many <b class=\"r\">red<\/b> marbles did your opponent report drawing? ",
            "catchKey": 50,
            "catchResponse": 50,
            "catchTime": 1678835562692,
            "trialTime": 0
        },
        {
            "exptPart": "trial",
            "trialNumber": 40,
            "roleCurrent": "sender",
            "marblesSampled": 100,
            "probRed": 0.5,
            "lambda": 5,
            "drawnRed": 79,
            "reportedRed": 63,
            "inferredRed": 72,
            "playerTrialScore": 7,
            "oppTrialScore": -7,
            "playerTotalScore": 54,
            "oppTotalScore": -81,
            "waitTime": 2188.5883464784138,
            "responseTime": 1678835589293,
            "catchQuestion": "How many <b class=\"r\">red<\/b> marbles did your opponent report drawing? ",
            "catchKey": -1,
            "catchResponse": -1,
            "catchTime": 1678835589294,
            "trialTime": 0
        },
        {
            "exptPart": "trial",
            "trialNumber": 41,
            "roleCurrent": "receiver",
            "marblesSampled": 100,
            "probRed": 0.5,
            "lambda": 5,
            "drawnRed": 17,
            "reportedRed": 14,
            "inferredRed": 19,
            "playerTrialScore": -2,
            "oppTrialScore": 0,
            "playerTotalScore": 52,
            "oppTotalScore": -81,
            "waitTime": 5504.941174517417,
            "responseTime": 1678835603275,
            "catchQuestion": "How many <b class=\"r\">red<\/b> marbles did your opponent report drawing? ",
            "catchKey": -1,
            "catchResponse": -1,
            "catchTime": 1678835589294,
            "trialTime": 0
        },
        {
            "exptPart": "trial",
            "trialNumber": 42,
            "roleCurrent": "sender",
            "marblesSampled": 100,
            "probRed": 0.5,
            "lambda": 5,
            "drawnRed": 66,
            "reportedRed": 51,
            "inferredRed": 63,
            "playerTrialScore": 3,
            "oppTrialScore": -3,
            "playerTotalScore": 55,
            "oppTotalScore": -84,
            "waitTime": 2157.8694940317546,
            "responseTime": 1678835619675,
            "catchQuestion": "How many <b class=\"r\">red<\/b> marbles did your opponent report drawing? ",
            "catchKey": -1,
            "catchResponse": -1,
            "catchTime": 1678835589294,
            "trialTime": 0
        },
        {
            "exptPart": "trial",
            "trialNumber": 43,
            "roleCurrent": "receiver",
            "marblesSampled": 100,
            "probRed": 0.5,
            "lambda": 5,
            "drawnRed": 65,
            "reportedRed": 58,
            "inferredRed": 64,
            "playerTrialScore": -1,
            "oppTrialScore": 1,
            "playerTotalScore": 54,
            "oppTotalScore": -83,
            "waitTime": 5794.247089517336,
            "responseTime": 1678835629524,
            "catchQuestion": "How many <b class=\"r\">red<\/b> marbles did your opponent report drawing? ",
            "catchKey": -1,
            "catchResponse": -1,
            "catchTime": 1678835589294,
            "trialTime": 0
        },
        {
            "exptPart": "trial",
            "trialNumber": 44,
            "roleCurrent": "sender",
            "marblesSampled": 100,
            "probRed": 0.5,
            "lambda": 5,
            "drawnRed": 59,
            "reportedRed": 40,
            "inferredRed": 47,
            "playerTrialScore": 12,
            "oppTrialScore": -12,
            "playerTotalScore": 66,
            "oppTotalScore": -95,
            "waitTime": 2520.376658261889,
            "responseTime": 1678835653540,
            "catchQuestion": "How many <b class=\"r\">red<\/b> marbles did your opponent report drawing? ",
            "catchKey": -1,
            "catchResponse": -1,
            "catchTime": 1678835589294,
            "trialTime": 0
        },
        {
            "exptPart": "trial",
            "trialNumber": 45,
            "roleCurrent": "receiver",
            "marblesSampled": 100,
            "probRed": 0.5,
            "lambda": 5,
            "drawnRed": 10,
            "reportedRed": 4,
            "inferredRed": 9,
            "playerTrialScore": -1,
            "oppTrialScore": 1,
            "playerTotalScore": 65,
            "oppTotalScore": -94,
            "waitTime": 5370.640130920698,
            "responseTime": 1678835662509,
            "catchQuestion": "How many <b class=\"r\">red<\/b> marbles did your opponent report drawing? ",
            "catchKey": -1,
            "catchResponse": -1,
            "catchTime": 1678835662509,
            "trialTime": 0
        },
        {
            "exptPart": "trial",
            "trialNumber": 46,
            "roleCurrent": "sender",
            "marblesSampled": 100,
            "probRed": 0.5,
            "lambda": 5,
            "drawnRed": 68,
            "reportedRed": 47,
            "inferredRed": 50,
            "playerTrialScore": 18,
            "oppTrialScore": -18,
            "playerTotalScore": 83,
            "oppTotalScore": -112,
            "waitTime": 2305.4394472939903,
            "responseTime": 1678835685374,
            "catchQuestion": "How many <b class=\"r\">red<\/b> marbles did you actually draw (before any changes)? ",
            "catchKey": 68,
            "catchResponse": 68,
            "catchTime": 1678835685374,
            "trialTime": 0
        },
        {
            "exptPart": "trial",
            "trialNumber": 47,
            "roleCurrent": "receiver",
            "marblesSampled": 100,
            "probRed": 0.5,
            "lambda": 5,
            "drawnRed": 74,
            "reportedRed": 66,
            "inferredRed": 71,
            "playerTrialScore": -3,
            "oppTrialScore": 3,
            "playerTotalScore": 80,
            "oppTotalScore": -109,
            "waitTime": 6344.314215598958,
            "responseTime": 1678835703490,
            "catchQuestion": "How many <b class=\"r\">red<\/b> marbles did you actually draw (before any changes)? ",
            "catchKey": -1,
            "catchResponse": -1,
            "catchTime": 1678835685374,
            "trialTime": 0
        },
        {
            "exptPart": "trial",
            "trialNumber": 48,
            "roleCurrent": "sender",
            "marblesSampled": 100,
            "probRed": 0.5,
            "lambda": 5,
            "drawnRed": 41,
            "reportedRed": 28,
            "inferredRed": 33,
            "playerTrialScore": 8,
            "oppTrialScore": -8,
            "playerTotalScore": 88,
            "oppTotalScore": -117,
            "waitTime": 2883.5332610632768,
            "responseTime": 1678835722657,
            "catchQuestion": "How many <b class=\"r\">red<\/b> marbles did you actually draw (before any changes)? ",
            "catchKey": -1,
            "catchResponse": -1,
            "catchTime": 1678835685374,
            "trialTime": 0
        },
        {
            "exptPart": "trial",
            "trialNumber": 49,
            "roleCurrent": "receiver",
            "marblesSampled": 100,
            "probRed": 0.5,
            "lambda": 5,
            "drawnRed": 47,
            "reportedRed": 36,
            "inferredRed": 40,
            "playerTrialScore": -7,
            "oppTrialScore": 7,
            "playerTotalScore": 81,
            "oppTotalScore": -110,
            "waitTime": 6317.322136486289,
            "responseTime": 1678835733073,
            "catchQuestion": "How many <b class=\"r\">red<\/b> marbles did you actually draw (before any changes)? ",
            "catchKey": -1,
            "catchResponse": -1,
            "catchTime": 1678835685374,
            "trialTime": 0
        },
        {
            "exptPart": "trial",
            "trialNumber": 50,
            "roleCurrent": "sender",
            "marblesSampled": 100,
            "probRed": 0.5,
            "lambda": 5,
            "drawnRed": 30,
            "reportedRed": 14,
            "inferredRed": 21,
            "playerTrialScore": 9,
            "oppTrialScore": -9,
            "playerTotalScore": 90,
            "oppTotalScore": -119,
            "waitTime": 2184.8249778768886,
            "responseTime": 1678835759589,
            "catchQuestion": "How many <b class=\"r\">red<\/b> marbles did you actually draw (before any changes)? ",
            "catchKey": -1,
            "catchResponse": -1,
            "catchTime": 1678835759589,
            "trialTime": 0
        },
        {
            "exptPart": "trial",
            "trialNumber": 51,
            "roleCurrent": "receiver",
            "marblesSampled": 100,
            "probRed": 0.5,
            "lambda": 5,
            "drawnRed": 48,
            "reportedRed": 46,
            "inferredRed": 50,
            "playerTrialScore": -2,
            "oppTrialScore": 0,
            "playerTotalScore": 88,
            "oppTotalScore": -119,
            "waitTime": 6422.176535374594,
            "responseTime": 1678835769855,
            "catchQuestion": "How many <b class=\"r\">red<\/b> marbles did you actually draw (before any changes)? ",
            "catchKey": -1,
            "catchResponse": -1,
            "catchTime": 1678835759589,
            "trialTime": 0
        },
        {
            "exptPart": "trial",
            "trialNumber": 52,
            "roleCurrent": "sender",
            "marblesSampled": 100,
            "probRed": 0.5,
            "lambda": 5,
            "drawnRed": 68,
            "reportedRed": 50,
            "inferredRed": 55,
            "playerTrialScore": 13,
            "oppTrialScore": -13,
            "playerTotalScore": 101,
            "oppTotalScore": -132,
            "waitTime": 2877.449422607302,
            "responseTime": 1678835794588,
            "catchQuestion": "How many <b class=\"r\">red<\/b> marbles did you actually draw (before any changes)? ",
            "catchKey": -1,
            "catchResponse": -1,
            "catchTime": 1678835759589,
            "trialTime": 0
        },
        {
            "exptPart": "trial",
            "trialNumber": 53,
            "roleCurrent": "receiver",
            "marblesSampled": 100,
            "probRed": 0.5,
            "lambda": 5,
            "drawnRed": 46,
            "reportedRed": 40,
            "inferredRed": 44,
            "playerTrialScore": -2,
            "oppTrialScore": 2,
            "playerTotalScore": 99,
            "oppTotalScore": -130,
            "waitTime": 5679.009555066128,
            "responseTime": 1678835805887,
            "catchQuestion": "How many <b class=\"r\">red<\/b> marbles did you actually draw (before any changes)? ",
            "catchKey": -1,
            "catchResponse": -1,
            "catchTime": 1678835759589,
            "trialTime": 0
        },
        {
            "exptPart": "trial",
            "trialNumber": 54,
            "roleCurrent": "sender",
            "marblesSampled": 100,
            "probRed": 0.5,
            "lambda": 5,
            "drawnRed": 35,
            "reportedRed": 24,
            "inferredRed": 24,
            "playerTrialScore": 11,
            "oppTrialScore": -11,
            "playerTotalScore": 110,
            "oppTotalScore": -141,
            "waitTime": 2524.857166088922,
            "responseTime": 1678835829121,
            "catchQuestion": "How many <b class=\"r\">red<\/b> marbles did you actually draw (before any changes)? ",
            "catchKey": -1,
            "catchResponse": -1,
            "catchTime": 1678835759589,
            "trialTime": 0
        },
        {
            "exptPart": "trial",
            "trialNumber": 55,
            "roleCurrent": "receiver",
            "marblesSampled": 100,
            "probRed": 0.5,
            "lambda": 5,
            "drawnRed": 29,
            "reportedRed": 24,
            "inferredRed": 29,
            "playerTrialScore": 0,
            "oppTrialScore": 0,
            "playerTotalScore": 110,
            "oppTotalScore": -141,
            "waitTime": 5403.75148037094,
            "responseTime": 1678835838604,
            "catchQuestion": "How many <b class=\"r\">red<\/b> marbles did you actually draw (before any changes)? ",
            "catchKey": -1,
            "catchResponse": -1,
            "catchTime": 1678835838604,
            "trialTime": 0
        },
        {
            "exptPart": "trial",
            "trialNumber": 56,
            "roleCurrent": "sender",
            "marblesSampled": 100,
            "probRed": 0.5,
            "lambda": 5,
            "drawnRed": 82,
            "reportedRed": 63,
            "inferredRed": 70,
            "playerTrialScore": 12,
            "oppTrialScore": -12,
            "playerTotalScore": 122,
            "oppTotalScore": -153,
            "waitTime": 2628.124885901938,
            "responseTime": 1678835864018,
            "catchQuestion": "How many <b class=\"r\">red<\/b> marbles did you actually draw (before any changes)? ",
            "catchKey": -1,
            "catchResponse": -1,
            "catchTime": 1678835838604,
            "trialTime": 0
        },
        {
            "exptPart": "trial",
            "trialNumber": 57,
            "roleCurrent": "receiver",
            "marblesSampled": 100,
            "probRed": 0.5,
            "lambda": 5,
            "drawnRed": 54,
            "reportedRed": 48,
            "inferredRed": 50,
            "playerTrialScore": -4,
            "oppTrialScore": 4,
            "playerTotalScore": 118,
            "oppTotalScore": -149,
            "waitTime": 5566.815931602849,
            "responseTime": 1678835873519,
            "catchQuestion": "How many <b class=\"r\">red<\/b> marbles did you actually draw (before any changes)? ",
            "catchKey": -1,
            "catchResponse": -1,
            "catchTime": 1678835838604,
            "trialTime": 0
        },
        {
            "exptPart": "trial",
            "trialNumber": 58,
            "roleCurrent": "sender",
            "marblesSampled": 100,
            "probRed": 0.5,
            "lambda": 5,
            "drawnRed": 30,
            "reportedRed": 17,
            "inferredRed": 22,
            "playerTrialScore": 8,
            "oppTrialScore": -8,
            "playerTotalScore": 126,
            "oppTotalScore": -157,
            "waitTime": 2327.068654144957,
            "responseTime": 1678835893652,
            "catchQuestion": "How many <b class=\"r\">red<\/b> marbles did you actually draw (before any changes)? ",
            "catchKey": 30,
            "catchResponse": 30,
            "catchTime": 1678835893652,
            "trialTime": 0
        },
        {
            "exptPart": "trial",
            "trialNumber": 59,
            "roleCurrent": "receiver",
            "marblesSampled": 100,
            "probRed": 0.5,
            "lambda": 5,
            "drawnRed": 29,
            "reportedRed": 20,
            "inferredRed": 26,
            "playerTrialScore": -3,
            "oppTrialScore": 3,
            "playerTotalScore": 123,
            "oppTotalScore": -154,
            "waitTime": 5317.881953020802,
            "responseTime": 1678835908368,
            "catchQuestion": "How many <b class=\"r\">red<\/b> marbles did you actually draw (before any changes)? ",
            "catchKey": -1,
            "catchResponse": -1,
            "catchTime": 1678835893652,
            "trialTime": 0
        },
        {
            "exptPart": "trial",
            "trialNumber": 60,
            "roleCurrent": "sender",
            "marblesSampled": 100,
            "probRed": 0.5,
            "lambda": 5,
            "drawnRed": 66,
            "reportedRed": 51,
            "inferredRed": 57,
            "playerTrialScore": 9,
            "oppTrialScore": -9,
            "playerTotalScore": 132,
            "oppTotalScore": -163,
            "waitTime": 2677.995648786966,
            "responseTime": 1678835930838,
            "catchQuestion": "How many <b class=\"r\">red<\/b> marbles did you actually draw (before any changes)? ",
            "catchKey": -1,
            "catchResponse": -1,
            "catchTime": 1678835930838,
            "trialTime": 0
        },
        {
            "exptPart": "trial",
            "trialNumber": 61,
            "roleCurrent": "receiver",
            "marblesSampled": 100,
            "probRed": 0.5,
            "lambda": 5,
            "drawnRed": 25,
            "reportedRed": 23,
            "inferredRed": 26,
            "playerTrialScore": -1,
            "oppTrialScore": 0,
            "playerTotalScore": 131,
            "oppTotalScore": -163,
            "waitTime": 6795.542347849847,
            "responseTime": 1678835943550,
            "catchQuestion": "How many <b class=\"r\">red<\/b> marbles did you actually draw (before any changes)? ",
            "catchKey": -1,
            "catchResponse": -1,
            "catchTime": 1678835930838,
            "trialTime": 0
        },
        {
            "exptPart": "trial",
            "trialNumber": 62,
            "roleCurrent": "sender",
            "marblesSampled": 100,
            "probRed": 0.5,
            "lambda": 5,
            "drawnRed": 75,
            "reportedRed": 55,
            "inferredRed": 60,
            "playerTrialScore": 15,
            "oppTrialScore": -15,
            "playerTotalScore": 146,
            "oppTotalScore": -178,
            "waitTime": 2129.7469111057553,
            "responseTime": 1678835965333,
            "catchQuestion": "How many <b class=\"r\">red<\/b> marbles did you actually draw (before any changes)? ",
            "catchKey": -1,
            "catchResponse": -1,
            "catchTime": 1678835930838,
            "trialTime": 0
        },
        {
            "exptPart": "trial",
            "trialNumber": 63,
            "roleCurrent": "receiver",
            "marblesSampled": 100,
            "probRed": 0.5,
            "lambda": 5,
            "drawnRed": 44,
            "reportedRed": 41,
            "inferredRed": 45,
            "playerTrialScore": -1,
            "oppTrialScore": 0,
            "playerTotalScore": 145,
            "oppTotalScore": -178,
            "waitTime": 5695.458294723979,
            "responseTime": 1678835974917,
            "catchQuestion": "How many <b class=\"r\">red<\/b> marbles did your opponent report drawing? ",
            "catchKey": 41,
            "catchResponse": 41,
            "catchTime": 1678835974917,
            "trialTime": 0
        },
        {
            "exptPart": "trial",
            "trialNumber": 64,
            "roleCurrent": "sender",
            "marblesSampled": 100,
            "probRed": 0.5,
            "lambda": 5,
            "drawnRed": 38,
            "reportedRed": 28,
            "inferredRed": 32,
            "playerTrialScore": 6,
            "oppTrialScore": -6,
            "playerTotalScore": 151,
            "oppTotalScore": -184,
            "waitTime": 3000.10417665225,
            "responseTime": 1678836001467,
            "catchQuestion": "How many <b class=\"r\">red<\/b> marbles did your opponent report drawing? ",
            "catchKey": -1,
            "catchResponse": -1,
            "catchTime": 1678835974917,
            "trialTime": 0
        },
        {
            "exptPart": "trial",
            "trialNumber": 65,
            "roleCurrent": "receiver",
            "marblesSampled": 100,
            "probRed": 0.5,
            "lambda": 5,
            "drawnRed": 48,
            "reportedRed": 42,
            "inferredRed": 46,
            "playerTrialScore": -2,
            "oppTrialScore": 2,
            "playerTotalScore": 149,
            "oppTotalScore": -182,
            "waitTime": 5224.432026651886,
            "responseTime": 1678836010132,
            "catchQuestion": "How many <b class=\"r\">red<\/b> marbles did your opponent report drawing? ",
            "catchKey": -1,
            "catchResponse": -1,
            "catchTime": 1678836010132,
            "trialTime": 0
        },
        {
            "exptPart": "trial",
            "trialNumber": 66,
            "roleCurrent": "sender",
            "marblesSampled": 100,
            "probRed": 0.5,
            "lambda": 5,
            "drawnRed": 27,
            "reportedRed": 15,
            "inferredRed": 20,
            "playerTrialScore": 7,
            "oppTrialScore": -7,
            "playerTotalScore": 156,
            "oppTotalScore": -189,
            "waitTime": 2152.4738235490213,
            "responseTime": 1678836028915,
            "catchQuestion": "How many <b class=\"r\">red<\/b> marbles did your opponent report drawing? ",
            "catchKey": -1,
            "catchResponse": -1,
            "catchTime": 1678836010132,
            "trialTime": 0
        },
        {
            "exptPart": "trial",
            "trialNumber": 67,
            "roleCurrent": "receiver",
            "marblesSampled": 100,
            "probRed": 0.5,
            "lambda": 5,
            "drawnRed": 65,
            "reportedRed": 60,
            "inferredRed": 66,
            "playerTrialScore": -1,
            "oppTrialScore": 0,
            "playerTotalScore": 155,
            "oppTotalScore": -189,
            "waitTime": 7358.304740610833,
            "responseTime": 1678836040631,
            "catchQuestion": "How many <b class=\"r\">red<\/b> marbles did your opponent report drawing? ",
            "catchKey": -1,
            "catchResponse": -1,
            "catchTime": 1678836010132,
            "trialTime": 0
        },
        {
            "exptPart": "trial",
            "trialNumber": 68,
            "roleCurrent": "sender",
            "marblesSampled": 100,
            "probRed": 0.5,
            "lambda": 5,
            "drawnRed": 52,
            "reportedRed": 36,
            "inferredRed": 44,
            "playerTrialScore": 8,
            "oppTrialScore": -8,
            "playerTotalScore": 163,
            "oppTotalScore": -197,
            "waitTime": 2139.051182200299,
            "responseTime": 1678836057348,
            "catchQuestion": "How many <b class=\"r\">red<\/b> marbles did your opponent report drawing? ",
            "catchKey": -1,
            "catchResponse": -1,
            "catchTime": 1678836010132,
            "trialTime": 0
        },
        {
            "exptPart": "trial",
            "trialNumber": 69,
            "roleCurrent": "receiver",
            "marblesSampled": 100,
            "probRed": 0.5,
            "lambda": 5,
            "drawnRed": 51,
            "reportedRed": 44,
            "inferredRed": 49,
            "playerTrialScore": -2,
            "oppTrialScore": 2,
            "playerTotalScore": 161,
            "oppTotalScore": -195,
            "waitTime": 7207.876964092245,
            "responseTime": 1678836077948,
            "catchQuestion": "How many <b class=\"r\">red<\/b> marbles did your opponent report drawing? ",
            "catchKey": -1,
            "catchResponse": -1,
            "catchTime": 1678836010132,
            "trialTime": 0
        },
        {
            "exptPart": "trial",
            "trialNumber": 70,
            "roleCurrent": "sender",
            "marblesSampled": 100,
            "probRed": 0.5,
            "lambda": 5,
            "drawnRed": 66,
            "reportedRed": 48,
            "inferredRed": 51,
            "playerTrialScore": 15,
            "oppTrialScore": -15,
            "playerTotalScore": 176,
            "oppTotalScore": -210,
            "waitTime": 2939.9097632850985,
            "responseTime": 1678836103413,
            "catchQuestion": "How many <b class=\"r\">red<\/b> marbles did your opponent report drawing? ",
            "catchKey": -1,
            "catchResponse": -1,
            "catchTime": 1678836103413,
            "trialTime": 0
        },
        {
            "exptPart": "trial",
            "trialNumber": 71,
            "roleCurrent": "receiver",
            "marblesSampled": 100,
            "probRed": 0.5,
            "lambda": 5,
            "drawnRed": 29,
            "reportedRed": 22,
            "inferredRed": 26,
            "playerTrialScore": -3,
            "oppTrialScore": 3,
            "playerTotalScore": 173,
            "oppTotalScore": -207,
            "waitTime": 6284.22460042569,
            "responseTime": 1678836115963,
            "catchQuestion": "How many <b class=\"r\">red<\/b> marbles did your opponent report drawing? ",
            "catchKey": -1,
            "catchResponse": -1,
            "catchTime": 1678836103413,
            "trialTime": 0
        },
        {
            "exptPart": "trial",
            "trialNumber": 72,
            "roleCurrent": "sender",
            "marblesSampled": 100,
            "probRed": 0.5,
            "lambda": 5,
            "drawnRed": 71,
            "reportedRed": 58,
            "inferredRed": 62,
            "playerTrialScore": 9,
            "oppTrialScore": -9,
            "playerTotalScore": 182,
            "oppTotalScore": -216,
            "waitTime": 2808.1327790534015,
            "responseTime": 1678836134414,
            "catchQuestion": "How many <b class=\"r\">red<\/b> marbles did you actually draw (before any changes)? ",
            "catchKey": 71,
            "catchResponse": 71,
            "catchTime": 1678836134414,
            "trialTime": 0
        },
        {
            "exptPart": "trial",
            "trialNumber": 73,
            "roleCurrent": "receiver",
            "marblesSampled": 100,
            "probRed": 0.5,
            "lambda": 5,
            "drawnRed": 35,
            "reportedRed": 31,
            "inferredRed": 35,
            "playerTrialScore": 0,
            "oppTrialScore": 0,
            "playerTotalScore": 182,
            "oppTotalScore": -216,
            "waitTime": 6815.339048927497,
            "responseTime": 1678836150112,
            "catchQuestion": "How many <b class=\"r\">red<\/b> marbles did you actually draw (before any changes)? ",
            "catchKey": -1,
            "catchResponse": -1,
            "catchTime": 1678836134414,
            "trialTime": 0
        },
        {
            "exptPart": "trial",
            "trialNumber": 74,
            "roleCurrent": "sender",
            "marblesSampled": 100,
            "probRed": 0.5,
            "lambda": 5,
            "drawnRed": 65,
            "reportedRed": 46,
            "inferredRed": 51,
            "playerTrialScore": 14,
            "oppTrialScore": -14,
            "playerTotalScore": 196,
            "oppTotalScore": -230,
            "waitTime": 2165.8259616017854,
            "responseTime": 1678836171530,
            "catchQuestion": "How many <b class=\"r\">red<\/b> marbles did you actually draw (before any changes)? ",
            "catchKey": -1,
            "catchResponse": -1,
            "catchTime": 1678836134414,
            "trialTime": 0
        },
        {
            "exptPart": "trial",
            "trialNumber": 75,
            "roleCurrent": "receiver",
            "marblesSampled": 100,
            "probRed": 0.5,
            "lambda": 5,
            "drawnRed": 62,
            "reportedRed": 58,
            "inferredRed": 61,
            "playerTrialScore": -1,
            "oppTrialScore": 1,
            "playerTotalScore": 195,
            "oppTotalScore": -229,
            "waitTime": 6532.967076202045,
            "responseTime": 1678836181895,
            "catchQuestion": "How many <b class=\"r\">red<\/b> marbles did you actually draw (before any changes)? ",
            "catchKey": -1,
            "catchResponse": -1,
            "catchTime": 1678836181895,
            "trialTime": 0
        },
        {
            "exptPart": "trial",
            "trialNumber": 76,
            "roleCurrent": "sender",
            "marblesSampled": 100,
            "probRed": 0.5,
            "lambda": 5,
            "drawnRed": 40,
            "reportedRed": 25,
            "inferredRed": 28,
            "playerTrialScore": 12,
            "oppTrialScore": -12,
            "playerTotalScore": 207,
            "oppTotalScore": -241,
            "waitTime": 2348.9347222899582,
            "responseTime": 1678836202094,
            "catchQuestion": "How many <b class=\"r\">red<\/b> marbles did you actually draw (before any changes)? ",
            "catchKey": -1,
            "catchResponse": -1,
            "catchTime": 1678836181895,
            "trialTime": 0
        },
        {
            "exptPart": "trial",
            "trialNumber": 77,
            "roleCurrent": "receiver",
            "marblesSampled": 100,
            "probRed": 0.5,
            "lambda": 5,
            "drawnRed": 34,
            "reportedRed": 28,
            "inferredRed": 31,
            "playerTrialScore": -3,
            "oppTrialScore": 3,
            "playerTotalScore": 204,
            "oppTotalScore": -238,
            "waitTime": 6866.922412777811,
            "responseTime": 1678836212877,
            "catchQuestion": "How many <b class=\"r\">red<\/b> marbles did you actually draw (before any changes)? ",
            "catchKey": -1,
            "catchResponse": -1,
            "catchTime": 1678836181895,
            "trialTime": 0
        },
        {
            "exptPart": "trial",
            "trialNumber": 78,
            "roleCurrent": "sender",
            "marblesSampled": 100,
            "probRed": 0.5,
            "lambda": 5,
            "drawnRed": 49,
            "reportedRed": 34,
            "inferredRed": 45,
            "playerTrialScore": 4,
            "oppTrialScore": -4,
            "playerTotalScore": 208,
            "oppTotalScore": -242,
            "waitTime": 3152.4846012072803,
            "responseTime": 1678836239077,
            "catchQuestion": "How many <b class=\"r\">red<\/b> marbles did you actually draw (before any changes)? ",
            "catchKey": -1,
            "catchResponse": -1,
            "catchTime": 1678836181895,
            "trialTime": 0
        },
        {
            "exptPart": "trial",
            "trialNumber": 79,
            "roleCurrent": "receiver",
            "marblesSampled": 100,
            "probRed": 0.5,
            "lambda": 5,
            "drawnRed": 59,
            "reportedRed": 52,
            "inferredRed": 56,
            "playerTrialScore": -3,
            "oppTrialScore": 3,
            "playerTotalScore": 205,
            "oppTotalScore": -239,
            "waitTime": 5220.1806112885915,
            "responseTime": 1678836248226,
            "catchQuestion": "How many <b class=\"r\">red<\/b> marbles did you actually draw (before any changes)? ",
            "catchKey": -1,
            "catchResponse": -1,
            "catchTime": 1678836181895,
            "trialTime": 0
        },
        {
            "exptPart": "trial",
            "trialNumber": 80,
            "roleCurrent": "sender",
            "marblesSampled": 100,
            "probRed": 0.5,
            "lambda": 5,
            "drawnRed": 50,
            "reportedRed": 34,
            "inferredRed": 40,
            "playerTrialScore": 10,
            "oppTrialScore": -10,
            "playerTotalScore": 215,
            "oppTotalScore": -249,
            "waitTime": 2742.250971986016,
            "responseTime": 1678836278477,
            "catchQuestion": "How many <b class=\"r\">red<\/b> marbles did you actually draw (before any changes)? ",
            "catchKey": -1,
            "catchResponse": -1,
            "catchTime": 1678836278477,
            "trialTime": 0
        },
        {
            "exptPart": "trial",
            "trialNumber": 81,
            "roleCurrent": "receiver",
            "marblesSampled": 100,
            "probRed": 0.5,
            "lambda": 5,
            "drawnRed": 34,
            "reportedRed": 30,
            "inferredRed": 36,
            "playerTrialScore": -2,
            "oppTrialScore": 0,
            "playerTotalScore": 213,
            "oppTotalScore": -249,
            "waitTime": 5765.476092561334,
            "responseTime": 1678836294825,
            "catchQuestion": "How many <b class=\"r\">red<\/b> marbles did your opponent report drawing? ",
            "catchKey": 30,
            "catchResponse": 30,
            "catchTime": 1678836294825,
            "trialTime": 0
        },
        {
            "exptPart": "trial",
            "trialNumber": 82,
            "roleCurrent": "sender",
            "marblesSampled": 100,
            "probRed": 0.5,
            "lambda": 5,
            "drawnRed": 57,
            "reportedRed": 43,
            "inferredRed": 50,
            "playerTrialScore": 7,
            "oppTrialScore": -7,
            "playerTotalScore": 220,
            "oppTotalScore": -256,
            "waitTime": 2642.4523637179445,
            "responseTime": 1678836338042,
            "catchQuestion": "How many <b class=\"r\">red<\/b> marbles did your opponent report drawing? ",
            "catchKey": -1,
            "catchResponse": -1,
            "catchTime": 1678836294825,
            "trialTime": 0
        },
        {
            "exptPart": "trial",
            "trialNumber": 83,
            "roleCurrent": "receiver",
            "marblesSampled": 100,
            "probRed": 0.5,
            "lambda": 5,
            "drawnRed": 47,
            "reportedRed": 43,
            "inferredRed": 46,
            "playerTrialScore": -1,
            "oppTrialScore": 1,
            "playerTotalScore": 219,
            "oppTotalScore": -255,
            "waitTime": 7176.185220587909,
            "responseTime": 1678836348924,
            "catchQuestion": "How many <b class=\"r\">red<\/b> marbles did your opponent report drawing? ",
            "catchKey": -1,
            "catchResponse": -1,
            "catchTime": 1678836294825,
            "trialTime": 0
        },
        {
            "exptPart": "trial",
            "trialNumber": 84,
            "roleCurrent": "sender",
            "marblesSampled": 100,
            "probRed": 0.5,
            "lambda": 5,
            "drawnRed": 46,
            "reportedRed": 28,
            "inferredRed": 31,
            "playerTrialScore": 15,
            "oppTrialScore": -15,
            "playerTotalScore": 234,
            "oppTotalScore": -270,
            "waitTime": 2599.903541567855,
            "responseTime": 1678836368757,
            "catchQuestion": "How many <b class=\"r\">red<\/b> marbles did your opponent report drawing? ",
            "catchKey": -1,
            "catchResponse": -1,
            "catchTime": 1678836294825,
            "trialTime": 0
        },
        {
            "exptPart": "trial",
            "trialNumber": 85,
            "roleCurrent": "receiver",
            "marblesSampled": 100,
            "probRed": 0.5,
            "lambda": 5,
            "drawnRed": 61,
            "reportedRed": 55,
            "inferredRed": 59,
            "playerTrialScore": -2,
            "oppTrialScore": 2,
            "playerTotalScore": 232,
            "oppTotalScore": -268,
            "waitTime": 6852.014382789434,
            "responseTime": 1678836383240,
            "catchQuestion": "How many <b class=\"r\">red<\/b> marbles did your opponent report drawing? ",
            "catchKey": -1,
            "catchResponse": -1,
            "catchTime": 1678836383240,
            "trialTime": 0
        },
        {
            "exptPart": "trial",
            "trialNumber": 86,
            "roleCurrent": "sender",
            "marblesSampled": 100,
            "probRed": 0.5,
            "lambda": 5,
            "drawnRed": 39,
            "reportedRed": 24,
            "inferredRed": 33,
            "playerTrialScore": 6,
            "oppTrialScore": -6,
            "playerTotalScore": 238,
            "oppTotalScore": -274,
            "waitTime": 2679.6254600239104,
            "responseTime": 1678836404658,
            "catchQuestion": "How many <b class=\"r\">red<\/b> marbles did your opponent report drawing? ",
            "catchKey": -1,
            "catchResponse": -1,
            "catchTime": 1678836383240,
            "trialTime": 0
        },
        {
            "exptPart": "trial",
            "trialNumber": 87,
            "roleCurrent": "receiver",
            "marblesSampled": 100,
            "probRed": 0.5,
            "lambda": 5,
            "drawnRed": 55,
            "reportedRed": 52,
            "inferredRed": 56,
            "playerTrialScore": -1,
            "oppTrialScore": 0,
            "playerTotalScore": 237,
            "oppTotalScore": -274,
            "waitTime": 6370.80003328872,
            "responseTime": 1678836414906,
            "catchQuestion": "How many <b class=\"r\">red<\/b> marbles did your opponent report drawing? ",
            "catchKey": -1,
            "catchResponse": -1,
            "catchTime": 1678836383240,
            "trialTime": 0
        },
        {
            "exptPart": "trial",
            "trialNumber": 88,
            "roleCurrent": "sender",
            "marblesSampled": 100,
            "probRed": 0.5,
            "lambda": 5,
            "drawnRed": 70,
            "reportedRed": 49,
            "inferredRed": 50,
            "playerTrialScore": 20,
            "oppTrialScore": -20,
            "playerTotalScore": 257,
            "oppTotalScore": -294,
            "waitTime": 2072.2731678338923,
            "responseTime": 1678836447431,
            "catchQuestion": "How many <b class=\"r\">red<\/b> marbles did your opponent report drawing? ",
            "catchKey": -1,
            "catchResponse": -1,
            "catchTime": 1678836383240,
            "trialTime": 0
        },
        {
            "exptPart": "trial",
            "trialNumber": 89,
            "roleCurrent": "receiver",
            "marblesSampled": 100,
            "probRed": 0.5,
            "lambda": 5,
            "drawnRed": 50,
            "reportedRed": 45,
            "inferredRed": 49,
            "playerTrialScore": -1,
            "oppTrialScore": 1,
            "playerTotalScore": 256,
            "oppTotalScore": -293,
            "waitTime": 6881.689051326172,
            "responseTime": 1678836459332,
            "catchQuestion": "How many <b class=\"r\">red<\/b> marbles did your opponent report drawing? ",
            "catchKey": -1,
            "catchResponse": -1,
            "catchTime": 1678836383240,
            "trialTime": 0
        },
        {
            "exptPart": "trial",
            "trialNumber": 90,
            "roleCurrent": "sender",
            "marblesSampled": 100,
            "probRed": 0.5,
            "lambda": 5,
            "drawnRed": 43,
            "reportedRed": 31,
            "inferredRed": 34,
            "playerTrialScore": 9,
            "oppTrialScore": -9,
            "playerTotalScore": 265,
            "oppTotalScore": -302,
            "waitTime": 2341.4607829496626,
            "responseTime": 1678836480700,
            "catchQuestion": "How many <b class=\"r\">red<\/b> marbles did your opponent report drawing? ",
            "catchKey": -1,
            "catchResponse": -1,
            "catchTime": 1678836480700,
            "trialTime": 0
        },
        {
            "exptPart": "trial",
            "trialNumber": 91,
            "roleCurrent": "receiver",
            "marblesSampled": 100,
            "probRed": 0.5,
            "lambda": 5,
            "drawnRed": 35,
            "reportedRed": 31,
            "inferredRed": 36,
            "playerTrialScore": -1,
            "oppTrialScore": 0,
            "playerTotalScore": 264,
            "oppTotalScore": -302,
            "waitTime": 5928.880914224223,
            "responseTime": 1678836491684,
            "catchQuestion": "How many <b class=\"r\">red<\/b> marbles did your opponent report drawing? ",
            "catchKey": -1,
            "catchResponse": -1,
            "catchTime": 1678836480700,
            "trialTime": 0
        },
        {
            "exptPart": "trial",
            "trialNumber": 92,
            "roleCurrent": "sender",
            "marblesSampled": 100,
            "probRed": 0.5,
            "lambda": 5,
            "drawnRed": 34,
            "reportedRed": 22,
            "inferredRed": 26,
            "playerTrialScore": 8,
            "oppTrialScore": -8,
            "playerTotalScore": 272,
            "oppTotalScore": -310,
            "waitTime": 2481.0253831227046,
            "responseTime": 1678836508666,
            "catchQuestion": "How many <b class=\"r\">red<\/b> marbles did your opponent report drawing? ",
            "catchKey": -1,
            "catchResponse": -1,
            "catchTime": 1678836480700,
            "trialTime": 0
        },
        {
            "exptPart": "trial",
            "trialNumber": 93,
            "roleCurrent": "receiver",
            "marblesSampled": 100,
            "probRed": 0.5,
            "lambda": 5,
            "drawnRed": 58,
            "reportedRed": 53,
            "inferredRed": 56,
            "playerTrialScore": -2,
            "oppTrialScore": 2,
            "playerTotalScore": 270,
            "oppTotalScore": -308,
            "waitTime": 7214.02092056146,
            "responseTime": 1678836518699,
            "catchQuestion": "How many <b class=\"r\">red<\/b> marbles did your opponent report drawing? ",
            "catchKey": -1,
            "catchResponse": -1,
            "catchTime": 1678836480700,
            "trialTime": 0
        },
        {
            "exptPart": "trial",
            "trialNumber": 94,
            "roleCurrent": "sender",
            "marblesSampled": 100,
            "probRed": 0.5,
            "lambda": 5,
            "drawnRed": 72,
            "reportedRed": 51,
            "inferredRed": 58,
            "playerTrialScore": 14,
            "oppTrialScore": -14,
            "playerTotalScore": 284,
            "oppTotalScore": -322,
            "waitTime": 2968.5641579148432,
            "responseTime": 1678836544717,
            "catchQuestion": "How many <b class=\"r\">red<\/b> marbles did your opponent report drawing? ",
            "catchKey": -1,
            "catchResponse": -1,
            "catchTime": 1678836480700,
            "trialTime": 0
        },
        {
            "exptPart": "trial",
            "trialNumber": 95,
            "roleCurrent": "receiver",
            "marblesSampled": 100,
            "probRed": 0.5,
            "lambda": 5,
            "drawnRed": 57,
            "reportedRed": 53,
            "inferredRed": 56,
            "playerTrialScore": -1,
            "oppTrialScore": 1,
            "playerTotalScore": 283,
            "oppTotalScore": -321,
            "waitTime": 5194.006511597441,
            "responseTime": 1678836553200,
            "catchQuestion": "How many <b class=\"r\">red<\/b> marbles did your opponent report drawing? ",
            "catchKey": -1,
            "catchResponse": -1,
            "catchTime": 1678836553200,
            "trialTime": 0
        },
        {
            "exptPart": "trial",
            "trialNumber": 96,
            "roleCurrent": "sender",
            "marblesSampled": 100,
            "probRed": 0.5,
            "lambda": 5,
            "drawnRed": 46,
            "reportedRed": 28,
            "inferredRed": 31,
            "playerTrialScore": 15,
            "oppTrialScore": -15,
            "playerTotalScore": 298,
            "oppTotalScore": -336,
            "waitTime": 3089.668239113264,
            "responseTime": 1678836586283,
            "catchQuestion": "How many <b class=\"r\">red<\/b> marbles did your opponent report drawing? ",
            "catchKey": -1,
            "catchResponse": -1,
            "catchTime": 1678836553200,
            "trialTime": 0
        },
        {
            "exptPart": "trial",
            "trialNumber": 97,
            "roleCurrent": "receiver",
            "marblesSampled": 100,
            "probRed": 0.5,
            "lambda": 5,
            "drawnRed": 31,
            "reportedRed": 25,
            "inferredRed": 29,
            "playerTrialScore": -2,
            "oppTrialScore": 2,
            "playerTotalScore": 296,
            "oppTotalScore": -334,
            "waitTime": 5969.088523858312,
            "responseTime": 1678836598366,
            "catchQuestion": "How many <b class=\"r\">red<\/b> marbles did your opponent report drawing? ",
            "catchKey": 25,
            "catchResponse": 25,
            "catchTime": 1678836598366,
            "trialTime": 0
        },
        {
            "exptPart": "trial",
            "trialNumber": 98,
            "roleCurrent": "sender",
            "marblesSampled": 100,
            "probRed": 0.5,
            "lambda": 5,
            "drawnRed": 72,
            "reportedRed": 57,
            "inferredRed": 62,
            "playerTrialScore": 10,
            "oppTrialScore": -10,
            "playerTotalScore": 306,
            "oppTotalScore": -344,
            "waitTime": 2879.3788650240476,
            "responseTime": 1678836628999,
            "catchQuestion": "How many <b class=\"r\">red<\/b> marbles did your opponent report drawing? ",
            "catchKey": -1,
            "catchResponse": -1,
            "catchTime": 1678836598366,
            "trialTime": 0
        },
        {
            "exptPart": "trial",
            "trialNumber": 99,
            "roleCurrent": "receiver",
            "marblesSampled": 100,
            "probRed": 0.5,
            "lambda": 5,
            "drawnRed": 20,
            "reportedRed": 14,
            "inferredRed": 19,
            "playerTrialScore": -1,
            "oppTrialScore": 1,
            "playerTotalScore": 305,
            "oppTotalScore": -343,
            "waitTime": 6306.539099448923,
            "responseTime": 1678836639466,
            "catchQuestion": "How many <b class=\"r\">red<\/b> marbles did your opponent report drawing? ",
            "catchKey": -1,
            "catchResponse": -1,
            "catchTime": 1678836598366,
            "trialTime": 0
        },
        {
            "exptPart": "trial",
            "trialNumber": 100,
            "roleCurrent": "sender",
            "marblesSampled": 100,
            "probRed": 0.5,
            "lambda": 5,
            "drawnRed": 51,
            "reportedRed": 34,
            "inferredRed": 38,
            "playerTrialScore": 13,
            "oppTrialScore": -13,
            "playerTotalScore": 318,
            "oppTotalScore": -356,
            "waitTime": 2625.466156467378,
            "responseTime": 1678836665182,
            "catchQuestion": "How many <b class=\"r\">red<\/b> marbles did your opponent report drawing? ",
            "catchKey": -1,
            "catchResponse": -1,
            "catchTime": 1678836665182,
            "trialTime": 0
        }
    ]
}