{
    "client": {
        "type": "sona",
        "experiment_id": 2228,
        "credit_token": "b315147ae43241ea9c65086cb510cfb7",
        "survey_code": "40029",
        "sid": "sona-40029",
        "window": {
            "width": 1792,
            "height": 1009
        },
        "screen": {
            "width": 1792,
            "height": 1120
        },
        "userAgent": "Mozilla\/5.0 (Macintosh; Intel Mac OS X 10_15_7) AppleWebKit\/537.36 (KHTML, like Gecko) Chrome\/108.0.0.0 Safari\/537.36",
        "score": 0,
        "bonus": 0
    },
    "expt": {
        "saveURL": "submit.simple.php",
        "trials": 100,
        "practiceTrials": 2,
        "marblesSampled": 100,
        "probRed": 0.5,
        "lambdaAI": 5,
        "roleFirst": "sender",
        "roles": [
            "sender",
            "receiver"
        ],
        "cost": "linear",
        "goal": "under",
        "goalInstructTxt": "above",
        "catchTrials": [
            66,
            10,
            38,
            87,
            13,
            59,
            39,
            63,
            12,
            77
        ],
        "scoreTotal": {
            "player": -178,
            "opp": -189
        },
        "sona": {
            "experiment_id": 2228,
            "credit_token": "b315147ae43241ea9c65086cb510cfb7"
        },
        "pilot": false,
        "debug": false
    },
    "trials": [
        {
            "exptPart": "practice",
            "trialNumber": 1,
            "roleCurrent": "sender",
            "marblesSampled": 100,
            "probRed": 0.5,
            "lambda": 5,
            "drawnRed": 56,
            "reportedRed": 56,
            "inferredRed": 59,
            "playerTrialScore": 0,
            "oppTrialScore": -3,
            "playerTotalScore": 0,
            "oppTotalScore": -3,
            "waitTime": 2593.561421343497,
            "responseTime": 1680655898301,
            "catchQuestion": "How many <b class=\"r\">red<\/b> marbles did you actually draw (before any changes)? ",
            "catchKey": 56,
            "catchResponse": 33,
            "catchTime": 1680655898301,
            "trialTime": 0
        },
        {
            "exptPart": "practice",
            "trialNumber": 2,
            "roleCurrent": "receiver",
            "marblesSampled": 100,
            "probRed": 0.5,
            "lambda": 5,
            "drawnRed": 50,
            "reportedRed": 41,
            "inferredRed": 44,
            "playerTrialScore": -6,
            "oppTrialScore": 6,
            "playerTotalScore": -6,
            "oppTotalScore": 3,
            "waitTime": 5938.7890446037,
            "responseTime": 1680655934191,
            "catchQuestion": "How many <b class=\"r\">red<\/b> marbles did your opponent report drawing? ",
            "catchKey": 41,
            "catchResponse": 46,
            "catchTime": 1680655934191,
            "trialTime": 0
        },
        {
            "exptPart": "trial",
            "trialNumber": 1,
            "roleCurrent": "sender",
            "marblesSampled": 100,
            "probRed": 0.5,
            "lambda": 5,
            "drawnRed": 61,
            "reportedRed": 61,
            "inferredRed": 64,
            "playerTrialScore": 0,
            "oppTrialScore": -3,
            "playerTotalScore": 0,
            "oppTotalScore": -3,
            "waitTime": 2704.893972313017,
            "responseTime": 1680655956666,
            "catchQuestion": "How many <b class=\"r\">red<\/b> marbles did your opponent report drawing? ",
            "catchKey": -1,
            "catchResponse": -1,
            "catchTime": 1680655934191,
            "trialTime": 0
        },
        {
            "exptPart": "trial",
            "trialNumber": 2,
            "roleCurrent": "receiver",
            "marblesSampled": 100,
            "probRed": 0.5,
            "lambda": 5,
            "drawnRed": 20,
            "reportedRed": 12,
            "inferredRed": 11,
            "playerTrialScore": -9,
            "oppTrialScore": 9,
            "playerTotalScore": -9,
            "oppTotalScore": 6,
            "waitTime": 6555.646373236962,
            "responseTime": 1680655974218,
            "catchQuestion": "How many <b class=\"r\">red<\/b> marbles did your opponent report drawing? ",
            "catchKey": -1,
            "catchResponse": -1,
            "catchTime": 1680655934191,
            "trialTime": 0
        },
        {
            "exptPart": "trial",
            "trialNumber": 3,
            "roleCurrent": "sender",
            "marblesSampled": 100,
            "probRed": 0.5,
            "lambda": 5,
            "drawnRed": 36,
            "reportedRed": 37,
            "inferredRed": 41,
            "playerTrialScore": 0,
            "oppTrialScore": -5,
            "playerTotalScore": -9,
            "oppTotalScore": 1,
            "waitTime": 2182.656108540001,
            "responseTime": 1680655998397,
            "catchQuestion": "How many <b class=\"r\">red<\/b> marbles did your opponent report drawing? ",
            "catchKey": -1,
            "catchResponse": -1,
            "catchTime": 1680655934191,
            "trialTime": 0
        },
        {
            "exptPart": "trial",
            "trialNumber": 4,
            "roleCurrent": "receiver",
            "marblesSampled": 100,
            "probRed": 0.5,
            "lambda": 5,
            "drawnRed": 73,
            "reportedRed": 70,
            "inferredRed": 65,
            "playerTrialScore": -8,
            "oppTrialScore": 8,
            "playerTotalScore": -17,
            "oppTotalScore": 9,
            "waitTime": 6447.12564326165,
            "responseTime": 1680656010990,
            "catchQuestion": "How many <b class=\"r\">red<\/b> marbles did your opponent report drawing? ",
            "catchKey": -1,
            "catchResponse": -1,
            "catchTime": 1680655934191,
            "trialTime": 0
        },
        {
            "exptPart": "trial",
            "trialNumber": 5,
            "roleCurrent": "sender",
            "marblesSampled": 100,
            "probRed": 0.5,
            "lambda": 5,
            "drawnRed": 31,
            "reportedRed": 31,
            "inferredRed": 35,
            "playerTrialScore": 0,
            "oppTrialScore": -4,
            "playerTotalScore": -17,
            "oppTotalScore": 5,
            "waitTime": 2474.7323137499666,
            "responseTime": 1680656020978,
            "catchQuestion": "How many <b class=\"r\">red<\/b> marbles did your opponent report drawing? ",
            "catchKey": -1,
            "catchResponse": -1,
            "catchTime": 1680656020978,
            "trialTime": 0
        },
        {
            "exptPart": "trial",
            "trialNumber": 6,
            "roleCurrent": "receiver",
            "marblesSampled": 100,
            "probRed": 0.5,
            "lambda": 5,
            "drawnRed": 27,
            "reportedRed": 21,
            "inferredRed": 21,
            "playerTrialScore": -6,
            "oppTrialScore": 6,
            "playerTotalScore": -23,
            "oppTotalScore": 11,
            "waitTime": 6379.119246077823,
            "responseTime": 1680656055477,
            "catchQuestion": "How many <b class=\"r\">red<\/b> marbles did your opponent report drawing? ",
            "catchKey": -1,
            "catchResponse": -1,
            "catchTime": 1680656020978,
            "trialTime": 0
        },
        {
            "exptPart": "trial",
            "trialNumber": 7,
            "roleCurrent": "sender",
            "marblesSampled": 100,
            "probRed": 0.5,
            "lambda": 5,
            "drawnRed": 36,
            "reportedRed": 38,
            "inferredRed": 43,
            "playerTrialScore": 0,
            "oppTrialScore": -7,
            "playerTotalScore": -23,
            "oppTotalScore": 4,
            "waitTime": 2762.5866741045365,
            "responseTime": 1680656090652,
            "catchQuestion": "How many <b class=\"r\">red<\/b> marbles did your opponent report drawing? ",
            "catchKey": -1,
            "catchResponse": -1,
            "catchTime": 1680656020978,
            "trialTime": 0
        },
        {
            "exptPart": "trial",
            "trialNumber": 8,
            "roleCurrent": "receiver",
            "marblesSampled": 100,
            "probRed": 0.5,
            "lambda": 5,
            "drawnRed": 49,
            "reportedRed": 47,
            "inferredRed": 55,
            "playerTrialScore": -6,
            "oppTrialScore": 0,
            "playerTotalScore": -29,
            "oppTotalScore": 4,
            "waitTime": 5472.9793550697705,
            "responseTime": 1680656101506,
            "catchQuestion": "How many <b class=\"r\">red<\/b> marbles did your opponent report drawing? ",
            "catchKey": -1,
            "catchResponse": -1,
            "catchTime": 1680656020978,
            "trialTime": 0
        },
        {
            "exptPart": "trial",
            "trialNumber": 9,
            "roleCurrent": "sender",
            "marblesSampled": 100,
            "probRed": 0.5,
            "lambda": 5,
            "drawnRed": 69,
            "reportedRed": 69,
            "inferredRed": 71,
            "playerTrialScore": 0,
            "oppTrialScore": -2,
            "playerTotalScore": -29,
            "oppTotalScore": 2,
            "waitTime": 2209.7957690838502,
            "responseTime": 1680656117234,
            "catchQuestion": "How many <b class=\"r\">red<\/b> marbles did your opponent report drawing? ",
            "catchKey": -1,
            "catchResponse": -1,
            "catchTime": 1680656020978,
            "trialTime": 0
        },
        {
            "exptPart": "trial",
            "trialNumber": 10,
            "roleCurrent": "receiver",
            "marblesSampled": 100,
            "probRed": 0.5,
            "lambda": 5,
            "drawnRed": 28,
            "reportedRed": 21,
            "inferredRed": 21,
            "playerTrialScore": -7,
            "oppTrialScore": 7,
            "playerTotalScore": -36,
            "oppTotalScore": 9,
            "waitTime": 6089.072317214313,
            "responseTime": 1680656563675,
            "catchQuestion": "How many <b class=\"r\">red<\/b> marbles did your opponent report drawing? ",
            "catchKey": -1,
            "catchResponse": -1,
            "catchTime": 1680656563675,
            "trialTime": 0
        },
        {
            "exptPart": "trial",
            "trialNumber": 11,
            "roleCurrent": "sender",
            "marblesSampled": 100,
            "probRed": 0.5,
            "lambda": 5,
            "drawnRed": 46,
            "reportedRed": 46,
            "inferredRed": 50,
            "playerTrialScore": 0,
            "oppTrialScore": -4,
            "playerTotalScore": -36,
            "oppTotalScore": 5,
            "waitTime": 3199.7028826103137,
            "responseTime": 1680656572901,
            "catchQuestion": "How many <b class=\"r\">red<\/b> marbles did you actually draw (before any changes)? ",
            "catchKey": 46,
            "catchResponse": 41,
            "catchTime": 1680656572901,
            "trialTime": 0
        },
        {
            "exptPart": "trial",
            "trialNumber": 12,
            "roleCurrent": "receiver",
            "marblesSampled": 100,
            "probRed": 0.5,
            "lambda": 5,
            "drawnRed": 64,
            "reportedRed": 56,
            "inferredRed": 66,
            "playerTrialScore": -2,
            "oppTrialScore": 0,
            "playerTotalScore": -38,
            "oppTotalScore": 5,
            "waitTime": 6287.278769778115,
            "responseTime": 1680656614137,
            "catchQuestion": "How many <b class=\"r\">red<\/b> marbles did you actually draw (before any changes)? ",
            "catchKey": -1,
            "catchResponse": -1,
            "catchTime": 1680656572901,
            "trialTime": 0
        },
        {
            "exptPart": "trial",
            "trialNumber": 13,
            "roleCurrent": "sender",
            "marblesSampled": 100,
            "probRed": 0.5,
            "lambda": 5,
            "drawnRed": 41,
            "reportedRed": 41,
            "inferredRed": 45,
            "playerTrialScore": 0,
            "oppTrialScore": -4,
            "playerTotalScore": -38,
            "oppTotalScore": 1,
            "waitTime": 2808.188281717339,
            "responseTime": 1680656623682,
            "catchQuestion": "How many <b class=\"r\">red<\/b> marbles did you actually draw (before any changes)? ",
            "catchKey": 41,
            "catchResponse": 54,
            "catchTime": 1680656623683,
            "trialTime": 0
        },
        {
            "exptPart": "trial",
            "trialNumber": 14,
            "roleCurrent": "receiver",
            "marblesSampled": 100,
            "probRed": 0.5,
            "lambda": 5,
            "drawnRed": 50,
            "reportedRed": 46,
            "inferredRed": 55,
            "playerTrialScore": -5,
            "oppTrialScore": 0,
            "playerTotalScore": -43,
            "oppTotalScore": 1,
            "waitTime": 5564.327246106588,
            "responseTime": 1680656644655,
            "catchQuestion": "How many <b class=\"r\">red<\/b> marbles did your opponent report drawing? ",
            "catchKey": 46,
            "catchResponse": 44,
            "catchTime": 1680656644655,
            "trialTime": 0
        },
        {
            "exptPart": "trial",
            "trialNumber": 15,
            "roleCurrent": "sender",
            "marblesSampled": 100,
            "probRed": 0.5,
            "lambda": 5,
            "drawnRed": 83,
            "reportedRed": 83,
            "inferredRed": 86,
            "playerTrialScore": 0,
            "oppTrialScore": -3,
            "playerTotalScore": -43,
            "oppTotalScore": -2,
            "waitTime": 2250.0285136567823,
            "responseTime": 1680656665728,
            "catchQuestion": "How many <b class=\"r\">red<\/b> marbles did your opponent report drawing? ",
            "catchKey": -1,
            "catchResponse": -1,
            "catchTime": 1680656665728,
            "trialTime": 0
        },
        {
            "exptPart": "trial",
            "trialNumber": 16,
            "roleCurrent": "receiver",
            "marblesSampled": 100,
            "probRed": 0.5,
            "lambda": 5,
            "drawnRed": 48,
            "reportedRed": 40,
            "inferredRed": 55,
            "playerTrialScore": -7,
            "oppTrialScore": 0,
            "playerTotalScore": -50,
            "oppTotalScore": -2,
            "waitTime": 5396.1601525890965,
            "responseTime": 1680656679899,
            "catchQuestion": "How many <b class=\"r\">red<\/b> marbles did your opponent report drawing? ",
            "catchKey": -1,
            "catchResponse": -1,
            "catchTime": 1680656665728,
            "trialTime": 0
        },
        {
            "exptPart": "trial",
            "trialNumber": 17,
            "roleCurrent": "sender",
            "marblesSampled": 100,
            "probRed": 0.5,
            "lambda": 5,
            "drawnRed": 20,
            "reportedRed": 20,
            "inferredRed": 28,
            "playerTrialScore": 0,
            "oppTrialScore": -8,
            "playerTotalScore": -50,
            "oppTotalScore": -10,
            "waitTime": 2336.6076174932555,
            "responseTime": 1680656694971,
            "catchQuestion": "How many <b class=\"r\">red<\/b> marbles did your opponent report drawing? ",
            "catchKey": -1,
            "catchResponse": -1,
            "catchTime": 1680656665728,
            "trialTime": 0
        },
        {
            "exptPart": "trial",
            "trialNumber": 18,
            "roleCurrent": "receiver",
            "marblesSampled": 100,
            "probRed": 0.5,
            "lambda": 5,
            "drawnRed": 94,
            "reportedRed": 89,
            "inferredRed": 91,
            "playerTrialScore": -3,
            "oppTrialScore": 3,
            "playerTotalScore": -53,
            "oppTotalScore": -7,
            "waitTime": 6746.258405811628,
            "responseTime": 1680656710392,
            "catchQuestion": "How many <b class=\"r\">red<\/b> marbles did your opponent report drawing? ",
            "catchKey": -1,
            "catchResponse": -1,
            "catchTime": 1680656665728,
            "trialTime": 0
        },
        {
            "exptPart": "trial",
            "trialNumber": 19,
            "roleCurrent": "sender",
            "marblesSampled": 100,
            "probRed": 0.5,
            "lambda": 5,
            "drawnRed": 62,
            "reportedRed": 62,
            "inferredRed": 69,
            "playerTrialScore": 0,
            "oppTrialScore": -7,
            "playerTotalScore": -53,
            "oppTotalScore": -14,
            "waitTime": 2572.117991274021,
            "responseTime": 1680656719522,
            "catchQuestion": "How many <b class=\"r\">red<\/b> marbles did your opponent report drawing? ",
            "catchKey": -1,
            "catchResponse": -1,
            "catchTime": 1680656665728,
            "trialTime": 0
        },
        {
            "exptPart": "trial",
            "trialNumber": 20,
            "roleCurrent": "receiver",
            "marblesSampled": 100,
            "probRed": 0.5,
            "lambda": 5,
            "drawnRed": 32,
            "reportedRed": 28,
            "inferredRed": 31,
            "playerTrialScore": -1,
            "oppTrialScore": 1,
            "playerTotalScore": -54,
            "oppTotalScore": -13,
            "waitTime": 5644.8732684858405,
            "responseTime": 1680656732863,
            "catchQuestion": "How many <b class=\"r\">red<\/b> marbles did your opponent report drawing? ",
            "catchKey": -1,
            "catchResponse": -1,
            "catchTime": 1680656732863,
            "trialTime": 0
        },
        {
            "exptPart": "trial",
            "trialNumber": 21,
            "roleCurrent": "sender",
            "marblesSampled": 100,
            "probRed": 0.5,
            "lambda": 5,
            "drawnRed": 9,
            "reportedRed": 9,
            "inferredRed": 12,
            "playerTrialScore": 0,
            "oppTrialScore": -3,
            "playerTotalScore": -54,
            "oppTotalScore": -16,
            "waitTime": 3213.3501128857106,
            "responseTime": 1680656753870,
            "catchQuestion": "How many <b class=\"r\">red<\/b> marbles did your opponent report drawing? ",
            "catchKey": -1,
            "catchResponse": -1,
            "catchTime": 1680656732863,
            "trialTime": 0
        },
        {
            "exptPart": "trial",
            "trialNumber": 22,
            "roleCurrent": "receiver",
            "marblesSampled": 100,
            "probRed": 0.5,
            "lambda": 5,
            "drawnRed": 64,
            "reportedRed": 59,
            "inferredRed": 62,
            "playerTrialScore": -2,
            "oppTrialScore": 2,
            "playerTotalScore": -56,
            "oppTotalScore": -14,
            "waitTime": 5361.32553311063,
            "responseTime": 1680656763716,
            "catchQuestion": "How many <b class=\"r\">red<\/b> marbles did your opponent report drawing? ",
            "catchKey": -1,
            "catchResponse": -1,
            "catchTime": 1680656732863,
            "trialTime": 0
        },
        {
            "exptPart": "trial",
            "trialNumber": 23,
            "roleCurrent": "sender",
            "marblesSampled": 100,
            "probRed": 0.5,
            "lambda": 5,
            "drawnRed": 31,
            "reportedRed": 31,
            "inferredRed": 36,
            "playerTrialScore": 0,
            "oppTrialScore": -5,
            "playerTotalScore": -56,
            "oppTotalScore": -19,
            "waitTime": 2084.359961093583,
            "responseTime": 1680656781595,
            "catchQuestion": "How many <b class=\"r\">red<\/b> marbles did your opponent report drawing? ",
            "catchKey": -1,
            "catchResponse": -1,
            "catchTime": 1680656732863,
            "trialTime": 0
        },
        {
            "exptPart": "trial",
            "trialNumber": 24,
            "roleCurrent": "receiver",
            "marblesSampled": 100,
            "probRed": 0.5,
            "lambda": 5,
            "drawnRed": 63,
            "reportedRed": 56,
            "inferredRed": 66,
            "playerTrialScore": -3,
            "oppTrialScore": 0,
            "playerTotalScore": -59,
            "oppTotalScore": -19,
            "waitTime": 7292.405621906624,
            "responseTime": 1680656797903,
            "catchQuestion": "How many <b class=\"r\">red<\/b> marbles did your opponent report drawing? ",
            "catchKey": -1,
            "catchResponse": -1,
            "catchTime": 1680656732863,
            "trialTime": 0
        },
        {
            "exptPart": "trial",
            "trialNumber": 25,
            "roleCurrent": "sender",
            "marblesSampled": 100,
            "probRed": 0.5,
            "lambda": 5,
            "drawnRed": 44,
            "reportedRed": 44,
            "inferredRed": 48,
            "playerTrialScore": 0,
            "oppTrialScore": -4,
            "playerTotalScore": -59,
            "oppTotalScore": -23,
            "waitTime": 3214.3784429140846,
            "responseTime": 1680656824747,
            "catchQuestion": "How many <b class=\"r\">red<\/b> marbles did your opponent report drawing? ",
            "catchKey": -1,
            "catchResponse": -1,
            "catchTime": 1680656824747,
            "trialTime": 0
        },
        {
            "exptPart": "trial",
            "trialNumber": 26,
            "roleCurrent": "receiver",
            "marblesSampled": 100,
            "probRed": 0.5,
            "lambda": 5,
            "drawnRed": 71,
            "reportedRed": 63,
            "inferredRed": 67,
            "playerTrialScore": -4,
            "oppTrialScore": 4,
            "playerTotalScore": -63,
            "oppTotalScore": -19,
            "waitTime": 6306.903884257111,
            "responseTime": 1680656839378,
            "catchQuestion": "How many <b class=\"r\">red<\/b> marbles did your opponent report drawing? ",
            "catchKey": -1,
            "catchResponse": -1,
            "catchTime": 1680656824747,
            "trialTime": 0
        },
        {
            "exptPart": "trial",
            "trialNumber": 27,
            "roleCurrent": "sender",
            "marblesSampled": 100,
            "probRed": 0.5,
            "lambda": 5,
            "drawnRed": 42,
            "reportedRed": 42,
            "inferredRed": 48,
            "playerTrialScore": 0,
            "oppTrialScore": -6,
            "playerTotalScore": -63,
            "oppTotalScore": -25,
            "waitTime": 3011.514859327556,
            "responseTime": 1680656857083,
            "catchQuestion": "How many <b class=\"r\">red<\/b> marbles did your opponent report drawing? ",
            "catchKey": -1,
            "catchResponse": -1,
            "catchTime": 1680656824747,
            "trialTime": 0
        },
        {
            "exptPart": "trial",
            "trialNumber": 28,
            "roleCurrent": "receiver",
            "marblesSampled": 100,
            "probRed": 0.5,
            "lambda": 5,
            "drawnRed": 65,
            "reportedRed": 61,
            "inferredRed": 66,
            "playerTrialScore": -1,
            "oppTrialScore": 0,
            "playerTotalScore": -64,
            "oppTotalScore": -25,
            "waitTime": 7447.092088295409,
            "responseTime": 1680656883314,
            "catchQuestion": "How many <b class=\"r\">red<\/b> marbles did your opponent report drawing? ",
            "catchKey": -1,
            "catchResponse": -1,
            "catchTime": 1680656824747,
            "trialTime": 0
        },
        {
            "exptPart": "trial",
            "trialNumber": 29,
            "roleCurrent": "sender",
            "marblesSampled": 100,
            "probRed": 0.5,
            "lambda": 5,
            "drawnRed": 48,
            "reportedRed": 48,
            "inferredRed": 56,
            "playerTrialScore": 0,
            "oppTrialScore": -8,
            "playerTotalScore": -64,
            "oppTotalScore": -33,
            "waitTime": 2639.0006794145174,
            "responseTime": 1680656897428,
            "catchQuestion": "How many <b class=\"r\">red<\/b> marbles did your opponent report drawing? ",
            "catchKey": -1,
            "catchResponse": -1,
            "catchTime": 1680656824747,
            "trialTime": 0
        },
        {
            "exptPart": "trial",
            "trialNumber": 30,
            "roleCurrent": "receiver",
            "marblesSampled": 100,
            "probRed": 0.5,
            "lambda": 5,
            "drawnRed": 36,
            "reportedRed": 33,
            "inferredRed": 44,
            "playerTrialScore": -8,
            "oppTrialScore": 0,
            "playerTotalScore": -72,
            "oppTotalScore": -33,
            "waitTime": 5610.694802532212,
            "responseTime": 1680656914377,
            "catchQuestion": "How many <b class=\"r\">red<\/b> marbles did your opponent report drawing? ",
            "catchKey": -1,
            "catchResponse": -1,
            "catchTime": 1680656914377,
            "trialTime": 0
        },
        {
            "exptPart": "trial",
            "trialNumber": 31,
            "roleCurrent": "sender",
            "marblesSampled": 100,
            "probRed": 0.5,
            "lambda": 5,
            "drawnRed": 65,
            "reportedRed": 65,
            "inferredRed": 70,
            "playerTrialScore": 0,
            "oppTrialScore": -5,
            "playerTotalScore": -72,
            "oppTotalScore": -38,
            "waitTime": 2349.7579902897296,
            "responseTime": 1680656932267,
            "catchQuestion": "How many <b class=\"r\">red<\/b> marbles did your opponent report drawing? ",
            "catchKey": -1,
            "catchResponse": -1,
            "catchTime": 1680656914377,
            "trialTime": 0
        },
        {
            "exptPart": "trial",
            "trialNumber": 32,
            "roleCurrent": "receiver",
            "marblesSampled": 100,
            "probRed": 0.5,
            "lambda": 5,
            "drawnRed": 75,
            "reportedRed": 73,
            "inferredRed": 77,
            "playerTrialScore": -2,
            "oppTrialScore": 0,
            "playerTotalScore": -74,
            "oppTotalScore": -38,
            "waitTime": 6632.1372059804135,
            "responseTime": 1680656944942,
            "catchQuestion": "How many <b class=\"r\">red<\/b> marbles did your opponent report drawing? ",
            "catchKey": -1,
            "catchResponse": -1,
            "catchTime": 1680656914377,
            "trialTime": 0
        },
        {
            "exptPart": "trial",
            "trialNumber": 33,
            "roleCurrent": "sender",
            "marblesSampled": 100,
            "probRed": 0.5,
            "lambda": 5,
            "drawnRed": 13,
            "reportedRed": 13,
            "inferredRed": 19,
            "playerTrialScore": 0,
            "oppTrialScore": -6,
            "playerTotalScore": -74,
            "oppTotalScore": -44,
            "waitTime": 2130.700749446318,
            "responseTime": 1680656954273,
            "catchQuestion": "How many <b class=\"r\">red<\/b> marbles did your opponent report drawing? ",
            "catchKey": -1,
            "catchResponse": -1,
            "catchTime": 1680656914377,
            "trialTime": 0
        },
        {
            "exptPart": "trial",
            "trialNumber": 34,
            "roleCurrent": "receiver",
            "marblesSampled": 100,
            "probRed": 0.5,
            "lambda": 5,
            "drawnRed": 39,
            "reportedRed": 35,
            "inferredRed": 44,
            "playerTrialScore": -5,
            "oppTrialScore": 0,
            "playerTotalScore": -79,
            "oppTotalScore": -44,
            "waitTime": 5786.2600715800245,
            "responseTime": 1680656964266,
            "catchQuestion": "How many <b class=\"r\">red<\/b> marbles did your opponent report drawing? ",
            "catchKey": -1,
            "catchResponse": -1,
            "catchTime": 1680656914377,
            "trialTime": 0
        },
        {
            "exptPart": "trial",
            "trialNumber": 35,
            "roleCurrent": "sender",
            "marblesSampled": 100,
            "probRed": 0.5,
            "lambda": 5,
            "drawnRed": 60,
            "reportedRed": 60,
            "inferredRed": 64,
            "playerTrialScore": 0,
            "oppTrialScore": -4,
            "playerTotalScore": -79,
            "oppTotalScore": -48,
            "waitTime": 2642.749664083629,
            "responseTime": 1680656981647,
            "catchQuestion": "How many <b class=\"r\">red<\/b> marbles did your opponent report drawing? ",
            "catchKey": -1,
            "catchResponse": -1,
            "catchTime": 1680656981647,
            "trialTime": 0
        },
        {
            "exptPart": "trial",
            "trialNumber": 36,
            "roleCurrent": "receiver",
            "marblesSampled": 100,
            "probRed": 0.5,
            "lambda": 5,
            "drawnRed": 77,
            "reportedRed": 74,
            "inferredRed": 77,
            "playerTrialScore": 0,
            "oppTrialScore": 0,
            "playerTotalScore": -79,
            "oppTotalScore": -48,
            "waitTime": 5872.461255642854,
            "responseTime": 1680657001420,
            "catchQuestion": "How many <b class=\"r\">red<\/b> marbles did your opponent report drawing? ",
            "catchKey": -1,
            "catchResponse": -1,
            "catchTime": 1680656981647,
            "trialTime": 0
        },
        {
            "exptPart": "trial",
            "trialNumber": 37,
            "roleCurrent": "sender",
            "marblesSampled": 100,
            "probRed": 0.5,
            "lambda": 5,
            "drawnRed": 73,
            "reportedRed": 73,
            "inferredRed": 79,
            "playerTrialScore": 0,
            "oppTrialScore": -6,
            "playerTotalScore": -79,
            "oppTotalScore": -54,
            "waitTime": 2325.292700877737,
            "responseTime": 1680657025254,
            "catchQuestion": "How many <b class=\"r\">red<\/b> marbles did your opponent report drawing? ",
            "catchKey": -1,
            "catchResponse": -1,
            "catchTime": 1680656981647,
            "trialTime": 0
        },
        {
            "exptPart": "trial",
            "trialNumber": 38,
            "roleCurrent": "receiver",
            "marblesSampled": 100,
            "probRed": 0.5,
            "lambda": 5,
            "drawnRed": 37,
            "reportedRed": 33,
            "inferredRed": 44,
            "playerTrialScore": -7,
            "oppTrialScore": 0,
            "playerTotalScore": -86,
            "oppTotalScore": -54,
            "waitTime": 6083.369599174577,
            "responseTime": 1680657037151,
            "catchQuestion": "How many <b class=\"r\">red<\/b> marbles did your opponent report drawing? ",
            "catchKey": -1,
            "catchResponse": -1,
            "catchTime": 1680656981647,
            "trialTime": 0
        },
        {
            "exptPart": "trial",
            "trialNumber": 39,
            "roleCurrent": "sender",
            "marblesSampled": 100,
            "probRed": 0.5,
            "lambda": 5,
            "drawnRed": 44,
            "reportedRed": 44,
            "inferredRed": 47,
            "playerTrialScore": 0,
            "oppTrialScore": -3,
            "playerTotalScore": -86,
            "oppTotalScore": -57,
            "waitTime": 2089.7570777022556,
            "responseTime": 1680657046721,
            "catchQuestion": "How many <b class=\"r\">red<\/b> marbles did you actually draw (before any changes)? ",
            "catchKey": 44,
            "catchResponse": 32,
            "catchTime": 1680657046721,
            "trialTime": 0
        },
        {
            "exptPart": "trial",
            "trialNumber": 40,
            "roleCurrent": "receiver",
            "marblesSampled": 100,
            "probRed": 0.5,
            "lambda": 5,
            "drawnRed": 53,
            "reportedRed": 50,
            "inferredRed": 55,
            "playerTrialScore": -2,
            "oppTrialScore": 0,
            "playerTotalScore": -88,
            "oppTotalScore": -57,
            "waitTime": 5532.360068107385,
            "responseTime": 1680657073026,
            "catchQuestion": "How many <b class=\"r\">red<\/b> marbles did your opponent report drawing? ",
            "catchKey": 50,
            "catchResponse": 50,
            "catchTime": 1680657073026,
            "trialTime": 0
        },
        {
            "exptPart": "trial",
            "trialNumber": 41,
            "roleCurrent": "sender",
            "marblesSampled": 100,
            "probRed": 0.5,
            "lambda": 5,
            "drawnRed": 33,
            "reportedRed": 33,
            "inferredRed": 40,
            "playerTrialScore": 0,
            "oppTrialScore": -7,
            "playerTotalScore": -88,
            "oppTotalScore": -64,
            "waitTime": 2588.293364852312,
            "responseTime": 1680657096222,
            "catchQuestion": "How many <b class=\"r\">red<\/b> marbles did your opponent report drawing? ",
            "catchKey": -1,
            "catchResponse": -1,
            "catchTime": 1680657073026,
            "trialTime": 0
        },
        {
            "exptPart": "trial",
            "trialNumber": 42,
            "roleCurrent": "receiver",
            "marblesSampled": 100,
            "probRed": 0.5,
            "lambda": 5,
            "drawnRed": 50,
            "reportedRed": 46,
            "inferredRed": 55,
            "playerTrialScore": -5,
            "oppTrialScore": 0,
            "playerTotalScore": -93,
            "oppTotalScore": -64,
            "waitTime": 5690.605880725199,
            "responseTime": 1680657106725,
            "catchQuestion": "How many <b class=\"r\">red<\/b> marbles did your opponent report drawing? ",
            "catchKey": -1,
            "catchResponse": -1,
            "catchTime": 1680657073026,
            "trialTime": 0
        },
        {
            "exptPart": "trial",
            "trialNumber": 43,
            "roleCurrent": "sender",
            "marblesSampled": 100,
            "probRed": 0.5,
            "lambda": 5,
            "drawnRed": 26,
            "reportedRed": 26,
            "inferredRed": 33,
            "playerTrialScore": 0,
            "oppTrialScore": -7,
            "playerTotalScore": -93,
            "oppTotalScore": -71,
            "waitTime": 2108.7046361518196,
            "responseTime": 1680657115910,
            "catchQuestion": "How many <b class=\"r\">red<\/b> marbles did your opponent report drawing? ",
            "catchKey": -1,
            "catchResponse": -1,
            "catchTime": 1680657073026,
            "trialTime": 0
        },
        {
            "exptPart": "trial",
            "trialNumber": 44,
            "roleCurrent": "receiver",
            "marblesSampled": 100,
            "probRed": 0.5,
            "lambda": 5,
            "drawnRed": 52,
            "reportedRed": 47,
            "inferredRed": 55,
            "playerTrialScore": -3,
            "oppTrialScore": 0,
            "playerTotalScore": -96,
            "oppTotalScore": -71,
            "waitTime": 7393.514779547397,
            "responseTime": 1680657128455,
            "catchQuestion": "How many <b class=\"r\">red<\/b> marbles did your opponent report drawing? ",
            "catchKey": -1,
            "catchResponse": -1,
            "catchTime": 1680657073026,
            "trialTime": 0
        },
        {
            "exptPart": "trial",
            "trialNumber": 45,
            "roleCurrent": "sender",
            "marblesSampled": 100,
            "probRed": 0.5,
            "lambda": 5,
            "drawnRed": 47,
            "reportedRed": 47,
            "inferredRed": 54,
            "playerTrialScore": 0,
            "oppTrialScore": -7,
            "playerTotalScore": -96,
            "oppTotalScore": -78,
            "waitTime": 2731.4741915745185,
            "responseTime": 1680657138834,
            "catchQuestion": "How many <b class=\"r\">red<\/b> marbles did your opponent report drawing? ",
            "catchKey": -1,
            "catchResponse": -1,
            "catchTime": 1680657138834,
            "trialTime": 0
        },
        {
            "exptPart": "trial",
            "trialNumber": 46,
            "roleCurrent": "receiver",
            "marblesSampled": 100,
            "probRed": 0.5,
            "lambda": 5,
            "drawnRed": 61,
            "reportedRed": 60,
            "inferredRed": 66,
            "playerTrialScore": -5,
            "oppTrialScore": 0,
            "playerTotalScore": -101,
            "oppTotalScore": -78,
            "waitTime": 5774.203045525001,
            "responseTime": 1680657155577,
            "catchQuestion": "How many <b class=\"r\">red<\/b> marbles did your opponent report drawing? ",
            "catchKey": -1,
            "catchResponse": -1,
            "catchTime": 1680657138834,
            "trialTime": 0
        },
        {
            "exptPart": "trial",
            "trialNumber": 47,
            "roleCurrent": "sender",
            "marblesSampled": 100,
            "probRed": 0.5,
            "lambda": 5,
            "drawnRed": 11,
            "reportedRed": 11,
            "inferredRed": 15,
            "playerTrialScore": 0,
            "oppTrialScore": -4,
            "playerTotalScore": -101,
            "oppTotalScore": -82,
            "waitTime": 2433.0851513778216,
            "responseTime": 1680657168448,
            "catchQuestion": "How many <b class=\"r\">red<\/b> marbles did your opponent report drawing? ",
            "catchKey": -1,
            "catchResponse": -1,
            "catchTime": 1680657138834,
            "trialTime": 0
        },
        {
            "exptPart": "trial",
            "trialNumber": 48,
            "roleCurrent": "receiver",
            "marblesSampled": 100,
            "probRed": 0.5,
            "lambda": 5,
            "drawnRed": 20,
            "reportedRed": 14,
            "inferredRed": 22,
            "playerTrialScore": -2,
            "oppTrialScore": 0,
            "playerTotalScore": -103,
            "oppTotalScore": -82,
            "waitTime": 5803.733351859088,
            "responseTime": 1680657188410,
            "catchQuestion": "How many <b class=\"r\">red<\/b> marbles did your opponent report drawing? ",
            "catchKey": -1,
            "catchResponse": -1,
            "catchTime": 1680657138834,
            "trialTime": 0
        },
        {
            "exptPart": "trial",
            "trialNumber": 49,
            "roleCurrent": "sender",
            "marblesSampled": 100,
            "probRed": 0.5,
            "lambda": 5,
            "drawnRed": 29,
            "reportedRed": 29,
            "inferredRed": 29,
            "playerTrialScore": 0,
            "oppTrialScore": 0,
            "playerTotalScore": -103,
            "oppTotalScore": -82,
            "waitTime": 2761.6190998807488,
            "responseTime": 1680657204122,
            "catchQuestion": "How many <b class=\"r\">red<\/b> marbles did your opponent report drawing? ",
            "catchKey": -1,
            "catchResponse": -1,
            "catchTime": 1680657138834,
            "trialTime": 0
        },
        {
            "exptPart": "trial",
            "trialNumber": 50,
            "roleCurrent": "receiver",
            "marblesSampled": 100,
            "probRed": 0.5,
            "lambda": 5,
            "drawnRed": 32,
            "reportedRed": 29,
            "inferredRed": 33,
            "playerTrialScore": -1,
            "oppTrialScore": 0,
            "playerTotalScore": -104,
            "oppTotalScore": -82,
            "waitTime": 5784.635597116392,
            "responseTime": 1680657227084,
            "catchQuestion": "How many <b class=\"r\">red<\/b> marbles did your opponent report drawing? ",
            "catchKey": -1,
            "catchResponse": -1,
            "catchTime": 1680657227084,
            "trialTime": 0
        },
        {
            "exptPart": "trial",
            "trialNumber": 51,
            "roleCurrent": "sender",
            "marblesSampled": 100,
            "probRed": 0.5,
            "lambda": 5,
            "drawnRed": 55,
            "reportedRed": 55,
            "inferredRed": 58,
            "playerTrialScore": 0,
            "oppTrialScore": -3,
            "playerTotalScore": -104,
            "oppTotalScore": -85,
            "waitTime": 2639.831134177577,
            "responseTime": 1680657239031,
            "catchQuestion": "How many <b class=\"r\">red<\/b> marbles did your opponent report drawing? ",
            "catchKey": -1,
            "catchResponse": -1,
            "catchTime": 1680657227084,
            "trialTime": 0
        },
        {
            "exptPart": "trial",
            "trialNumber": 52,
            "roleCurrent": "receiver",
            "marblesSampled": 100,
            "probRed": 0.5,
            "lambda": 5,
            "drawnRed": 78,
            "reportedRed": 73,
            "inferredRed": 77,
            "playerTrialScore": -1,
            "oppTrialScore": 1,
            "playerTotalScore": -105,
            "oppTotalScore": -84,
            "waitTime": 5817.1774047389945,
            "responseTime": 1680657258990,
            "catchQuestion": "How many <b class=\"r\">red<\/b> marbles did your opponent report drawing? ",
            "catchKey": -1,
            "catchResponse": -1,
            "catchTime": 1680657227084,
            "trialTime": 0
        },
        {
            "exptPart": "trial",
            "trialNumber": 53,
            "roleCurrent": "sender",
            "marblesSampled": 100,
            "probRed": 0.5,
            "lambda": 5,
            "drawnRed": 68,
            "reportedRed": 68,
            "inferredRed": 73,
            "playerTrialScore": 0,
            "oppTrialScore": -5,
            "playerTotalScore": -105,
            "oppTotalScore": -89,
            "waitTime": 2892.2482186464986,
            "responseTime": 1680657277740,
            "catchQuestion": "How many <b class=\"r\">red<\/b> marbles did your opponent report drawing? ",
            "catchKey": -1,
            "catchResponse": -1,
            "catchTime": 1680657227084,
            "trialTime": 0
        },
        {
            "exptPart": "trial",
            "trialNumber": 54,
            "roleCurrent": "receiver",
            "marblesSampled": 100,
            "probRed": 0.5,
            "lambda": 5,
            "drawnRed": 50,
            "reportedRed": 47,
            "inferredRed": 55,
            "playerTrialScore": -5,
            "oppTrialScore": 0,
            "playerTotalScore": -110,
            "oppTotalScore": -89,
            "waitTime": 5874.795771704341,
            "responseTime": 1680657287781,
            "catchQuestion": "How many <b class=\"r\">red<\/b> marbles did your opponent report drawing? ",
            "catchKey": -1,
            "catchResponse": -1,
            "catchTime": 1680657227084,
            "trialTime": 0
        },
        {
            "exptPart": "trial",
            "trialNumber": 55,
            "roleCurrent": "sender",
            "marblesSampled": 100,
            "probRed": 0.5,
            "lambda": 5,
            "drawnRed": 40,
            "reportedRed": 40,
            "inferredRed": 48,
            "playerTrialScore": 0,
            "oppTrialScore": -8,
            "playerTotalScore": -110,
            "oppTotalScore": -97,
            "waitTime": 2452.73325267072,
            "responseTime": 1680657305609,
            "catchQuestion": "How many <b class=\"r\">red<\/b> marbles did your opponent report drawing? ",
            "catchKey": -1,
            "catchResponse": -1,
            "catchTime": 1680657305609,
            "trialTime": 0
        },
        {
            "exptPart": "trial",
            "trialNumber": 56,
            "roleCurrent": "receiver",
            "marblesSampled": 100,
            "probRed": 0.5,
            "lambda": 5,
            "drawnRed": 76,
            "reportedRed": 71,
            "inferredRed": 77,
            "playerTrialScore": -1,
            "oppTrialScore": 0,
            "playerTotalScore": -111,
            "oppTotalScore": -97,
            "waitTime": 5395.074562482262,
            "responseTime": 1680657321626,
            "catchQuestion": "How many <b class=\"r\">red<\/b> marbles did your opponent report drawing? ",
            "catchKey": -1,
            "catchResponse": -1,
            "catchTime": 1680657305609,
            "trialTime": 0
        },
        {
            "exptPart": "trial",
            "trialNumber": 57,
            "roleCurrent": "sender",
            "marblesSampled": 100,
            "probRed": 0.5,
            "lambda": 5,
            "drawnRed": 34,
            "reportedRed": 34,
            "inferredRed": 41,
            "playerTrialScore": 0,
            "oppTrialScore": -7,
            "playerTotalScore": -111,
            "oppTotalScore": -104,
            "waitTime": 2431.642144536767,
            "responseTime": 1680657344099,
            "catchQuestion": "How many <b class=\"r\">red<\/b> marbles did your opponent report drawing? ",
            "catchKey": -1,
            "catchResponse": -1,
            "catchTime": 1680657305609,
            "trialTime": 0
        },
        {
            "exptPart": "trial",
            "trialNumber": 58,
            "roleCurrent": "receiver",
            "marblesSampled": 100,
            "probRed": 0.5,
            "lambda": 5,
            "drawnRed": 72,
            "reportedRed": 66,
            "inferredRed": 77,
            "playerTrialScore": -5,
            "oppTrialScore": 0,
            "playerTotalScore": -116,
            "oppTotalScore": -104,
            "waitTime": 6078.856721441456,
            "responseTime": 1680657365062,
            "catchQuestion": "How many <b class=\"r\">red<\/b> marbles did your opponent report drawing? ",
            "catchKey": -1,
            "catchResponse": -1,
            "catchTime": 1680657305609,
            "trialTime": 0
        },
        {
            "exptPart": "trial",
            "trialNumber": 59,
            "roleCurrent": "sender",
            "marblesSampled": 100,
            "probRed": 0.5,
            "lambda": 5,
            "drawnRed": 50,
            "reportedRed": 50,
            "inferredRed": 55,
            "playerTrialScore": 0,
            "oppTrialScore": -5,
            "playerTotalScore": -116,
            "oppTotalScore": -109,
            "waitTime": 2376.74202106173,
            "responseTime": 1680657373324,
            "catchQuestion": "How many <b class=\"r\">red<\/b> marbles did your opponent report drawing? ",
            "catchKey": -1,
            "catchResponse": -1,
            "catchTime": 1680657305609,
            "trialTime": 0
        },
        {
            "exptPart": "trial",
            "trialNumber": 60,
            "roleCurrent": "receiver",
            "marblesSampled": 100,
            "probRed": 0.5,
            "lambda": 5,
            "drawnRed": 50,
            "reportedRed": 42,
            "inferredRed": 44,
            "playerTrialScore": -6,
            "oppTrialScore": 6,
            "playerTotalScore": -122,
            "oppTotalScore": -103,
            "waitTime": 6814.781096025055,
            "responseTime": 1680657386738,
            "catchQuestion": "How many <b class=\"r\">red<\/b> marbles did your opponent report drawing? ",
            "catchKey": 42,
            "catchResponse": 42,
            "catchTime": 1680657386738,
            "trialTime": 0
        },
        {
            "exptPart": "trial",
            "trialNumber": 61,
            "roleCurrent": "sender",
            "marblesSampled": 100,
            "probRed": 0.5,
            "lambda": 5,
            "drawnRed": 48,
            "reportedRed": 48,
            "inferredRed": 52,
            "playerTrialScore": 0,
            "oppTrialScore": -4,
            "playerTotalScore": -122,
            "oppTotalScore": -107,
            "waitTime": 3084.714987481137,
            "responseTime": 1680657408461,
            "catchQuestion": "How many <b class=\"r\">red<\/b> marbles did your opponent report drawing? ",
            "catchKey": -1,
            "catchResponse": -1,
            "catchTime": 1680657386738,
            "trialTime": 0
        },
        {
            "exptPart": "trial",
            "trialNumber": 62,
            "roleCurrent": "receiver",
            "marblesSampled": 100,
            "probRed": 0.5,
            "lambda": 5,
            "drawnRed": 38,
            "reportedRed": 34,
            "inferredRed": 44,
            "playerTrialScore": -6,
            "oppTrialScore": 0,
            "playerTotalScore": -128,
            "oppTotalScore": -107,
            "waitTime": 5272.476980929123,
            "responseTime": 1680657425318,
            "catchQuestion": "How many <b class=\"r\">red<\/b> marbles did your opponent report drawing? ",
            "catchKey": -1,
            "catchResponse": -1,
            "catchTime": 1680657386738,
            "trialTime": 0
        },
        {
            "exptPart": "trial",
            "trialNumber": 63,
            "roleCurrent": "sender",
            "marblesSampled": 100,
            "probRed": 0.5,
            "lambda": 5,
            "drawnRed": 31,
            "reportedRed": 31,
            "inferredRed": 35,
            "playerTrialScore": 0,
            "oppTrialScore": -4,
            "playerTotalScore": -128,
            "oppTotalScore": -111,
            "waitTime": 2533.585700406027,
            "responseTime": 1680657436436,
            "catchQuestion": "How many <b class=\"r\">red<\/b> marbles did your opponent report drawing? ",
            "catchKey": -1,
            "catchResponse": -1,
            "catchTime": 1680657386738,
            "trialTime": 0
        },
        {
            "exptPart": "trial",
            "trialNumber": 64,
            "roleCurrent": "receiver",
            "marblesSampled": 100,
            "probRed": 0.5,
            "lambda": 5,
            "drawnRed": 29,
            "reportedRed": 24,
            "inferredRed": 33,
            "playerTrialScore": -4,
            "oppTrialScore": 0,
            "playerTotalScore": -132,
            "oppTotalScore": -111,
            "waitTime": 6196.5330975109955,
            "responseTime": 1680657461607,
            "catchQuestion": "How many <b class=\"r\">red<\/b> marbles did your opponent report drawing? ",
            "catchKey": 24,
            "catchResponse": 24,
            "catchTime": 1680657461607,
            "trialTime": 0
        },
        {
            "exptPart": "trial",
            "trialNumber": 65,
            "roleCurrent": "sender",
            "marblesSampled": 100,
            "probRed": 0.5,
            "lambda": 5,
            "drawnRed": 53,
            "reportedRed": 53,
            "inferredRed": 60,
            "playerTrialScore": 0,
            "oppTrialScore": -7,
            "playerTotalScore": -132,
            "oppTotalScore": -118,
            "waitTime": 3126.678441382967,
            "responseTime": 1680657475934,
            "catchQuestion": "How many <b class=\"r\">red<\/b> marbles did your opponent report drawing? ",
            "catchKey": -1,
            "catchResponse": -1,
            "catchTime": 1680657475934,
            "trialTime": 0
        },
        {
            "exptPart": "trial",
            "trialNumber": 66,
            "roleCurrent": "receiver",
            "marblesSampled": 100,
            "probRed": 0.5,
            "lambda": 5,
            "drawnRed": 78,
            "reportedRed": 76,
            "inferredRed": 77,
            "playerTrialScore": -1,
            "oppTrialScore": 1,
            "playerTotalScore": -133,
            "oppTotalScore": -117,
            "waitTime": 6376.323662625934,
            "responseTime": 1680657489533,
            "catchQuestion": "How many <b class=\"r\">red<\/b> marbles did your opponent report drawing? ",
            "catchKey": -1,
            "catchResponse": -1,
            "catchTime": 1680657475934,
            "trialTime": 0
        },
        {
            "exptPart": "trial",
            "trialNumber": 67,
            "roleCurrent": "sender",
            "marblesSampled": 100,
            "probRed": 0.5,
            "lambda": 5,
            "drawnRed": 51,
            "reportedRed": 51,
            "inferredRed": 60,
            "playerTrialScore": 0,
            "oppTrialScore": -9,
            "playerTotalScore": -133,
            "oppTotalScore": -126,
            "waitTime": 2525.152585277924,
            "responseTime": 1680657498132,
            "catchQuestion": "How many <b class=\"r\">red<\/b> marbles did you actually draw (before any changes)? ",
            "catchKey": 51,
            "catchResponse": 51,
            "catchTime": 1680657498132,
            "trialTime": 0
        },
        {
            "exptPart": "trial",
            "trialNumber": 68,
            "roleCurrent": "receiver",
            "marblesSampled": 100,
            "probRed": 0.5,
            "lambda": 5,
            "drawnRed": 57,
            "reportedRed": 50,
            "inferredRed": 55,
            "playerTrialScore": -2,
            "oppTrialScore": 2,
            "playerTotalScore": -135,
            "oppTotalScore": -124,
            "waitTime": 6001.223999221173,
            "responseTime": 1680657519371,
            "catchQuestion": "How many <b class=\"r\">red<\/b> marbles did you actually draw (before any changes)? ",
            "catchKey": -1,
            "catchResponse": -1,
            "catchTime": 1680657498132,
            "trialTime": 0
        },
        {
            "exptPart": "trial",
            "trialNumber": 69,
            "roleCurrent": "sender",
            "marblesSampled": 100,
            "probRed": 0.5,
            "lambda": 5,
            "drawnRed": 42,
            "reportedRed": 42,
            "inferredRed": 48,
            "playerTrialScore": 0,
            "oppTrialScore": -6,
            "playerTotalScore": -135,
            "oppTotalScore": -130,
            "waitTime": 2951.1864222715203,
            "responseTime": 1680657535066,
            "catchQuestion": "How many <b class=\"r\">red<\/b> marbles did you actually draw (before any changes)? ",
            "catchKey": -1,
            "catchResponse": -1,
            "catchTime": 1680657498132,
            "trialTime": 0
        },
        {
            "exptPart": "trial",
            "trialNumber": 70,
            "roleCurrent": "receiver",
            "marblesSampled": 100,
            "probRed": 0.5,
            "lambda": 5,
            "drawnRed": 30,
            "reportedRed": 26,
            "inferredRed": 33,
            "playerTrialScore": -3,
            "oppTrialScore": 0,
            "playerTotalScore": -138,
            "oppTotalScore": -130,
            "waitTime": 5167.113607126167,
            "responseTime": 1680657544309,
            "catchQuestion": "How many <b class=\"r\">red<\/b> marbles did you actually draw (before any changes)? ",
            "catchKey": -1,
            "catchResponse": -1,
            "catchTime": 1680657544309,
            "trialTime": 0
        },
        {
            "exptPart": "trial",
            "trialNumber": 71,
            "roleCurrent": "sender",
            "marblesSampled": 100,
            "probRed": 0.5,
            "lambda": 5,
            "drawnRed": 81,
            "reportedRed": 81,
            "inferredRed": 83,
            "playerTrialScore": 0,
            "oppTrialScore": -2,
            "playerTotalScore": -138,
            "oppTotalScore": -132,
            "waitTime": 2204.42407188514,
            "responseTime": 1680657553297,
            "catchQuestion": "How many <b class=\"r\">red<\/b> marbles did you actually draw (before any changes)? ",
            "catchKey": -1,
            "catchResponse": -1,
            "catchTime": 1680657544309,
            "trialTime": 0
        },
        {
            "exptPart": "trial",
            "trialNumber": 72,
            "roleCurrent": "receiver",
            "marblesSampled": 100,
            "probRed": 0.5,
            "lambda": 5,
            "drawnRed": 49,
            "reportedRed": 44,
            "inferredRed": 55,
            "playerTrialScore": -6,
            "oppTrialScore": 0,
            "playerTotalScore": -144,
            "oppTotalScore": -132,
            "waitTime": 6674.9000974993305,
            "responseTime": 1680657563772,
            "catchQuestion": "How many <b class=\"r\">red<\/b> marbles did you actually draw (before any changes)? ",
            "catchKey": -1,
            "catchResponse": -1,
            "catchTime": 1680657544309,
            "trialTime": 0
        },
        {
            "exptPart": "trial",
            "trialNumber": 73,
            "roleCurrent": "sender",
            "marblesSampled": 100,
            "probRed": 0.5,
            "lambda": 5,
            "drawnRed": 28,
            "reportedRed": 28,
            "inferredRed": 33,
            "playerTrialScore": 0,
            "oppTrialScore": -5,
            "playerTotalScore": -144,
            "oppTotalScore": -137,
            "waitTime": 3144.3724217383933,
            "responseTime": 1680657573349,
            "catchQuestion": "How many <b class=\"r\">red<\/b> marbles did you actually draw (before any changes)? ",
            "catchKey": -1,
            "catchResponse": -1,
            "catchTime": 1680657544309,
            "trialTime": 0
        },
        {
            "exptPart": "trial",
            "trialNumber": 74,
            "roleCurrent": "receiver",
            "marblesSampled": 100,
            "probRed": 0.5,
            "lambda": 5,
            "drawnRed": 63,
            "reportedRed": 59,
            "inferredRed": 66,
            "playerTrialScore": -3,
            "oppTrialScore": 0,
            "playerTotalScore": -147,
            "oppTotalScore": -137,
            "waitTime": 6877.001199469933,
            "responseTime": 1680657583875,
            "catchQuestion": "How many <b class=\"r\">red<\/b> marbles did you actually draw (before any changes)? ",
            "catchKey": -1,
            "catchResponse": -1,
            "catchTime": 1680657544309,
            "trialTime": 0
        },
        {
            "exptPart": "trial",
            "trialNumber": 75,
            "roleCurrent": "sender",
            "marblesSampled": 100,
            "probRed": 0.5,
            "lambda": 5,
            "drawnRed": 38,
            "reportedRed": 38,
            "inferredRed": 42,
            "playerTrialScore": 0,
            "oppTrialScore": -4,
            "playerTotalScore": -147,
            "oppTotalScore": -141,
            "waitTime": 2932.0709934769725,
            "responseTime": 1680657646148,
            "catchQuestion": "How many <b class=\"r\">red<\/b> marbles did you actually draw (before any changes)? ",
            "catchKey": -1,
            "catchResponse": -1,
            "catchTime": 1680657646148,
            "trialTime": 0
        },
        {
            "exptPart": "trial",
            "trialNumber": 76,
            "roleCurrent": "receiver",
            "marblesSampled": 100,
            "probRed": 0.5,
            "lambda": 5,
            "drawnRed": 67,
            "reportedRed": 61,
            "inferredRed": 66,
            "playerTrialScore": -1,
            "oppTrialScore": 1,
            "playerTotalScore": -148,
            "oppTotalScore": -140,
            "waitTime": 5456.725276700499,
            "responseTime": 1680657660963,
            "catchQuestion": "How many <b class=\"r\">red<\/b> marbles did you actually draw (before any changes)? ",
            "catchKey": -1,
            "catchResponse": -1,
            "catchTime": 1680657646148,
            "trialTime": 0
        },
        {
            "exptPart": "trial",
            "trialNumber": 77,
            "roleCurrent": "sender",
            "marblesSampled": 100,
            "probRed": 0.5,
            "lambda": 5,
            "drawnRed": 22,
            "reportedRed": 22,
            "inferredRed": 27,
            "playerTrialScore": 0,
            "oppTrialScore": -5,
            "playerTotalScore": -148,
            "oppTotalScore": -145,
            "waitTime": 3027.439952068247,
            "responseTime": 1680657669953,
            "catchQuestion": "How many <b class=\"r\">red<\/b> marbles did you actually draw (before any changes)? ",
            "catchKey": -1,
            "catchResponse": -1,
            "catchTime": 1680657646148,
            "trialTime": 0
        },
        {
            "exptPart": "trial",
            "trialNumber": 78,
            "roleCurrent": "receiver",
            "marblesSampled": 100,
            "probRed": 0.5,
            "lambda": 5,
            "drawnRed": 45,
            "reportedRed": 36,
            "inferredRed": 44,
            "playerTrialScore": -1,
            "oppTrialScore": 1,
            "playerTotalScore": -149,
            "oppTotalScore": -144,
            "waitTime": 7151.75552304302,
            "responseTime": 1680657680093,
            "catchQuestion": "How many <b class=\"r\">red<\/b> marbles did your opponent report drawing? ",
            "catchKey": 36,
            "catchResponse": 36,
            "catchTime": 1680657680093,
            "trialTime": 0
        },
        {
            "exptPart": "trial",
            "trialNumber": 79,
            "roleCurrent": "sender",
            "marblesSampled": 100,
            "probRed": 0.5,
            "lambda": 5,
            "drawnRed": 18,
            "reportedRed": 18,
            "inferredRed": 24,
            "playerTrialScore": 0,
            "oppTrialScore": -6,
            "playerTotalScore": -149,
            "oppTotalScore": -150,
            "waitTime": 2711.3502466474974,
            "responseTime": 1680657692838,
            "catchQuestion": "How many <b class=\"r\">red<\/b> marbles did your opponent report drawing? ",
            "catchKey": -1,
            "catchResponse": -1,
            "catchTime": 1680657680093,
            "trialTime": 0
        },
        {
            "exptPart": "trial",
            "trialNumber": 80,
            "roleCurrent": "receiver",
            "marblesSampled": 100,
            "probRed": 0.5,
            "lambda": 5,
            "drawnRed": 86,
            "reportedRed": 84,
            "inferredRed": 89,
            "playerTrialScore": -3,
            "oppTrialScore": 0,
            "playerTotalScore": -152,
            "oppTotalScore": -150,
            "waitTime": 5688.041493383978,
            "responseTime": 1680657706063,
            "catchQuestion": "How many <b class=\"r\">red<\/b> marbles did your opponent report drawing? ",
            "catchKey": -1,
            "catchResponse": -1,
            "catchTime": 1680657706063,
            "trialTime": 0
        },
        {
            "exptPart": "trial",
            "trialNumber": 81,
            "roleCurrent": "sender",
            "marblesSampled": 100,
            "probRed": 0.5,
            "lambda": 5,
            "drawnRed": 61,
            "reportedRed": 61,
            "inferredRed": 61,
            "playerTrialScore": 0,
            "oppTrialScore": 0,
            "playerTotalScore": -152,
            "oppTotalScore": -150,
            "waitTime": 2954.4260327891775,
            "responseTime": 1680657715158,
            "catchQuestion": "How many <b class=\"r\">red<\/b> marbles did your opponent report drawing? ",
            "catchKey": -1,
            "catchResponse": -1,
            "catchTime": 1680657706063,
            "trialTime": 0
        },
        {
            "exptPart": "trial",
            "trialNumber": 82,
            "roleCurrent": "receiver",
            "marblesSampled": 100,
            "probRed": 0.5,
            "lambda": 5,
            "drawnRed": 49,
            "reportedRed": 43,
            "inferredRed": 47,
            "playerTrialScore": -2,
            "oppTrialScore": 2,
            "playerTotalScore": -154,
            "oppTotalScore": -148,
            "waitTime": 7456.069946605495,
            "responseTime": 1680657730725,
            "catchQuestion": "How many <b class=\"r\">red<\/b> marbles did your opponent report drawing? ",
            "catchKey": -1,
            "catchResponse": -1,
            "catchTime": 1680657706063,
            "trialTime": 0
        },
        {
            "exptPart": "trial",
            "trialNumber": 83,
            "roleCurrent": "sender",
            "marblesSampled": 100,
            "probRed": 0.5,
            "lambda": 5,
            "drawnRed": 47,
            "reportedRed": 47,
            "inferredRed": 51,
            "playerTrialScore": 0,
            "oppTrialScore": -4,
            "playerTotalScore": -154,
            "oppTotalScore": -152,
            "waitTime": 2719.5601474406867,
            "responseTime": 1680657739237,
            "catchQuestion": "How many <b class=\"r\">red<\/b> marbles did your opponent report drawing? ",
            "catchKey": -1,
            "catchResponse": -1,
            "catchTime": 1680657706063,
            "trialTime": 0
        },
        {
            "exptPart": "trial",
            "trialNumber": 84,
            "roleCurrent": "receiver",
            "marblesSampled": 100,
            "probRed": 0.5,
            "lambda": 5,
            "drawnRed": 74,
            "reportedRed": 69,
            "inferredRed": 75,
            "playerTrialScore": -1,
            "oppTrialScore": 0,
            "playerTotalScore": -155,
            "oppTotalScore": -152,
            "waitTime": 7408.939211530902,
            "responseTime": 1680657754098,
            "catchQuestion": "How many <b class=\"r\">red<\/b> marbles did your opponent report drawing? ",
            "catchKey": -1,
            "catchResponse": -1,
            "catchTime": 1680657706063,
            "trialTime": 0
        },
        {
            "exptPart": "trial",
            "trialNumber": 85,
            "roleCurrent": "sender",
            "marblesSampled": 100,
            "probRed": 0.5,
            "lambda": 5,
            "drawnRed": 79,
            "reportedRed": 79,
            "inferredRed": 83,
            "playerTrialScore": 0,
            "oppTrialScore": -4,
            "playerTotalScore": -155,
            "oppTotalScore": -156,
            "waitTime": 2703.7598959351444,
            "responseTime": 1680657763442,
            "catchQuestion": "How many <b class=\"r\">red<\/b> marbles did your opponent report drawing? ",
            "catchKey": -1,
            "catchResponse": -1,
            "catchTime": 1680657763442,
            "trialTime": 0
        },
        {
            "exptPart": "trial",
            "trialNumber": 86,
            "roleCurrent": "receiver",
            "marblesSampled": 100,
            "probRed": 0.5,
            "lambda": 5,
            "drawnRed": 22,
            "reportedRed": 15,
            "inferredRed": 20,
            "playerTrialScore": -2,
            "oppTrialScore": 2,
            "playerTotalScore": -157,
            "oppTotalScore": -154,
            "waitTime": 7066.614903272677,
            "responseTime": 1680657777785,
            "catchQuestion": "How many <b class=\"r\">red<\/b> marbles did your opponent report drawing? ",
            "catchKey": -1,
            "catchResponse": -1,
            "catchTime": 1680657763442,
            "trialTime": 0
        },
        {
            "exptPart": "trial",
            "trialNumber": 87,
            "roleCurrent": "sender",
            "marblesSampled": 100,
            "probRed": 0.5,
            "lambda": 5,
            "drawnRed": 23,
            "reportedRed": 23,
            "inferredRed": 30,
            "playerTrialScore": 0,
            "oppTrialScore": -7,
            "playerTotalScore": -157,
            "oppTotalScore": -161,
            "waitTime": 2636.1530460514414,
            "responseTime": 1680657784409,
            "catchQuestion": "How many <b class=\"r\">red<\/b> marbles did your opponent report drawing? ",
            "catchKey": -1,
            "catchResponse": -1,
            "catchTime": 1680657763442,
            "trialTime": 0
        },
        {
            "exptPart": "trial",
            "trialNumber": 88,
            "roleCurrent": "receiver",
            "marblesSampled": 100,
            "probRed": 0.5,
            "lambda": 5,
            "drawnRed": 38,
            "reportedRed": 30,
            "inferredRed": 35,
            "playerTrialScore": -3,
            "oppTrialScore": 3,
            "playerTotalScore": -160,
            "oppTotalScore": -158,
            "waitTime": 5810.9907787286365,
            "responseTime": 1680657793501,
            "catchQuestion": "How many <b class=\"r\">red<\/b> marbles did your opponent report drawing? ",
            "catchKey": 30,
            "catchResponse": 30,
            "catchTime": 1680657793501,
            "trialTime": 0
        },
        {
            "exptPart": "trial",
            "trialNumber": 89,
            "roleCurrent": "sender",
            "marblesSampled": 100,
            "probRed": 0.5,
            "lambda": 5,
            "drawnRed": 40,
            "reportedRed": 40,
            "inferredRed": 47,
            "playerTrialScore": 0,
            "oppTrialScore": -7,
            "playerTotalScore": -160,
            "oppTotalScore": -165,
            "waitTime": 3067.117113149784,
            "responseTime": 1680657809245,
            "catchQuestion": "How many <b class=\"r\">red<\/b> marbles did your opponent report drawing? ",
            "catchKey": -1,
            "catchResponse": -1,
            "catchTime": 1680657793501,
            "trialTime": 0
        },
        {
            "exptPart": "trial",
            "trialNumber": 90,
            "roleCurrent": "receiver",
            "marblesSampled": 100,
            "probRed": 0.5,
            "lambda": 5,
            "drawnRed": 70,
            "reportedRed": 64,
            "inferredRed": 66,
            "playerTrialScore": -4,
            "oppTrialScore": 4,
            "playerTotalScore": -164,
            "oppTotalScore": -161,
            "waitTime": 5226.371868992852,
            "responseTime": 1680657817413,
            "catchQuestion": "How many <b class=\"r\">red<\/b> marbles did your opponent report drawing? ",
            "catchKey": -1,
            "catchResponse": -1,
            "catchTime": 1680657817413,
            "trialTime": 0
        },
        {
            "exptPart": "trial",
            "trialNumber": 91,
            "roleCurrent": "sender",
            "marblesSampled": 100,
            "probRed": 0.5,
            "lambda": 5,
            "drawnRed": 78,
            "reportedRed": 78,
            "inferredRed": 84,
            "playerTrialScore": 0,
            "oppTrialScore": -6,
            "playerTotalScore": -164,
            "oppTotalScore": -167,
            "waitTime": 2310.6651963770837,
            "responseTime": 1680657826460,
            "catchQuestion": "How many <b class=\"r\">red<\/b> marbles did your opponent report drawing? ",
            "catchKey": -1,
            "catchResponse": -1,
            "catchTime": 1680657817413,
            "trialTime": 0
        },
        {
            "exptPart": "trial",
            "trialNumber": 92,
            "roleCurrent": "receiver",
            "marblesSampled": 100,
            "probRed": 0.5,
            "lambda": 5,
            "drawnRed": 65,
            "reportedRed": 62,
            "inferredRed": 66,
            "playerTrialScore": -1,
            "oppTrialScore": 0,
            "playerTotalScore": -165,
            "oppTotalScore": -167,
            "waitTime": 7071.356629805865,
            "responseTime": 1680657837329,
            "catchQuestion": "How many <b class=\"r\">red<\/b> marbles did your opponent report drawing? ",
            "catchKey": -1,
            "catchResponse": -1,
            "catchTime": 1680657817413,
            "trialTime": 0
        },
        {
            "exptPart": "trial",
            "trialNumber": 93,
            "roleCurrent": "sender",
            "marblesSampled": 100,
            "probRed": 0.5,
            "lambda": 5,
            "drawnRed": 85,
            "reportedRed": 85,
            "inferredRed": 91,
            "playerTrialScore": 0,
            "oppTrialScore": -6,
            "playerTotalScore": -165,
            "oppTotalScore": -173,
            "waitTime": 3031.659230139766,
            "responseTime": 1680657846002,
            "catchQuestion": "How many <b class=\"r\">red<\/b> marbles did your opponent report drawing? ",
            "catchKey": -1,
            "catchResponse": -1,
            "catchTime": 1680657817413,
            "trialTime": 0
        },
        {
            "exptPart": "trial",
            "trialNumber": 94,
            "roleCurrent": "receiver",
            "marblesSampled": 100,
            "probRed": 0.5,
            "lambda": 5,
            "drawnRed": 72,
            "reportedRed": 70,
            "inferredRed": 77,
            "playerTrialScore": -5,
            "oppTrialScore": 0,
            "playerTotalScore": -170,
            "oppTotalScore": -173,
            "waitTime": 6711.0548875382665,
            "responseTime": 1680657860415,
            "catchQuestion": "How many <b class=\"r\">red<\/b> marbles did your opponent report drawing? ",
            "catchKey": -1,
            "catchResponse": -1,
            "catchTime": 1680657817413,
            "trialTime": 0
        },
        {
            "exptPart": "trial",
            "trialNumber": 95,
            "roleCurrent": "sender",
            "marblesSampled": 100,
            "probRed": 0.5,
            "lambda": 5,
            "drawnRed": 37,
            "reportedRed": 37,
            "inferredRed": 41,
            "playerTrialScore": 0,
            "oppTrialScore": -4,
            "playerTotalScore": -170,
            "oppTotalScore": -177,
            "waitTime": 3072.6703055174708,
            "responseTime": 1680657873799,
            "catchQuestion": "How many <b class=\"r\">red<\/b> marbles did your opponent report drawing? ",
            "catchKey": -1,
            "catchResponse": -1,
            "catchTime": 1680657873799,
            "trialTime": 0
        },
        {
            "exptPart": "trial",
            "trialNumber": 96,
            "roleCurrent": "receiver",
            "marblesSampled": 100,
            "probRed": 0.5,
            "lambda": 5,
            "drawnRed": 33,
            "reportedRed": 26,
            "inferredRed": 33,
            "playerTrialScore": 0,
            "oppTrialScore": 0,
            "playerTotalScore": -170,
            "oppTotalScore": -177,
            "waitTime": 6710.55277126892,
            "responseTime": 1680657885828,
            "catchQuestion": "How many <b class=\"r\">red<\/b> marbles did your opponent report drawing? ",
            "catchKey": -1,
            "catchResponse": -1,
            "catchTime": 1680657873799,
            "trialTime": 0
        },
        {
            "exptPart": "trial",
            "trialNumber": 97,
            "roleCurrent": "sender",
            "marblesSampled": 100,
            "probRed": 0.5,
            "lambda": 5,
            "drawnRed": 84,
            "reportedRed": 84,
            "inferredRed": 92,
            "playerTrialScore": 0,
            "oppTrialScore": -8,
            "playerTotalScore": -170,
            "oppTotalScore": -185,
            "waitTime": 3219.7590560231038,
            "responseTime": 1680657894201,
            "catchQuestion": "How many <b class=\"r\">red<\/b> marbles did your opponent report drawing? ",
            "catchKey": -1,
            "catchResponse": -1,
            "catchTime": 1680657873799,
            "trialTime": 0
        },
        {
            "exptPart": "trial",
            "trialNumber": 98,
            "roleCurrent": "receiver",
            "marblesSampled": 100,
            "probRed": 0.5,
            "lambda": 5,
            "drawnRed": 71,
            "reportedRed": 69,
            "inferredRed": 77,
            "playerTrialScore": -6,
            "oppTrialScore": 0,
            "playerTotalScore": -176,
            "oppTotalScore": -185,
            "waitTime": 6212.379714649141,
            "responseTime": 1680657904970,
            "catchQuestion": "How many <b class=\"r\">red<\/b> marbles did your opponent report drawing? ",
            "catchKey": -1,
            "catchResponse": -1,
            "catchTime": 1680657873799,
            "trialTime": 0
        },
        {
            "exptPart": "trial",
            "trialNumber": 99,
            "roleCurrent": "sender",
            "marblesSampled": 100,
            "probRed": 0.5,
            "lambda": 5,
            "drawnRed": 43,
            "reportedRed": 43,
            "inferredRed": 49,
            "playerTrialScore": 0,
            "oppTrialScore": -6,
            "playerTotalScore": -176,
            "oppTotalScore": -191,
            "waitTime": 3236.320864599219,
            "responseTime": 1680657912650,
            "catchQuestion": "How many <b class=\"r\">red<\/b> marbles did your opponent report drawing? ",
            "catchKey": -1,
            "catchResponse": -1,
            "catchTime": 1680657873799,
            "trialTime": 0
        },
        {
            "exptPart": "trial",
            "trialNumber": 100,
            "roleCurrent": "receiver",
            "marblesSampled": 100,
            "probRed": 0.5,
            "lambda": 5,
            "drawnRed": 57,
            "reportedRed": 52,
            "inferredRed": 55,
            "playerTrialScore": -2,
            "oppTrialScore": 2,
            "playerTotalScore": -178,
            "oppTotalScore": -189,
            "waitTime": 6379.048432665433,
            "responseTime": 1680657922196,
            "catchQuestion": "How many <b class=\"r\">red<\/b> marbles did your opponent report drawing? ",
            "catchKey": -1,
            "catchResponse": -1,
            "catchTime": 1680657922196,
            "trialTime": 0
        }
    ]
}