{
    "client": {
        "type": "sona",
        "experiment_id": 2228,
        "credit_token": "b315147ae43241ea9c65086cb510cfb7",
        "survey_code": "46170",
        "sid": "sona-46170",
        "window": {
            "width": 1280,
            "height": 601
        },
        "screen": {
            "width": 1280,
            "height": 720
        },
        "userAgent": "Mozilla\/5.0 (Windows NT 10.0; Win64; x64) AppleWebKit\/537.36 (KHTML, like Gecko) Chrome\/110.0.0.0 Safari\/537.36",
        "score": 0,
        "bonus": 0
    },
    "expt": {
        "saveURL": "submit.simple.php",
        "trials": 100,
        "practiceTrials": 2,
        "marblesSampled": 100,
        "probRed": 0.5,
        "lambdaAI": 5,
        "roleFirst": "sender",
        "roles": [
            "sender",
            "receiver"
        ],
        "cost": "linear",
        "goal": "over",
        "goalInstructTxt": "below",
        "catchTrials": [
            61,
            72,
            50,
            14,
            28,
            86,
            55,
            20,
            25,
            59
        ],
        "scoreTotal": {
            "player": -358,
            "opp": 14
        },
        "sona": {
            "experiment_id": 2228,
            "credit_token": "b315147ae43241ea9c65086cb510cfb7"
        },
        "pilot": false,
        "debug": false
    },
    "trials": [
        {
            "exptPart": "practice",
            "trialNumber": 1,
            "roleCurrent": "sender",
            "marblesSampled": 100,
            "probRed": 0.5,
            "lambda": 5,
            "drawnRed": 20,
            "reportedRed": 21,
            "inferredRed": 15,
            "playerTrialScore": 0,
            "oppTrialScore": -5,
            "playerTotalScore": 0,
            "oppTotalScore": -5,
            "waitTime": 2679.1693171037814,
            "responseTime": 1678862010723,
            "catchQuestion": "How many <b class=\"r\">red<\/b> marbles did you actually draw (before any changes)? ",
            "catchKey": 20,
            "catchResponse": 20,
            "catchTime": 1678862010724,
            "trialTime": 0
        },
        {
            "exptPart": "practice",
            "trialNumber": 2,
            "roleCurrent": "receiver",
            "marblesSampled": 100,
            "probRed": 0.5,
            "lambda": 5,
            "drawnRed": 88,
            "reportedRed": 95,
            "inferredRed": 95,
            "playerTrialScore": -7,
            "oppTrialScore": 7,
            "playerTotalScore": -7,
            "oppTotalScore": 2,
            "waitTime": 5657.532309322115,
            "responseTime": 1678862051063,
            "catchQuestion": "How many <b class=\"r\">red<\/b> marbles did your opponent report drawing? ",
            "catchKey": 95,
            "catchResponse": 95,
            "catchTime": 1678862051063,
            "trialTime": 0
        },
        {
            "exptPart": "trial",
            "trialNumber": 1,
            "roleCurrent": "sender",
            "marblesSampled": 100,
            "probRed": 0.5,
            "lambda": 5,
            "drawnRed": 34,
            "reportedRed": 34,
            "inferredRed": 33,
            "playerTrialScore": 0,
            "oppTrialScore": -1,
            "playerTotalScore": 0,
            "oppTotalScore": -1,
            "waitTime": 2289.092600068304,
            "responseTime": 1678862082046,
            "catchQuestion": "How many <b class=\"r\">red<\/b> marbles did your opponent report drawing? ",
            "catchKey": -1,
            "catchResponse": -1,
            "catchTime": 1678862051063,
            "trialTime": 0
        },
        {
            "exptPart": "trial",
            "trialNumber": 2,
            "roleCurrent": "receiver",
            "marblesSampled": 100,
            "probRed": 0.5,
            "lambda": 5,
            "drawnRed": 38,
            "reportedRed": 43,
            "inferredRed": 40,
            "playerTrialScore": -2,
            "oppTrialScore": 2,
            "playerTotalScore": -2,
            "oppTotalScore": 1,
            "waitTime": 6675.545977136964,
            "responseTime": 1678862099985,
            "catchQuestion": "How many <b class=\"r\">red<\/b> marbles did your opponent report drawing? ",
            "catchKey": -1,
            "catchResponse": -1,
            "catchTime": 1678862051063,
            "trialTime": 0
        },
        {
            "exptPart": "trial",
            "trialNumber": 3,
            "roleCurrent": "sender",
            "marblesSampled": 100,
            "probRed": 0.5,
            "lambda": 5,
            "drawnRed": 41,
            "reportedRed": 41,
            "inferredRed": 36,
            "playerTrialScore": 0,
            "oppTrialScore": -5,
            "playerTotalScore": -2,
            "oppTotalScore": -4,
            "waitTime": 2949.924705872117,
            "responseTime": 1678862126171,
            "catchQuestion": "How many <b class=\"r\">red<\/b> marbles did your opponent report drawing? ",
            "catchKey": -1,
            "catchResponse": -1,
            "catchTime": 1678862051063,
            "trialTime": 0
        },
        {
            "exptPart": "trial",
            "trialNumber": 4,
            "roleCurrent": "receiver",
            "marblesSampled": 100,
            "probRed": 0.5,
            "lambda": 5,
            "drawnRed": 68,
            "reportedRed": 70,
            "inferredRed": 65,
            "playerTrialScore": -3,
            "oppTrialScore": 0,
            "playerTotalScore": -5,
            "oppTotalScore": -4,
            "waitTime": 5652.705628853506,
            "responseTime": 1678862141194,
            "catchQuestion": "How many <b class=\"r\">red<\/b> marbles did your opponent report drawing? ",
            "catchKey": -1,
            "catchResponse": -1,
            "catchTime": 1678862051063,
            "trialTime": 0
        },
        {
            "exptPart": "trial",
            "trialNumber": 5,
            "roleCurrent": "sender",
            "marblesSampled": 100,
            "probRed": 0.5,
            "lambda": 5,
            "drawnRed": 38,
            "reportedRed": 39,
            "inferredRed": 35,
            "playerTrialScore": 0,
            "oppTrialScore": -3,
            "playerTotalScore": -5,
            "oppTotalScore": -7,
            "waitTime": 2227.1421334028955,
            "responseTime": 1678862171787,
            "catchQuestion": "How many <b class=\"r\">red<\/b> marbles did your opponent report drawing? ",
            "catchKey": -1,
            "catchResponse": -1,
            "catchTime": 1678862171787,
            "trialTime": 0
        },
        {
            "exptPart": "trial",
            "trialNumber": 6,
            "roleCurrent": "receiver",
            "marblesSampled": 100,
            "probRed": 0.5,
            "lambda": 5,
            "drawnRed": 62,
            "reportedRed": 65,
            "inferredRed": 62,
            "playerTrialScore": 0,
            "oppTrialScore": 0,
            "playerTotalScore": -5,
            "oppTotalScore": -7,
            "waitTime": 6101.479177233667,
            "responseTime": 1678862190346,
            "catchQuestion": "How many <b class=\"r\">red<\/b> marbles did your opponent report drawing? ",
            "catchKey": -1,
            "catchResponse": -1,
            "catchTime": 1678862171787,
            "trialTime": 0
        },
        {
            "exptPart": "trial",
            "trialNumber": 7,
            "roleCurrent": "sender",
            "marblesSampled": 100,
            "probRed": 0.5,
            "lambda": 5,
            "drawnRed": 62,
            "reportedRed": 61,
            "inferredRed": 59,
            "playerTrialScore": 0,
            "oppTrialScore": -3,
            "playerTotalScore": -5,
            "oppTotalScore": -10,
            "waitTime": 3093.8210371986206,
            "responseTime": 1678862208207,
            "catchQuestion": "How many <b class=\"r\">red<\/b> marbles did your opponent report drawing? ",
            "catchKey": -1,
            "catchResponse": -1,
            "catchTime": 1678862171787,
            "trialTime": 0
        },
        {
            "exptPart": "trial",
            "trialNumber": 8,
            "roleCurrent": "receiver",
            "marblesSampled": 100,
            "probRed": 0.5,
            "lambda": 5,
            "drawnRed": 79,
            "reportedRed": 83,
            "inferredRed": 84,
            "playerTrialScore": -5,
            "oppTrialScore": 5,
            "playerTotalScore": -10,
            "oppTotalScore": -5,
            "waitTime": 5944.847213958923,
            "responseTime": 1678862225428,
            "catchQuestion": "How many <b class=\"r\">red<\/b> marbles did your opponent report drawing? ",
            "catchKey": -1,
            "catchResponse": -1,
            "catchTime": 1678862171787,
            "trialTime": 0
        },
        {
            "exptPart": "trial",
            "trialNumber": 9,
            "roleCurrent": "sender",
            "marblesSampled": 100,
            "probRed": 0.5,
            "lambda": 5,
            "drawnRed": 39,
            "reportedRed": 41,
            "inferredRed": 36,
            "playerTrialScore": 0,
            "oppTrialScore": -3,
            "playerTotalScore": -10,
            "oppTotalScore": -8,
            "waitTime": 2237.3912004989397,
            "responseTime": 1678862248557,
            "catchQuestion": "How many <b class=\"r\">red<\/b> marbles did your opponent report drawing? ",
            "catchKey": -1,
            "catchResponse": -1,
            "catchTime": 1678862171787,
            "trialTime": 0
        },
        {
            "exptPart": "trial",
            "trialNumber": 10,
            "roleCurrent": "receiver",
            "marblesSampled": 100,
            "probRed": 0.5,
            "lambda": 5,
            "drawnRed": 52,
            "reportedRed": 60,
            "inferredRed": 58,
            "playerTrialScore": -6,
            "oppTrialScore": 6,
            "playerTotalScore": -16,
            "oppTotalScore": -2,
            "waitTime": 6330.01617014928,
            "responseTime": 1678862258854,
            "catchQuestion": "How many <b class=\"r\">red<\/b> marbles did your opponent report drawing? ",
            "catchKey": -1,
            "catchResponse": -1,
            "catchTime": 1678862258854,
            "trialTime": 0
        },
        {
            "exptPart": "trial",
            "trialNumber": 11,
            "roleCurrent": "sender",
            "marblesSampled": 100,
            "probRed": 0.5,
            "lambda": 5,
            "drawnRed": 54,
            "reportedRed": 58,
            "inferredRed": 55,
            "playerTrialScore": 1,
            "oppTrialScore": -1,
            "playerTotalScore": -15,
            "oppTotalScore": -3,
            "waitTime": 3116.7357958592875,
            "responseTime": 1678862290010,
            "catchQuestion": "How many <b class=\"r\">red<\/b> marbles did your opponent report drawing? ",
            "catchKey": -1,
            "catchResponse": -1,
            "catchTime": 1678862258854,
            "trialTime": 0
        },
        {
            "exptPart": "trial",
            "trialNumber": 12,
            "roleCurrent": "receiver",
            "marblesSampled": 100,
            "probRed": 0.5,
            "lambda": 5,
            "drawnRed": 63,
            "reportedRed": 69,
            "inferredRed": 65,
            "playerTrialScore": -2,
            "oppTrialScore": 2,
            "playerTotalScore": -17,
            "oppTotalScore": -1,
            "waitTime": 6910.730519092591,
            "responseTime": 1678862308570,
            "catchQuestion": "How many <b class=\"r\">red<\/b> marbles did your opponent report drawing? ",
            "catchKey": -1,
            "catchResponse": -1,
            "catchTime": 1678862258854,
            "trialTime": 0
        },
        {
            "exptPart": "trial",
            "trialNumber": 13,
            "roleCurrent": "sender",
            "marblesSampled": 100,
            "probRed": 0.5,
            "lambda": 5,
            "drawnRed": 33,
            "reportedRed": 39,
            "inferredRed": 35,
            "playerTrialScore": 2,
            "oppTrialScore": -2,
            "playerTotalScore": -15,
            "oppTotalScore": -3,
            "waitTime": 3212.959887409422,
            "responseTime": 1678862328476,
            "catchQuestion": "How many <b class=\"r\">red<\/b> marbles did your opponent report drawing? ",
            "catchKey": -1,
            "catchResponse": -1,
            "catchTime": 1678862258854,
            "trialTime": 0
        },
        {
            "exptPart": "trial",
            "trialNumber": 14,
            "roleCurrent": "receiver",
            "marblesSampled": 100,
            "probRed": 0.5,
            "lambda": 5,
            "drawnRed": 47,
            "reportedRed": 48,
            "inferredRed": 44,
            "playerTrialScore": -3,
            "oppTrialScore": 0,
            "playerTotalScore": -18,
            "oppTotalScore": -3,
            "waitTime": 5969.028742856164,
            "responseTime": 1678862342207,
            "catchQuestion": "How many <b class=\"r\">red<\/b> marbles did your opponent report drawing? ",
            "catchKey": -1,
            "catchResponse": -1,
            "catchTime": 1678862258854,
            "trialTime": 0
        },
        {
            "exptPart": "trial",
            "trialNumber": 15,
            "roleCurrent": "sender",
            "marblesSampled": 100,
            "probRed": 0.5,
            "lambda": 5,
            "drawnRed": 61,
            "reportedRed": 63,
            "inferredRed": 57,
            "playerTrialScore": 0,
            "oppTrialScore": -4,
            "playerTotalScore": -18,
            "oppTotalScore": -7,
            "waitTime": 3033.481332903875,
            "responseTime": 1678862358036,
            "catchQuestion": "How many <b class=\"r\">red<\/b> marbles did you actually draw (before any changes)? ",
            "catchKey": 61,
            "catchResponse": 39,
            "catchTime": 1678862358036,
            "trialTime": 0
        },
        {
            "exptPart": "trial",
            "trialNumber": 16,
            "roleCurrent": "receiver",
            "marblesSampled": 100,
            "probRed": 0.5,
            "lambda": 5,
            "drawnRed": 65,
            "reportedRed": 70,
            "inferredRed": 73,
            "playerTrialScore": -8,
            "oppTrialScore": 8,
            "playerTotalScore": -26,
            "oppTotalScore": 1,
            "waitTime": 6836.3016253677815,
            "responseTime": 1678862388458,
            "catchQuestion": "How many <b class=\"r\">red<\/b> marbles did you actually draw (before any changes)? ",
            "catchKey": -1,
            "catchResponse": -1,
            "catchTime": 1678862358036,
            "trialTime": 0
        },
        {
            "exptPart": "trial",
            "trialNumber": 17,
            "roleCurrent": "sender",
            "marblesSampled": 100,
            "probRed": 0.5,
            "lambda": 5,
            "drawnRed": 27,
            "reportedRed": 29,
            "inferredRed": 26,
            "playerTrialScore": 0,
            "oppTrialScore": -1,
            "playerTotalScore": -26,
            "oppTotalScore": 0,
            "waitTime": 2639.9850760705967,
            "responseTime": 1678862403806,
            "catchQuestion": "How many <b class=\"r\">red<\/b> marbles did you actually draw (before any changes)? ",
            "catchKey": -1,
            "catchResponse": -1,
            "catchTime": 1678862358036,
            "trialTime": 0
        },
        {
            "exptPart": "trial",
            "trialNumber": 18,
            "roleCurrent": "receiver",
            "marblesSampled": 100,
            "probRed": 0.5,
            "lambda": 5,
            "drawnRed": 43,
            "reportedRed": 50,
            "inferredRed": 53,
            "playerTrialScore": -10,
            "oppTrialScore": 10,
            "playerTotalScore": -36,
            "oppTotalScore": 10,
            "waitTime": 6895.990562064001,
            "responseTime": 1678862419959,
            "catchQuestion": "How many <b class=\"r\">red<\/b> marbles did you actually draw (before any changes)? ",
            "catchKey": -1,
            "catchResponse": -1,
            "catchTime": 1678862358036,
            "trialTime": 0
        },
        {
            "exptPart": "trial",
            "trialNumber": 19,
            "roleCurrent": "sender",
            "marblesSampled": 100,
            "probRed": 0.5,
            "lambda": 5,
            "drawnRed": 75,
            "reportedRed": 79,
            "inferredRed": 75,
            "playerTrialScore": 0,
            "oppTrialScore": 0,
            "playerTotalScore": -36,
            "oppTotalScore": 10,
            "waitTime": 3105.3339882146593,
            "responseTime": 1678862437625,
            "catchQuestion": "How many <b class=\"r\">red<\/b> marbles did you actually draw (before any changes)? ",
            "catchKey": -1,
            "catchResponse": -1,
            "catchTime": 1678862358036,
            "trialTime": 0
        },
        {
            "exptPart": "trial",
            "trialNumber": 20,
            "roleCurrent": "receiver",
            "marblesSampled": 100,
            "probRed": 0.5,
            "lambda": 5,
            "drawnRed": 63,
            "reportedRed": 66,
            "inferredRed": 69,
            "playerTrialScore": -6,
            "oppTrialScore": 6,
            "playerTotalScore": -42,
            "oppTotalScore": 16,
            "waitTime": 6070.510518573257,
            "responseTime": 1678862449518,
            "catchQuestion": "How many <b class=\"r\">red<\/b> marbles did you actually draw (before any changes)? ",
            "catchKey": -1,
            "catchResponse": -1,
            "catchTime": 1678862449519,
            "trialTime": 0
        },
        {
            "exptPart": "trial",
            "trialNumber": 21,
            "roleCurrent": "sender",
            "marblesSampled": 100,
            "probRed": 0.5,
            "lambda": 5,
            "drawnRed": 59,
            "reportedRed": 66,
            "inferredRed": 60,
            "playerTrialScore": 1,
            "oppTrialScore": -1,
            "playerTotalScore": -41,
            "oppTotalScore": 15,
            "waitTime": 2752.004950648991,
            "responseTime": 1678862479031,
            "catchQuestion": "How many <b class=\"r\">red<\/b> marbles did you actually draw (before any changes)? ",
            "catchKey": 59,
            "catchResponse": 53,
            "catchTime": 1678862479031,
            "trialTime": 0
        },
        {
            "exptPart": "trial",
            "trialNumber": 22,
            "roleCurrent": "receiver",
            "marblesSampled": 100,
            "probRed": 0.5,
            "lambda": 5,
            "drawnRed": 29,
            "reportedRed": 35,
            "inferredRed": 37,
            "playerTrialScore": -8,
            "oppTrialScore": 8,
            "playerTotalScore": -49,
            "oppTotalScore": 23,
            "waitTime": 5755.922200092549,
            "responseTime": 1678862506199,
            "catchQuestion": "How many <b class=\"r\">red<\/b> marbles did you actually draw (before any changes)? ",
            "catchKey": -1,
            "catchResponse": -1,
            "catchTime": 1678862479031,
            "trialTime": 0
        },
        {
            "exptPart": "trial",
            "trialNumber": 23,
            "roleCurrent": "sender",
            "marblesSampled": 100,
            "probRed": 0.5,
            "lambda": 5,
            "drawnRed": 53,
            "reportedRed": 53,
            "inferredRed": 49,
            "playerTrialScore": 0,
            "oppTrialScore": -4,
            "playerTotalScore": -49,
            "oppTotalScore": 19,
            "waitTime": 2294.6706351781318,
            "responseTime": 1678862516231,
            "catchQuestion": "How many <b class=\"r\">red<\/b> marbles did you actually draw (before any changes)? ",
            "catchKey": -1,
            "catchResponse": -1,
            "catchTime": 1678862479031,
            "trialTime": 0
        },
        {
            "exptPart": "trial",
            "trialNumber": 24,
            "roleCurrent": "receiver",
            "marblesSampled": 100,
            "probRed": 0.5,
            "lambda": 5,
            "drawnRed": 62,
            "reportedRed": 69,
            "inferredRed": 69,
            "playerTrialScore": -7,
            "oppTrialScore": 7,
            "playerTotalScore": -56,
            "oppTotalScore": 26,
            "waitTime": 6061.721468400281,
            "responseTime": 1678862526145,
            "catchQuestion": "How many <b class=\"r\">red<\/b> marbles did you actually draw (before any changes)? ",
            "catchKey": -1,
            "catchResponse": -1,
            "catchTime": 1678862479031,
            "trialTime": 0
        },
        {
            "exptPart": "trial",
            "trialNumber": 25,
            "roleCurrent": "sender",
            "marblesSampled": 100,
            "probRed": 0.5,
            "lambda": 5,
            "drawnRed": 20,
            "reportedRed": 29,
            "inferredRed": 25,
            "playerTrialScore": 5,
            "oppTrialScore": -5,
            "playerTotalScore": -51,
            "oppTotalScore": 21,
            "waitTime": 2464.6134920663053,
            "responseTime": 1678862552897,
            "catchQuestion": "How many <b class=\"r\">red<\/b> marbles did you actually draw (before any changes)? ",
            "catchKey": -1,
            "catchResponse": -1,
            "catchTime": 1678862552898,
            "trialTime": 0
        },
        {
            "exptPart": "trial",
            "trialNumber": 26,
            "roleCurrent": "receiver",
            "marblesSampled": 100,
            "probRed": 0.5,
            "lambda": 5,
            "drawnRed": 14,
            "reportedRed": 18,
            "inferredRed": 17,
            "playerTrialScore": -3,
            "oppTrialScore": 3,
            "playerTotalScore": -54,
            "oppTotalScore": 24,
            "waitTime": 7186.999522216436,
            "responseTime": 1678862574516,
            "catchQuestion": "How many <b class=\"r\">red<\/b> marbles did your opponent report drawing? ",
            "catchKey": 18,
            "catchResponse": 18,
            "catchTime": 1678862574516,
            "trialTime": 0
        },
        {
            "exptPart": "trial",
            "trialNumber": 27,
            "roleCurrent": "sender",
            "marblesSampled": 100,
            "probRed": 0.5,
            "lambda": 5,
            "drawnRed": 34,
            "reportedRed": 24,
            "inferredRed": 18,
            "playerTrialScore": 0,
            "oppTrialScore": -16,
            "playerTotalScore": -54,
            "oppTotalScore": 8,
            "waitTime": 2337.894279672624,
            "responseTime": 1678862614321,
            "catchQuestion": "How many <b class=\"r\">red<\/b> marbles did your opponent report drawing? ",
            "catchKey": -1,
            "catchResponse": -1,
            "catchTime": 1678862574516,
            "trialTime": 0
        },
        {
            "exptPart": "trial",
            "trialNumber": 28,
            "roleCurrent": "receiver",
            "marblesSampled": 100,
            "probRed": 0.5,
            "lambda": 5,
            "drawnRed": 42,
            "reportedRed": 47,
            "inferredRed": 44,
            "playerTrialScore": -2,
            "oppTrialScore": 2,
            "playerTotalScore": -56,
            "oppTotalScore": 10,
            "waitTime": 7157.420185444855,
            "responseTime": 1678862640373,
            "catchQuestion": "How many <b class=\"r\">red<\/b> marbles did your opponent report drawing? ",
            "catchKey": -1,
            "catchResponse": -1,
            "catchTime": 1678862574516,
            "trialTime": 0
        },
        {
            "exptPart": "trial",
            "trialNumber": 29,
            "roleCurrent": "sender",
            "marblesSampled": 100,
            "probRed": 0.5,
            "lambda": 5,
            "drawnRed": 48,
            "reportedRed": 56,
            "inferredRed": 54,
            "playerTrialScore": 6,
            "oppTrialScore": -6,
            "playerTotalScore": -50,
            "oppTotalScore": 4,
            "waitTime": 2618.7406545028425,
            "responseTime": 1678862670496,
            "catchQuestion": "How many <b class=\"r\">red<\/b> marbles did you actually draw (before any changes)? ",
            "catchKey": 48,
            "catchResponse": 48,
            "catchTime": 1678862670496,
            "trialTime": 0
        },
        {
            "exptPart": "trial",
            "trialNumber": 30,
            "roleCurrent": "receiver",
            "marblesSampled": 100,
            "probRed": 0.5,
            "lambda": 5,
            "drawnRed": 15,
            "reportedRed": 22,
            "inferredRed": 22,
            "playerTrialScore": -7,
            "oppTrialScore": 7,
            "playerTotalScore": -57,
            "oppTotalScore": 11,
            "waitTime": 5524.63302289815,
            "responseTime": 1678862683517,
            "catchQuestion": "How many <b class=\"r\">red<\/b> marbles did you actually draw (before any changes)? ",
            "catchKey": -1,
            "catchResponse": -1,
            "catchTime": 1678862683517,
            "trialTime": 0
        },
        {
            "exptPart": "trial",
            "trialNumber": 31,
            "roleCurrent": "sender",
            "marblesSampled": 100,
            "probRed": 0.5,
            "lambda": 5,
            "drawnRed": 18,
            "reportedRed": 18,
            "inferredRed": 12,
            "playerTrialScore": 0,
            "oppTrialScore": -6,
            "playerTotalScore": -57,
            "oppTotalScore": 5,
            "waitTime": 2939.8226451478495,
            "responseTime": 1678862699585,
            "catchQuestion": "How many <b class=\"r\">red<\/b> marbles did you actually draw (before any changes)? ",
            "catchKey": -1,
            "catchResponse": -1,
            "catchTime": 1678862683517,
            "trialTime": 0
        },
        {
            "exptPart": "trial",
            "trialNumber": 32,
            "roleCurrent": "receiver",
            "marblesSampled": 100,
            "probRed": 0.5,
            "lambda": 5,
            "drawnRed": 79,
            "reportedRed": 87,
            "inferredRed": 87,
            "playerTrialScore": -8,
            "oppTrialScore": 8,
            "playerTotalScore": -65,
            "oppTotalScore": 13,
            "waitTime": 5148.75697868128,
            "responseTime": 1678862709053,
            "catchQuestion": "How many <b class=\"r\">red<\/b> marbles did you actually draw (before any changes)? ",
            "catchKey": -1,
            "catchResponse": -1,
            "catchTime": 1678862683517,
            "trialTime": 0
        },
        {
            "exptPart": "trial",
            "trialNumber": 33,
            "roleCurrent": "sender",
            "marblesSampled": 100,
            "probRed": 0.5,
            "lambda": 5,
            "drawnRed": 43,
            "reportedRed": 43,
            "inferredRed": 40,
            "playerTrialScore": 0,
            "oppTrialScore": -3,
            "playerTotalScore": -65,
            "oppTotalScore": 10,
            "waitTime": 3224.771506394581,
            "responseTime": 1678862718165,
            "catchQuestion": "How many <b class=\"r\">red<\/b> marbles did you actually draw (before any changes)? ",
            "catchKey": -1,
            "catchResponse": -1,
            "catchTime": 1678862683517,
            "trialTime": 0
        },
        {
            "exptPart": "trial",
            "trialNumber": 34,
            "roleCurrent": "receiver",
            "marblesSampled": 100,
            "probRed": 0.5,
            "lambda": 5,
            "drawnRed": 57,
            "reportedRed": 60,
            "inferredRed": 60,
            "playerTrialScore": -3,
            "oppTrialScore": 3,
            "playerTotalScore": -68,
            "oppTotalScore": 13,
            "waitTime": 5467.939622785776,
            "responseTime": 1678862727100,
            "catchQuestion": "How many <b class=\"r\">red<\/b> marbles did you actually draw (before any changes)? ",
            "catchKey": -1,
            "catchResponse": -1,
            "catchTime": 1678862683517,
            "trialTime": 0
        },
        {
            "exptPart": "trial",
            "trialNumber": 35,
            "roleCurrent": "sender",
            "marblesSampled": 100,
            "probRed": 0.5,
            "lambda": 5,
            "drawnRed": 53,
            "reportedRed": 53,
            "inferredRed": 48,
            "playerTrialScore": 0,
            "oppTrialScore": -5,
            "playerTotalScore": -68,
            "oppTotalScore": 8,
            "waitTime": 2150.5758675441884,
            "responseTime": 1678862735591,
            "catchQuestion": "How many <b class=\"r\">red<\/b> marbles did you actually draw (before any changes)? ",
            "catchKey": -1,
            "catchResponse": -1,
            "catchTime": 1678862735591,
            "trialTime": 0
        },
        {
            "exptPart": "trial",
            "trialNumber": 36,
            "roleCurrent": "receiver",
            "marblesSampled": 100,
            "probRed": 0.5,
            "lambda": 5,
            "drawnRed": 26,
            "reportedRed": 31,
            "inferredRed": 33,
            "playerTrialScore": -7,
            "oppTrialScore": 7,
            "playerTotalScore": -75,
            "oppTotalScore": 15,
            "waitTime": 6192.85469345528,
            "responseTime": 1678862762905,
            "catchQuestion": "How many <b class=\"r\">red<\/b> marbles did you actually draw (before any changes)? ",
            "catchKey": -1,
            "catchResponse": -1,
            "catchTime": 1678862735591,
            "trialTime": 0
        },
        {
            "exptPart": "trial",
            "trialNumber": 37,
            "roleCurrent": "sender",
            "marblesSampled": 100,
            "probRed": 0.5,
            "lambda": 5,
            "drawnRed": 25,
            "reportedRed": 37,
            "inferredRed": 33,
            "playerTrialScore": 8,
            "oppTrialScore": -8,
            "playerTotalScore": -67,
            "oppTotalScore": 7,
            "waitTime": 2809.797691191865,
            "responseTime": 1678862797594,
            "catchQuestion": "How many <b class=\"r\">red<\/b> marbles did you actually draw (before any changes)? ",
            "catchKey": -1,
            "catchResponse": -1,
            "catchTime": 1678862735591,
            "trialTime": 0
        },
        {
            "exptPart": "trial",
            "trialNumber": 38,
            "roleCurrent": "receiver",
            "marblesSampled": 100,
            "probRed": 0.5,
            "lambda": 5,
            "drawnRed": 35,
            "reportedRed": 39,
            "inferredRed": 39,
            "playerTrialScore": -4,
            "oppTrialScore": 4,
            "playerTotalScore": -71,
            "oppTotalScore": 11,
            "waitTime": 7432.097029685963,
            "responseTime": 1678862824226,
            "catchQuestion": "How many <b class=\"r\">red<\/b> marbles did you actually draw (before any changes)? ",
            "catchKey": -1,
            "catchResponse": -1,
            "catchTime": 1678862735591,
            "trialTime": 0
        },
        {
            "exptPart": "trial",
            "trialNumber": 39,
            "roleCurrent": "sender",
            "marblesSampled": 100,
            "probRed": 0.5,
            "lambda": 5,
            "drawnRed": 58,
            "reportedRed": 58,
            "inferredRed": 50,
            "playerTrialScore": 0,
            "oppTrialScore": -8,
            "playerTotalScore": -71,
            "oppTotalScore": 3,
            "waitTime": 2110.3322625829046,
            "responseTime": 1678862832957,
            "catchQuestion": "How many <b class=\"r\">red<\/b> marbles did you actually draw (before any changes)? ",
            "catchKey": -1,
            "catchResponse": -1,
            "catchTime": 1678862735591,
            "trialTime": 0
        },
        {
            "exptPart": "trial",
            "trialNumber": 40,
            "roleCurrent": "receiver",
            "marblesSampled": 100,
            "probRed": 0.5,
            "lambda": 5,
            "drawnRed": 37,
            "reportedRed": 42,
            "inferredRed": 56,
            "playerTrialScore": -19,
            "oppTrialScore": 19,
            "playerTotalScore": -90,
            "oppTotalScore": 22,
            "waitTime": 5419.125938574205,
            "responseTime": 1678862842146,
            "catchQuestion": "How many <b class=\"r\">red<\/b> marbles did you actually draw (before any changes)? ",
            "catchKey": -1,
            "catchResponse": -1,
            "catchTime": 1678862842147,
            "trialTime": 0
        },
        {
            "exptPart": "trial",
            "trialNumber": 41,
            "roleCurrent": "sender",
            "marblesSampled": 100,
            "probRed": 0.5,
            "lambda": 5,
            "drawnRed": 52,
            "reportedRed": 56,
            "inferredRed": 50,
            "playerTrialScore": 0,
            "oppTrialScore": -2,
            "playerTotalScore": -90,
            "oppTotalScore": 20,
            "waitTime": 2363.0845894324384,
            "responseTime": 1678862862075,
            "catchQuestion": "How many <b class=\"r\">red<\/b> marbles did you actually draw (before any changes)? ",
            "catchKey": -1,
            "catchResponse": -1,
            "catchTime": 1678862842147,
            "trialTime": 0
        },
        {
            "exptPart": "trial",
            "trialNumber": 42,
            "roleCurrent": "receiver",
            "marblesSampled": 100,
            "probRed": 0.5,
            "lambda": 5,
            "drawnRed": 41,
            "reportedRed": 46,
            "inferredRed": 36,
            "playerTrialScore": -5,
            "oppTrialScore": 0,
            "playerTotalScore": -95,
            "oppTotalScore": 20,
            "waitTime": 5576.749193805566,
            "responseTime": 1678862879124,
            "catchQuestion": "How many <b class=\"r\">red<\/b> marbles did you actually draw (before any changes)? ",
            "catchKey": -1,
            "catchResponse": -1,
            "catchTime": 1678862842147,
            "trialTime": 0
        },
        {
            "exptPart": "trial",
            "trialNumber": 43,
            "roleCurrent": "sender",
            "marblesSampled": 100,
            "probRed": 0.5,
            "lambda": 5,
            "drawnRed": 46,
            "reportedRed": 56,
            "inferredRed": 51,
            "playerTrialScore": 5,
            "oppTrialScore": -5,
            "playerTotalScore": -90,
            "oppTotalScore": 15,
            "waitTime": 2433.432910179559,
            "responseTime": 1678862909801,
            "catchQuestion": "How many <b class=\"r\">red<\/b> marbles did you actually draw (before any changes)? ",
            "catchKey": -1,
            "catchResponse": -1,
            "catchTime": 1678862842147,
            "trialTime": 0
        },
        {
            "exptPart": "trial",
            "trialNumber": 44,
            "roleCurrent": "receiver",
            "marblesSampled": 100,
            "probRed": 0.5,
            "lambda": 5,
            "drawnRed": 70,
            "reportedRed": 77,
            "inferredRed": 56,
            "playerTrialScore": -14,
            "oppTrialScore": 0,
            "playerTotalScore": -104,
            "oppTotalScore": 15,
            "waitTime": 6667.072665166785,
            "responseTime": 1678862925511,
            "catchQuestion": "How many <b class=\"r\">red<\/b> marbles did you actually draw (before any changes)? ",
            "catchKey": -1,
            "catchResponse": -1,
            "catchTime": 1678862842147,
            "trialTime": 0
        },
        {
            "exptPart": "trial",
            "trialNumber": 45,
            "roleCurrent": "sender",
            "marblesSampled": 100,
            "probRed": 0.5,
            "lambda": 5,
            "drawnRed": 45,
            "reportedRed": 38,
            "inferredRed": 34,
            "playerTrialScore": 0,
            "oppTrialScore": -11,
            "playerTotalScore": -104,
            "oppTotalScore": 4,
            "waitTime": 2721.441541496901,
            "responseTime": 1678862945902,
            "catchQuestion": "How many <b class=\"r\">red<\/b> marbles did you actually draw (before any changes)? ",
            "catchKey": -1,
            "catchResponse": -1,
            "catchTime": 1678862945902,
            "trialTime": 0
        },
        {
            "exptPart": "trial",
            "trialNumber": 46,
            "roleCurrent": "receiver",
            "marblesSampled": 100,
            "probRed": 0.5,
            "lambda": 5,
            "drawnRed": 41,
            "reportedRed": 49,
            "inferredRed": 49,
            "playerTrialScore": -8,
            "oppTrialScore": 8,
            "playerTotalScore": -112,
            "oppTotalScore": 12,
            "waitTime": 5355.24768497108,
            "responseTime": 1678862961631,
            "catchQuestion": "How many <b class=\"r\">red<\/b> marbles did you actually draw (before any changes)? ",
            "catchKey": -1,
            "catchResponse": -1,
            "catchTime": 1678862945902,
            "trialTime": 0
        },
        {
            "exptPart": "trial",
            "trialNumber": 47,
            "roleCurrent": "sender",
            "marblesSampled": 100,
            "probRed": 0.5,
            "lambda": 5,
            "drawnRed": 73,
            "reportedRed": 78,
            "inferredRed": 72,
            "playerTrialScore": 0,
            "oppTrialScore": -1,
            "playerTotalScore": -112,
            "oppTotalScore": 11,
            "waitTime": 2690.4730324828915,
            "responseTime": 1678862979689,
            "catchQuestion": "How many <b class=\"r\">red<\/b> marbles did you actually draw (before any changes)? ",
            "catchKey": -1,
            "catchResponse": -1,
            "catchTime": 1678862945902,
            "trialTime": 0
        },
        {
            "exptPart": "trial",
            "trialNumber": 48,
            "roleCurrent": "receiver",
            "marblesSampled": 100,
            "probRed": 0.5,
            "lambda": 5,
            "drawnRed": 52,
            "reportedRed": 56,
            "inferredRed": 56,
            "playerTrialScore": -4,
            "oppTrialScore": 4,
            "playerTotalScore": -116,
            "oppTotalScore": 15,
            "waitTime": 5164.054107545496,
            "responseTime": 1678862990988,
            "catchQuestion": "How many <b class=\"r\">red<\/b> marbles did you actually draw (before any changes)? ",
            "catchKey": -1,
            "catchResponse": -1,
            "catchTime": 1678862945902,
            "trialTime": 0
        },
        {
            "exptPart": "trial",
            "trialNumber": 49,
            "roleCurrent": "sender",
            "marblesSampled": 100,
            "probRed": 0.5,
            "lambda": 5,
            "drawnRed": 44,
            "reportedRed": 49,
            "inferredRed": 40,
            "playerTrialScore": 0,
            "oppTrialScore": -4,
            "playerTotalScore": -116,
            "oppTotalScore": 11,
            "waitTime": 2756.9238155314697,
            "responseTime": 1678863009816,
            "catchQuestion": "How many <b class=\"r\">red<\/b> marbles did you actually draw (before any changes)? ",
            "catchKey": -1,
            "catchResponse": -1,
            "catchTime": 1678862945902,
            "trialTime": 0
        },
        {
            "exptPart": "trial",
            "trialNumber": 50,
            "roleCurrent": "receiver",
            "marblesSampled": 100,
            "probRed": 0.5,
            "lambda": 5,
            "drawnRed": 44,
            "reportedRed": 48,
            "inferredRed": 48,
            "playerTrialScore": -4,
            "oppTrialScore": 4,
            "playerTotalScore": -120,
            "oppTotalScore": 15,
            "waitTime": 5668.076171114841,
            "responseTime": 1678863019327,
            "catchQuestion": "How many <b class=\"r\">red<\/b> marbles did you actually draw (before any changes)? ",
            "catchKey": -1,
            "catchResponse": -1,
            "catchTime": 1678863019327,
            "trialTime": 0
        },
        {
            "exptPart": "trial",
            "trialNumber": 51,
            "roleCurrent": "sender",
            "marblesSampled": 100,
            "probRed": 0.5,
            "lambda": 5,
            "drawnRed": 46,
            "reportedRed": 46,
            "inferredRed": 38,
            "playerTrialScore": 0,
            "oppTrialScore": -8,
            "playerTotalScore": -120,
            "oppTotalScore": 7,
            "waitTime": 2655.4813298558965,
            "responseTime": 1678863035553,
            "catchQuestion": "How many <b class=\"r\">red<\/b> marbles did you actually draw (before any changes)? ",
            "catchKey": 46,
            "catchResponse": 46,
            "catchTime": 1678863035554,
            "trialTime": 0
        },
        {
            "exptPart": "trial",
            "trialNumber": 52,
            "roleCurrent": "receiver",
            "marblesSampled": 100,
            "probRed": 0.5,
            "lambda": 5,
            "drawnRed": 82,
            "reportedRed": 87,
            "inferredRed": 87,
            "playerTrialScore": -5,
            "oppTrialScore": 5,
            "playerTotalScore": -125,
            "oppTotalScore": 12,
            "waitTime": 6189.314610262329,
            "responseTime": 1678863056325,
            "catchQuestion": "How many <b class=\"r\">red<\/b> marbles did you actually draw (before any changes)? ",
            "catchKey": -1,
            "catchResponse": -1,
            "catchTime": 1678863035554,
            "trialTime": 0
        },
        {
            "exptPart": "trial",
            "trialNumber": 53,
            "roleCurrent": "sender",
            "marblesSampled": 100,
            "probRed": 0.5,
            "lambda": 5,
            "drawnRed": 43,
            "reportedRed": 43,
            "inferredRed": 35,
            "playerTrialScore": 0,
            "oppTrialScore": -8,
            "playerTotalScore": -125,
            "oppTotalScore": 4,
            "waitTime": 2653.2912081044233,
            "responseTime": 1678863066888,
            "catchQuestion": "How many <b class=\"r\">red<\/b> marbles did you actually draw (before any changes)? ",
            "catchKey": -1,
            "catchResponse": -1,
            "catchTime": 1678863035554,
            "trialTime": 0
        },
        {
            "exptPart": "trial",
            "trialNumber": 54,
            "roleCurrent": "receiver",
            "marblesSampled": 100,
            "probRed": 0.5,
            "lambda": 5,
            "drawnRed": 28,
            "reportedRed": 33,
            "inferredRed": 33,
            "playerTrialScore": -5,
            "oppTrialScore": 5,
            "playerTotalScore": -130,
            "oppTotalScore": 9,
            "waitTime": 5924.835052877496,
            "responseTime": 1678863075624,
            "catchQuestion": "How many <b class=\"r\">red<\/b> marbles did you actually draw (before any changes)? ",
            "catchKey": -1,
            "catchResponse": -1,
            "catchTime": 1678863035554,
            "trialTime": 0
        },
        {
            "exptPart": "trial",
            "trialNumber": 55,
            "roleCurrent": "sender",
            "marblesSampled": 100,
            "probRed": 0.5,
            "lambda": 5,
            "drawnRed": 66,
            "reportedRed": 66,
            "inferredRed": 64,
            "playerTrialScore": 0,
            "oppTrialScore": -2,
            "playerTotalScore": -130,
            "oppTotalScore": 7,
            "waitTime": 2426.3117283070897,
            "responseTime": 1678863084281,
            "catchQuestion": "How many <b class=\"r\">red<\/b> marbles did you actually draw (before any changes)? ",
            "catchKey": -1,
            "catchResponse": -1,
            "catchTime": 1678863084281,
            "trialTime": 0
        },
        {
            "exptPart": "trial",
            "trialNumber": 56,
            "roleCurrent": "receiver",
            "marblesSampled": 100,
            "probRed": 0.5,
            "lambda": 5,
            "drawnRed": 68,
            "reportedRed": 69,
            "inferredRed": 99,
            "playerTrialScore": -31,
            "oppTrialScore": 31,
            "playerTotalScore": -161,
            "oppTotalScore": 38,
            "waitTime": 6789.717590648998,
            "responseTime": 1678863099120,
            "catchQuestion": "How many <b class=\"r\">red<\/b> marbles did your opponent report drawing? ",
            "catchKey": 69,
            "catchResponse": 69,
            "catchTime": 1678863099120,
            "trialTime": 0
        },
        {
            "exptPart": "trial",
            "trialNumber": 57,
            "roleCurrent": "sender",
            "marblesSampled": 100,
            "probRed": 0.5,
            "lambda": 5,
            "drawnRed": 28,
            "reportedRed": 38,
            "inferredRed": 32,
            "playerTrialScore": 4,
            "oppTrialScore": -4,
            "playerTotalScore": -157,
            "oppTotalScore": 34,
            "waitTime": 2385.133435095495,
            "responseTime": 1678863135952,
            "catchQuestion": "How many <b class=\"r\">red<\/b> marbles did your opponent report drawing? ",
            "catchKey": -1,
            "catchResponse": -1,
            "catchTime": 1678863099120,
            "trialTime": 0
        },
        {
            "exptPart": "trial",
            "trialNumber": 58,
            "roleCurrent": "receiver",
            "marblesSampled": 100,
            "probRed": 0.5,
            "lambda": 5,
            "drawnRed": 50,
            "reportedRed": 54,
            "inferredRed": 38,
            "playerTrialScore": -12,
            "oppTrialScore": 0,
            "playerTotalScore": -169,
            "oppTotalScore": 34,
            "waitTime": 5170.543937748871,
            "responseTime": 1678863147355,
            "catchQuestion": "How many <b class=\"r\">red<\/b> marbles did your opponent report drawing? ",
            "catchKey": -1,
            "catchResponse": -1,
            "catchTime": 1678863099120,
            "trialTime": 0
        },
        {
            "exptPart": "trial",
            "trialNumber": 59,
            "roleCurrent": "sender",
            "marblesSampled": 100,
            "probRed": 0.5,
            "lambda": 5,
            "drawnRed": 84,
            "reportedRed": 100,
            "inferredRed": 96,
            "playerTrialScore": 12,
            "oppTrialScore": -12,
            "playerTotalScore": -157,
            "oppTotalScore": 22,
            "waitTime": 3074.386963487753,
            "responseTime": 1678863216593,
            "catchQuestion": "How many <b class=\"r\">red<\/b> marbles did your opponent report drawing? ",
            "catchKey": -1,
            "catchResponse": -1,
            "catchTime": 1678863099120,
            "trialTime": 0
        },
        {
            "exptPart": "trial",
            "trialNumber": 60,
            "roleCurrent": "receiver",
            "marblesSampled": 100,
            "probRed": 0.5,
            "lambda": 5,
            "drawnRed": 75,
            "reportedRed": 81,
            "inferredRed": 84,
            "playerTrialScore": -9,
            "oppTrialScore": 9,
            "playerTotalScore": -166,
            "oppTotalScore": 31,
            "waitTime": 6171.523042706253,
            "responseTime": 1678863227914,
            "catchQuestion": "How many <b class=\"r\">red<\/b> marbles did your opponent report drawing? ",
            "catchKey": 81,
            "catchResponse": 81,
            "catchTime": 1678863227914,
            "trialTime": 0
        },
        {
            "exptPart": "trial",
            "trialNumber": 61,
            "roleCurrent": "sender",
            "marblesSampled": 100,
            "probRed": 0.5,
            "lambda": 5,
            "drawnRed": 14,
            "reportedRed": 13,
            "inferredRed": 10,
            "playerTrialScore": 0,
            "oppTrialScore": -4,
            "playerTotalScore": -166,
            "oppTotalScore": 27,
            "waitTime": 2176.3664689502357,
            "responseTime": 1678863249078,
            "catchQuestion": "How many <b class=\"r\">red<\/b> marbles did your opponent report drawing? ",
            "catchKey": -1,
            "catchResponse": -1,
            "catchTime": 1678863227914,
            "trialTime": 0
        },
        {
            "exptPart": "trial",
            "trialNumber": 62,
            "roleCurrent": "receiver",
            "marblesSampled": 100,
            "probRed": 0.5,
            "lambda": 5,
            "drawnRed": 81,
            "reportedRed": 82,
            "inferredRed": 60,
            "playerTrialScore": -21,
            "oppTrialScore": 0,
            "playerTotalScore": -187,
            "oppTotalScore": 27,
            "waitTime": 5434.950753464156,
            "responseTime": 1678863261738,
            "catchQuestion": "How many <b class=\"r\">red<\/b> marbles did your opponent report drawing? ",
            "catchKey": 82,
            "catchResponse": 82,
            "catchTime": 1678863261738,
            "trialTime": 0
        },
        {
            "exptPart": "trial",
            "trialNumber": 63,
            "roleCurrent": "sender",
            "marblesSampled": 100,
            "probRed": 0.5,
            "lambda": 5,
            "drawnRed": 81,
            "reportedRed": 83,
            "inferredRed": 83,
            "playerTrialScore": 2,
            "oppTrialScore": -2,
            "playerTotalScore": -185,
            "oppTotalScore": 25,
            "waitTime": 2182.6808381701107,
            "responseTime": 1678863279705,
            "catchQuestion": "How many <b class=\"r\">red<\/b> marbles did your opponent report drawing? ",
            "catchKey": -1,
            "catchResponse": -1,
            "catchTime": 1678863261738,
            "trialTime": 0
        },
        {
            "exptPart": "trial",
            "trialNumber": 64,
            "roleCurrent": "receiver",
            "marblesSampled": 100,
            "probRed": 0.5,
            "lambda": 5,
            "drawnRed": 32,
            "reportedRed": 34,
            "inferredRed": 25,
            "playerTrialScore": -7,
            "oppTrialScore": 0,
            "playerTotalScore": -192,
            "oppTotalScore": 25,
            "waitTime": 6817.978924682042,
            "responseTime": 1678863290740,
            "catchQuestion": "How many <b class=\"r\">red<\/b> marbles did your opponent report drawing? ",
            "catchKey": -1,
            "catchResponse": -1,
            "catchTime": 1678863261738,
            "trialTime": 0
        },
        {
            "exptPart": "trial",
            "trialNumber": 65,
            "roleCurrent": "sender",
            "marblesSampled": 100,
            "probRed": 0.5,
            "lambda": 5,
            "drawnRed": 57,
            "reportedRed": 53,
            "inferredRed": 45,
            "playerTrialScore": 0,
            "oppTrialScore": -12,
            "playerTotalScore": -192,
            "oppTotalScore": 13,
            "waitTime": 2096.959376210383,
            "responseTime": 1678863306404,
            "catchQuestion": "How many <b class=\"r\">red<\/b> marbles did your opponent report drawing? ",
            "catchKey": -1,
            "catchResponse": -1,
            "catchTime": 1678863306404,
            "trialTime": 0
        },
        {
            "exptPart": "trial",
            "trialNumber": 66,
            "roleCurrent": "receiver",
            "marblesSampled": 100,
            "probRed": 0.5,
            "lambda": 5,
            "drawnRed": 49,
            "reportedRed": 54,
            "inferredRed": 72,
            "playerTrialScore": -23,
            "oppTrialScore": 23,
            "playerTotalScore": -215,
            "oppTotalScore": 36,
            "waitTime": 5793.776711032047,
            "responseTime": 1678863321933,
            "catchQuestion": "How many <b class=\"r\">red<\/b> marbles did your opponent report drawing? ",
            "catchKey": -1,
            "catchResponse": -1,
            "catchTime": 1678863306404,
            "trialTime": 0
        },
        {
            "exptPart": "trial",
            "trialNumber": 67,
            "roleCurrent": "sender",
            "marblesSampled": 100,
            "probRed": 0.5,
            "lambda": 5,
            "drawnRed": 49,
            "reportedRed": 50,
            "inferredRed": 44,
            "playerTrialScore": 0,
            "oppTrialScore": -5,
            "playerTotalScore": -215,
            "oppTotalScore": 31,
            "waitTime": 2186.1652156213863,
            "responseTime": 1678863339106,
            "catchQuestion": "How many <b class=\"r\">red<\/b> marbles did your opponent report drawing? ",
            "catchKey": -1,
            "catchResponse": -1,
            "catchTime": 1678863306404,
            "trialTime": 0
        },
        {
            "exptPart": "trial",
            "trialNumber": 68,
            "roleCurrent": "receiver",
            "marblesSampled": 100,
            "probRed": 0.5,
            "lambda": 5,
            "drawnRed": 36,
            "reportedRed": 42,
            "inferredRed": 50,
            "playerTrialScore": -14,
            "oppTrialScore": 14,
            "playerTotalScore": -229,
            "oppTotalScore": 45,
            "waitTime": 5690.835705095845,
            "responseTime": 1678863351609,
            "catchQuestion": "How many <b class=\"r\">red<\/b> marbles did your opponent report drawing? ",
            "catchKey": -1,
            "catchResponse": -1,
            "catchTime": 1678863306404,
            "trialTime": 0
        },
        {
            "exptPart": "trial",
            "trialNumber": 69,
            "roleCurrent": "sender",
            "marblesSampled": 100,
            "probRed": 0.5,
            "lambda": 5,
            "drawnRed": 42,
            "reportedRed": 50,
            "inferredRed": 44,
            "playerTrialScore": 2,
            "oppTrialScore": -2,
            "playerTotalScore": -227,
            "oppTotalScore": 43,
            "waitTime": 2170.5513801617067,
            "responseTime": 1678863374198,
            "catchQuestion": "How many <b class=\"r\">red<\/b> marbles did your opponent report drawing? ",
            "catchKey": -1,
            "catchResponse": -1,
            "catchTime": 1678863306404,
            "trialTime": 0
        },
        {
            "exptPart": "trial",
            "trialNumber": 70,
            "roleCurrent": "receiver",
            "marblesSampled": 100,
            "probRed": 0.5,
            "lambda": 5,
            "drawnRed": 69,
            "reportedRed": 76,
            "inferredRed": 80,
            "playerTrialScore": -11,
            "oppTrialScore": 11,
            "playerTotalScore": -238,
            "oppTotalScore": 54,
            "waitTime": 5204.24466369968,
            "responseTime": 1678863383055,
            "catchQuestion": "How many <b class=\"r\">red<\/b> marbles did your opponent report drawing? ",
            "catchKey": -1,
            "catchResponse": -1,
            "catchTime": 1678863383055,
            "trialTime": 0
        },
        {
            "exptPart": "trial",
            "trialNumber": 71,
            "roleCurrent": "sender",
            "marblesSampled": 100,
            "probRed": 0.5,
            "lambda": 5,
            "drawnRed": 67,
            "reportedRed": 67,
            "inferredRed": 62,
            "playerTrialScore": 0,
            "oppTrialScore": -5,
            "playerTotalScore": -238,
            "oppTotalScore": 49,
            "waitTime": 2428.7428592093897,
            "responseTime": 1678863404683,
            "catchQuestion": "How many <b class=\"r\">red<\/b> marbles did your opponent report drawing? ",
            "catchKey": -1,
            "catchResponse": -1,
            "catchTime": 1678863383055,
            "trialTime": 0
        },
        {
            "exptPart": "trial",
            "trialNumber": 72,
            "roleCurrent": "receiver",
            "marblesSampled": 100,
            "probRed": 0.5,
            "lambda": 5,
            "drawnRed": 40,
            "reportedRed": 47,
            "inferredRed": 40,
            "playerTrialScore": 0,
            "oppTrialScore": 0,
            "playerTotalScore": -238,
            "oppTotalScore": 49,
            "waitTime": 5479.420700712184,
            "responseTime": 1678863414964,
            "catchQuestion": "How many <b class=\"r\">red<\/b> marbles did your opponent report drawing? ",
            "catchKey": -1,
            "catchResponse": -1,
            "catchTime": 1678863383055,
            "trialTime": 0
        },
        {
            "exptPart": "trial",
            "trialNumber": 73,
            "roleCurrent": "sender",
            "marblesSampled": 100,
            "probRed": 0.5,
            "lambda": 5,
            "drawnRed": 76,
            "reportedRed": 82,
            "inferredRed": 78,
            "playerTrialScore": 2,
            "oppTrialScore": -2,
            "playerTotalScore": -236,
            "oppTotalScore": 47,
            "waitTime": 2877.455093281218,
            "responseTime": 1678863437325,
            "catchQuestion": "How many <b class=\"r\">red<\/b> marbles did you actually draw (before any changes)? ",
            "catchKey": 76,
            "catchResponse": 76,
            "catchTime": 1678863437325,
            "trialTime": 0
        },
        {
            "exptPart": "trial",
            "trialNumber": 74,
            "roleCurrent": "receiver",
            "marblesSampled": 100,
            "probRed": 0.5,
            "lambda": 5,
            "drawnRed": 55,
            "reportedRed": 66,
            "inferredRed": 69,
            "playerTrialScore": -14,
            "oppTrialScore": 14,
            "playerTotalScore": -250,
            "oppTotalScore": 61,
            "waitTime": 5159.127009127939,
            "responseTime": 1678863451526,
            "catchQuestion": "How many <b class=\"r\">red<\/b> marbles did you actually draw (before any changes)? ",
            "catchKey": -1,
            "catchResponse": -1,
            "catchTime": 1678863437325,
            "trialTime": 0
        },
        {
            "exptPart": "trial",
            "trialNumber": 75,
            "roleCurrent": "sender",
            "marblesSampled": 100,
            "probRed": 0.5,
            "lambda": 5,
            "drawnRed": 78,
            "reportedRed": 82,
            "inferredRed": 76,
            "playerTrialScore": 0,
            "oppTrialScore": -2,
            "playerTotalScore": -250,
            "oppTotalScore": 59,
            "waitTime": 2539.163669175681,
            "responseTime": 1678863476693,
            "catchQuestion": "How many <b class=\"r\">red<\/b> marbles did you actually draw (before any changes)? ",
            "catchKey": -1,
            "catchResponse": -1,
            "catchTime": 1678863476693,
            "trialTime": 0
        },
        {
            "exptPart": "trial",
            "trialNumber": 76,
            "roleCurrent": "receiver",
            "marblesSampled": 100,
            "probRed": 0.5,
            "lambda": 5,
            "drawnRed": 51,
            "reportedRed": 58,
            "inferredRed": 15,
            "playerTrialScore": -36,
            "oppTrialScore": 0,
            "playerTotalScore": -286,
            "oppTotalScore": 59,
            "waitTime": 6366.151129499776,
            "responseTime": 1678863492230,
            "catchQuestion": "How many <b class=\"r\">red<\/b> marbles did you actually draw (before any changes)? ",
            "catchKey": -1,
            "catchResponse": -1,
            "catchTime": 1678863476693,
            "trialTime": 0
        },
        {
            "exptPart": "trial",
            "trialNumber": 77,
            "roleCurrent": "sender",
            "marblesSampled": 100,
            "probRed": 0.5,
            "lambda": 5,
            "drawnRed": 28,
            "reportedRed": 30,
            "inferredRed": 25,
            "playerTrialScore": 0,
            "oppTrialScore": -3,
            "playerTotalScore": -286,
            "oppTotalScore": 56,
            "waitTime": 2812.2961263694497,
            "responseTime": 1678863507813,
            "catchQuestion": "How many <b class=\"r\">red<\/b> marbles did you actually draw (before any changes)? ",
            "catchKey": -1,
            "catchResponse": -1,
            "catchTime": 1678863476693,
            "trialTime": 0
        },
        {
            "exptPart": "trial",
            "trialNumber": 78,
            "roleCurrent": "receiver",
            "marblesSampled": 100,
            "probRed": 0.5,
            "lambda": 5,
            "drawnRed": 69,
            "reportedRed": 75,
            "inferredRed": 82,
            "playerTrialScore": -13,
            "oppTrialScore": 13,
            "playerTotalScore": -299,
            "oppTotalScore": 69,
            "waitTime": 6820.997339403776,
            "responseTime": 1678863523769,
            "catchQuestion": "How many <b class=\"r\">red<\/b> marbles did you actually draw (before any changes)? ",
            "catchKey": -1,
            "catchResponse": -1,
            "catchTime": 1678863476693,
            "trialTime": 0
        },
        {
            "exptPart": "trial",
            "trialNumber": 79,
            "roleCurrent": "sender",
            "marblesSampled": 100,
            "probRed": 0.5,
            "lambda": 5,
            "drawnRed": 61,
            "reportedRed": 69,
            "inferredRed": 63,
            "playerTrialScore": 2,
            "oppTrialScore": -2,
            "playerTotalScore": -297,
            "oppTotalScore": 67,
            "waitTime": 2155.8087797743474,
            "responseTime": 1678863551777,
            "catchQuestion": "How many <b class=\"r\">red<\/b> marbles did you actually draw (before any changes)? ",
            "catchKey": -1,
            "catchResponse": -1,
            "catchTime": 1678863476693,
            "trialTime": 0
        },
        {
            "exptPart": "trial",
            "trialNumber": 80,
            "roleCurrent": "receiver",
            "marblesSampled": 100,
            "probRed": 0.5,
            "lambda": 5,
            "drawnRed": 47,
            "reportedRed": 51,
            "inferredRed": 37,
            "playerTrialScore": -10,
            "oppTrialScore": 0,
            "playerTotalScore": -307,
            "oppTotalScore": 67,
            "waitTime": 5440.658293631863,
            "responseTime": 1678863562504,
            "catchQuestion": "How many <b class=\"r\">red<\/b> marbles did you actually draw (before any changes)? ",
            "catchKey": -1,
            "catchResponse": -1,
            "catchTime": 1678863562504,
            "trialTime": 0
        },
        {
            "exptPart": "trial",
            "trialNumber": 81,
            "roleCurrent": "sender",
            "marblesSampled": 100,
            "probRed": 0.5,
            "lambda": 5,
            "drawnRed": 50,
            "reportedRed": 50,
            "inferredRed": 46,
            "playerTrialScore": 0,
            "oppTrialScore": -4,
            "playerTotalScore": -307,
            "oppTotalScore": 63,
            "waitTime": 2444.2778499514297,
            "responseTime": 1678863577015,
            "catchQuestion": "How many <b class=\"r\">red<\/b> marbles did you actually draw (before any changes)? ",
            "catchKey": -1,
            "catchResponse": -1,
            "catchTime": 1678863562504,
            "trialTime": 0
        },
        {
            "exptPart": "trial",
            "trialNumber": 82,
            "roleCurrent": "receiver",
            "marblesSampled": 100,
            "probRed": 0.5,
            "lambda": 5,
            "drawnRed": 18,
            "reportedRed": 21,
            "inferredRed": 21,
            "playerTrialScore": -3,
            "oppTrialScore": 3,
            "playerTotalScore": -310,
            "oppTotalScore": 66,
            "waitTime": 5642.366616891484,
            "responseTime": 1678863586413,
            "catchQuestion": "How many <b class=\"r\">red<\/b> marbles did you actually draw (before any changes)? ",
            "catchKey": -1,
            "catchResponse": -1,
            "catchTime": 1678863562504,
            "trialTime": 0
        },
        {
            "exptPart": "trial",
            "trialNumber": 83,
            "roleCurrent": "sender",
            "marblesSampled": 100,
            "probRed": 0.5,
            "lambda": 5,
            "drawnRed": 31,
            "reportedRed": 22,
            "inferredRed": 16,
            "playerTrialScore": 0,
            "oppTrialScore": -15,
            "playerTotalScore": -310,
            "oppTotalScore": 51,
            "waitTime": 2992.2870906562757,
            "responseTime": 1678863609026,
            "catchQuestion": "How many <b class=\"r\">red<\/b> marbles did you actually draw (before any changes)? ",
            "catchKey": -1,
            "catchResponse": -1,
            "catchTime": 1678863562504,
            "trialTime": 0
        },
        {
            "exptPart": "trial",
            "trialNumber": 84,
            "roleCurrent": "receiver",
            "marblesSampled": 100,
            "probRed": 0.5,
            "lambda": 5,
            "drawnRed": 27,
            "reportedRed": 32,
            "inferredRed": 32,
            "playerTrialScore": -5,
            "oppTrialScore": 5,
            "playerTotalScore": -315,
            "oppTotalScore": 56,
            "waitTime": 5249.42091063266,
            "responseTime": 1678863619043,
            "catchQuestion": "How many <b class=\"r\">red<\/b> marbles did you actually draw (before any changes)? ",
            "catchKey": -1,
            "catchResponse": -1,
            "catchTime": 1678863562504,
            "trialTime": 0
        },
        {
            "exptPart": "trial",
            "trialNumber": 85,
            "roleCurrent": "sender",
            "marblesSampled": 100,
            "probRed": 0.5,
            "lambda": 5,
            "drawnRed": 62,
            "reportedRed": 69,
            "inferredRed": 65,
            "playerTrialScore": 3,
            "oppTrialScore": -3,
            "playerTotalScore": -312,
            "oppTotalScore": 53,
            "waitTime": 3188.284604845101,
            "responseTime": 1678863639934,
            "catchQuestion": "How many <b class=\"r\">red<\/b> marbles did you actually draw (before any changes)? ",
            "catchKey": -1,
            "catchResponse": -1,
            "catchTime": 1678863639934,
            "trialTime": 0
        },
        {
            "exptPart": "trial",
            "trialNumber": 86,
            "roleCurrent": "receiver",
            "marblesSampled": 100,
            "probRed": 0.5,
            "lambda": 5,
            "drawnRed": 38,
            "reportedRed": 47,
            "inferredRed": 47,
            "playerTrialScore": -9,
            "oppTrialScore": 9,
            "playerTotalScore": -321,
            "oppTotalScore": 62,
            "waitTime": 5660.150900270027,
            "responseTime": 1678863651467,
            "catchQuestion": "How many <b class=\"r\">red<\/b> marbles did you actually draw (before any changes)? ",
            "catchKey": -1,
            "catchResponse": -1,
            "catchTime": 1678863639934,
            "trialTime": 0
        },
        {
            "exptPart": "trial",
            "trialNumber": 87,
            "roleCurrent": "sender",
            "marblesSampled": 100,
            "probRed": 0.5,
            "lambda": 5,
            "drawnRed": 37,
            "reportedRed": 30,
            "inferredRed": 24,
            "playerTrialScore": 0,
            "oppTrialScore": -13,
            "playerTotalScore": -321,
            "oppTotalScore": 49,
            "waitTime": 2661.1502217363195,
            "responseTime": 1678863679610,
            "catchQuestion": "How many <b class=\"r\">red<\/b> marbles did you actually draw (before any changes)? ",
            "catchKey": 37,
            "catchResponse": 37,
            "catchTime": 1678863679611,
            "trialTime": 0
        },
        {
            "exptPart": "trial",
            "trialNumber": 88,
            "roleCurrent": "receiver",
            "marblesSampled": 100,
            "probRed": 0.5,
            "lambda": 5,
            "drawnRed": 69,
            "reportedRed": 73,
            "inferredRed": 72,
            "playerTrialScore": -3,
            "oppTrialScore": 3,
            "playerTotalScore": -324,
            "oppTotalScore": 52,
            "waitTime": 6055.726445014734,
            "responseTime": 1678863695436,
            "catchQuestion": "How many <b class=\"r\">red<\/b> marbles did you actually draw (before any changes)? ",
            "catchKey": -1,
            "catchResponse": -1,
            "catchTime": 1678863679611,
            "trialTime": 0
        },
        {
            "exptPart": "trial",
            "trialNumber": 89,
            "roleCurrent": "sender",
            "marblesSampled": 100,
            "probRed": 0.5,
            "lambda": 5,
            "drawnRed": 42,
            "reportedRed": 42,
            "inferredRed": 38,
            "playerTrialScore": 0,
            "oppTrialScore": -4,
            "playerTotalScore": -324,
            "oppTotalScore": 48,
            "waitTime": 3041.5319790841286,
            "responseTime": 1678863711166,
            "catchQuestion": "How many <b class=\"r\">red<\/b> marbles did you actually draw (before any changes)? ",
            "catchKey": -1,
            "catchResponse": -1,
            "catchTime": 1678863679611,
            "trialTime": 0
        },
        {
            "exptPart": "trial",
            "trialNumber": 90,
            "roleCurrent": "receiver",
            "marblesSampled": 100,
            "probRed": 0.5,
            "lambda": 5,
            "drawnRed": 34,
            "reportedRed": 39,
            "inferredRed": 40,
            "playerTrialScore": -6,
            "oppTrialScore": 6,
            "playerTotalScore": -330,
            "oppTotalScore": 54,
            "waitTime": 7423.475592771973,
            "responseTime": 1678863721702,
            "catchQuestion": "How many <b class=\"r\">red<\/b> marbles did you actually draw (before any changes)? ",
            "catchKey": -1,
            "catchResponse": -1,
            "catchTime": 1678863721702,
            "trialTime": 0
        },
        {
            "exptPart": "trial",
            "trialNumber": 91,
            "roleCurrent": "sender",
            "marblesSampled": 100,
            "probRed": 0.5,
            "lambda": 5,
            "drawnRed": 34,
            "reportedRed": 30,
            "inferredRed": 25,
            "playerTrialScore": 0,
            "oppTrialScore": -9,
            "playerTotalScore": -330,
            "oppTotalScore": 45,
            "waitTime": 2246.559271463593,
            "responseTime": 1678863739922,
            "catchQuestion": "How many <b class=\"r\">red<\/b> marbles did you actually draw (before any changes)? ",
            "catchKey": -1,
            "catchResponse": -1,
            "catchTime": 1678863721702,
            "trialTime": 0
        },
        {
            "exptPart": "trial",
            "trialNumber": 92,
            "roleCurrent": "receiver",
            "marblesSampled": 100,
            "probRed": 0.5,
            "lambda": 5,
            "drawnRed": 66,
            "reportedRed": 73,
            "inferredRed": 55,
            "playerTrialScore": -11,
            "oppTrialScore": 0,
            "playerTotalScore": -341,
            "oppTotalScore": 45,
            "waitTime": 6641.424720665896,
            "responseTime": 1678863750660,
            "catchQuestion": "How many <b class=\"r\">red<\/b> marbles did you actually draw (before any changes)? ",
            "catchKey": -1,
            "catchResponse": -1,
            "catchTime": 1678863721702,
            "trialTime": 0
        },
        {
            "exptPart": "trial",
            "trialNumber": 93,
            "roleCurrent": "sender",
            "marblesSampled": 100,
            "probRed": 0.5,
            "lambda": 5,
            "drawnRed": 34,
            "reportedRed": 30,
            "inferredRed": 23,
            "playerTrialScore": 0,
            "oppTrialScore": -11,
            "playerTotalScore": -341,
            "oppTotalScore": 34,
            "waitTime": 2771.0281628361963,
            "responseTime": 1678863767217,
            "catchQuestion": "How many <b class=\"r\">red<\/b> marbles did you actually draw (before any changes)? ",
            "catchKey": -1,
            "catchResponse": -1,
            "catchTime": 1678863721702,
            "trialTime": 0
        },
        {
            "exptPart": "trial",
            "trialNumber": 94,
            "roleCurrent": "receiver",
            "marblesSampled": 100,
            "probRed": 0.5,
            "lambda": 5,
            "drawnRed": 42,
            "reportedRed": 50,
            "inferredRed": 42,
            "playerTrialScore": 0,
            "oppTrialScore": 0,
            "playerTotalScore": -341,
            "oppTotalScore": 34,
            "waitTime": 6024.5959405160875,
            "responseTime": 1678863778530,
            "catchQuestion": "How many <b class=\"r\">red<\/b> marbles did you actually draw (before any changes)? ",
            "catchKey": -1,
            "catchResponse": -1,
            "catchTime": 1678863721702,
            "trialTime": 0
        },
        {
            "exptPart": "trial",
            "trialNumber": 95,
            "roleCurrent": "sender",
            "marblesSampled": 100,
            "probRed": 0.5,
            "lambda": 5,
            "drawnRed": 57,
            "reportedRed": 50,
            "inferredRed": 46,
            "playerTrialScore": 0,
            "oppTrialScore": -11,
            "playerTotalScore": -341,
            "oppTotalScore": 23,
            "waitTime": 2752.4498286792677,
            "responseTime": 1678863801041,
            "catchQuestion": "How many <b class=\"r\">red<\/b> marbles did you actually draw (before any changes)? ",
            "catchKey": -1,
            "catchResponse": -1,
            "catchTime": 1678863801041,
            "trialTime": 0
        },
        {
            "exptPart": "trial",
            "trialNumber": 96,
            "roleCurrent": "receiver",
            "marblesSampled": 100,
            "probRed": 0.5,
            "lambda": 5,
            "drawnRed": 52,
            "reportedRed": 60,
            "inferredRed": 55,
            "playerTrialScore": -3,
            "oppTrialScore": 3,
            "playerTotalScore": -344,
            "oppTotalScore": 26,
            "waitTime": 5761.282050478871,
            "responseTime": 1678863810390,
            "catchQuestion": "How many <b class=\"r\">red<\/b> marbles did you actually draw (before any changes)? ",
            "catchKey": -1,
            "catchResponse": -1,
            "catchTime": 1678863801041,
            "trialTime": 0
        },
        {
            "exptPart": "trial",
            "trialNumber": 97,
            "roleCurrent": "sender",
            "marblesSampled": 100,
            "probRed": 0.5,
            "lambda": 5,
            "drawnRed": 73,
            "reportedRed": 66,
            "inferredRed": 60,
            "playerTrialScore": 0,
            "oppTrialScore": -13,
            "playerTotalScore": -344,
            "oppTotalScore": 13,
            "waitTime": 2070.946089128668,
            "responseTime": 1678863833469,
            "catchQuestion": "How many <b class=\"r\">red<\/b> marbles did you actually draw (before any changes)? ",
            "catchKey": -1,
            "catchResponse": -1,
            "catchTime": 1678863801041,
            "trialTime": 0
        },
        {
            "exptPart": "trial",
            "trialNumber": 98,
            "roleCurrent": "receiver",
            "marblesSampled": 100,
            "probRed": 0.5,
            "lambda": 5,
            "drawnRed": 69,
            "reportedRed": 75,
            "inferredRed": 56,
            "playerTrialScore": -13,
            "oppTrialScore": 0,
            "playerTotalScore": -357,
            "oppTotalScore": 13,
            "waitTime": 5803.023406809702,
            "responseTime": 1678863846408,
            "catchQuestion": "How many <b class=\"r\">red<\/b> marbles did you actually draw (before any changes)? ",
            "catchKey": -1,
            "catchResponse": -1,
            "catchTime": 1678863801041,
            "trialTime": 0
        },
        {
            "exptPart": "trial",
            "trialNumber": 99,
            "roleCurrent": "sender",
            "marblesSampled": 100,
            "probRed": 0.5,
            "lambda": 5,
            "drawnRed": 23,
            "reportedRed": 30,
            "inferredRed": 23,
            "playerTrialScore": 0,
            "oppTrialScore": 0,
            "playerTotalScore": -357,
            "oppTotalScore": 13,
            "waitTime": 2225.0903170480656,
            "responseTime": 1678863865849,
            "catchQuestion": "How many <b class=\"r\">red<\/b> marbles did you actually draw (before any changes)? ",
            "catchKey": -1,
            "catchResponse": -1,
            "catchTime": 1678863801041,
            "trialTime": 0
        },
        {
            "exptPart": "trial",
            "trialNumber": 100,
            "roleCurrent": "receiver",
            "marblesSampled": 100,
            "probRed": 0.5,
            "lambda": 5,
            "drawnRed": 35,
            "reportedRed": 41,
            "inferredRed": 36,
            "playerTrialScore": -1,
            "oppTrialScore": 1,
            "playerTotalScore": -358,
            "oppTotalScore": 14,
            "waitTime": 6638.679759743869,
            "responseTime": 1678863876942,
            "catchQuestion": "How many <b class=\"r\">red<\/b> marbles did you actually draw (before any changes)? ",
            "catchKey": -1,
            "catchResponse": -1,
            "catchTime": 1678863876942,
            "trialTime": 0
        }
    ]
}