{
    "client": {
        "type": "sona",
        "experiment_id": 2228,
        "credit_token": "b315147ae43241ea9c65086cb510cfb7",
        "survey_code": "39691",
        "sid": "sona-39691",
        "window": {
            "width": 1280,
            "height": 619
        },
        "screen": {
            "width": 1280,
            "height": 800
        },
        "userAgent": "Mozilla\/5.0 (Macintosh; Intel Mac OS X 10_15_7) AppleWebKit\/537.36 (KHTML, like Gecko) Chrome\/110.0.0.0 Safari\/537.36",
        "score": 0,
        "bonus": 0
    },
    "expt": {
        "saveURL": "submit.simple.php",
        "trials": 100,
        "practiceTrials": 2,
        "marblesSampled": 100,
        "probRed": 0.5,
        "lambdaAI": 5,
        "roleFirst": "receiver",
        "roles": [
            "sender",
            "receiver"
        ],
        "cost": "linear",
        "goal": "under",
        "goalInstructTxt": "above",
        "catchTrials": [
            26,
            80,
            86,
            56,
            96,
            90,
            45,
            97,
            54,
            69
        ],
        "scoreTotal": {
            "player": -39,
            "opp": -217
        },
        "sona": {
            "experiment_id": 2228,
            "credit_token": "b315147ae43241ea9c65086cb510cfb7"
        },
        "pilot": false,
        "debug": false
    },
    "trials": [
        {
            "exptPart": "practice",
            "trialNumber": 1,
            "roleCurrent": "sender",
            "marblesSampled": 100,
            "probRed": 0.5,
            "lambda": 5,
            "drawnRed": 45,
            "reportedRed": 43,
            "inferredRed": 47,
            "playerTrialScore": 0,
            "oppTrialScore": -2,
            "playerTotalScore": 0,
            "oppTotalScore": -2,
            "waitTime": 2284.3458016814147,
            "responseTime": 1680724245565,
            "catchQuestion": "How many <b class=\"r\">red<\/b> marbles did you actually draw (before any changes)? ",
            "catchKey": 45,
            "catchResponse": 2,
            "catchTime": 1680724245565,
            "trialTime": 0
        },
        {
            "exptPart": "practice",
            "trialNumber": 2,
            "roleCurrent": "receiver",
            "marblesSampled": 100,
            "probRed": 0.5,
            "lambda": 5,
            "drawnRed": 28,
            "reportedRed": 23,
            "inferredRed": 25,
            "playerTrialScore": -3,
            "oppTrialScore": 3,
            "playerTotalScore": -3,
            "oppTotalScore": 1,
            "waitTime": 6215.0222321009915,
            "responseTime": 1680724345417,
            "catchQuestion": "How many <b class=\"r\">red<\/b> marbles did your opponent report drawing? ",
            "catchKey": 23,
            "catchResponse": 23,
            "catchTime": 1680724345417,
            "trialTime": 0
        },
        {
            "exptPart": "trial",
            "trialNumber": 1,
            "roleCurrent": "receiver",
            "marblesSampled": 100,
            "probRed": 0.5,
            "lambda": 5,
            "drawnRed": 38,
            "reportedRed": 32,
            "inferredRed": 39,
            "playerTrialScore": -1,
            "oppTrialScore": 0,
            "playerTotalScore": -1,
            "oppTotalScore": 0,
            "waitTime": 5216.946608006017,
            "responseTime": 1680724381565,
            "catchQuestion": "How many <b class=\"r\">red<\/b> marbles did your opponent report drawing? ",
            "catchKey": -1,
            "catchResponse": -1,
            "catchTime": 1680724345417,
            "trialTime": 0
        },
        {
            "exptPart": "trial",
            "trialNumber": 2,
            "roleCurrent": "sender",
            "marblesSampled": 100,
            "probRed": 0.5,
            "lambda": 5,
            "drawnRed": 59,
            "reportedRed": 58,
            "inferredRed": 65,
            "playerTrialScore": 0,
            "oppTrialScore": -6,
            "playerTotalScore": -1,
            "oppTotalScore": -6,
            "waitTime": 2067.0899721249007,
            "responseTime": 1680724403535,
            "catchQuestion": "How many <b class=\"r\">red<\/b> marbles did your opponent report drawing? ",
            "catchKey": -1,
            "catchResponse": -1,
            "catchTime": 1680724345417,
            "trialTime": 0
        },
        {
            "exptPart": "trial",
            "trialNumber": 3,
            "roleCurrent": "receiver",
            "marblesSampled": 100,
            "probRed": 0.5,
            "lambda": 5,
            "drawnRed": 57,
            "reportedRed": 50,
            "inferredRed": 60,
            "playerTrialScore": -3,
            "oppTrialScore": 0,
            "playerTotalScore": -4,
            "oppTotalScore": -6,
            "waitTime": 5565.994590083526,
            "responseTime": 1680724417067,
            "catchQuestion": "How many <b class=\"r\">red<\/b> marbles did your opponent report drawing? ",
            "catchKey": -1,
            "catchResponse": -1,
            "catchTime": 1680724345417,
            "trialTime": 0
        },
        {
            "exptPart": "trial",
            "trialNumber": 4,
            "roleCurrent": "sender",
            "marblesSampled": 100,
            "probRed": 0.5,
            "lambda": 5,
            "drawnRed": 57,
            "reportedRed": 57,
            "inferredRed": 64,
            "playerTrialScore": 0,
            "oppTrialScore": -7,
            "playerTotalScore": -4,
            "oppTotalScore": -13,
            "waitTime": 3228.044417365021,
            "responseTime": 1680724428561,
            "catchQuestion": "How many <b class=\"r\">red<\/b> marbles did your opponent report drawing? ",
            "catchKey": -1,
            "catchResponse": -1,
            "catchTime": 1680724345417,
            "trialTime": 0
        },
        {
            "exptPart": "trial",
            "trialNumber": 5,
            "roleCurrent": "receiver",
            "marblesSampled": 100,
            "probRed": 0.5,
            "lambda": 5,
            "drawnRed": 45,
            "reportedRed": 38,
            "inferredRed": 40,
            "playerTrialScore": -5,
            "oppTrialScore": 5,
            "playerTotalScore": -9,
            "oppTotalScore": -8,
            "waitTime": 6578.083856872019,
            "responseTime": 1680724451886,
            "catchQuestion": "How many <b class=\"r\">red<\/b> marbles did your opponent report drawing? ",
            "catchKey": -1,
            "catchResponse": -1,
            "catchTime": 1680724451886,
            "trialTime": 0
        },
        {
            "exptPart": "trial",
            "trialNumber": 6,
            "roleCurrent": "sender",
            "marblesSampled": 100,
            "probRed": 0.5,
            "lambda": 5,
            "drawnRed": 72,
            "reportedRed": 72,
            "inferredRed": 76,
            "playerTrialScore": 0,
            "oppTrialScore": -4,
            "playerTotalScore": -9,
            "oppTotalScore": -12,
            "waitTime": 2280.597109031468,
            "responseTime": 1680724465469,
            "catchQuestion": "How many <b class=\"r\">red<\/b> marbles did your opponent report drawing? ",
            "catchKey": -1,
            "catchResponse": -1,
            "catchTime": 1680724451886,
            "trialTime": 0
        },
        {
            "exptPart": "trial",
            "trialNumber": 7,
            "roleCurrent": "receiver",
            "marblesSampled": 100,
            "probRed": 0.5,
            "lambda": 5,
            "drawnRed": 47,
            "reportedRed": 44,
            "inferredRed": 47,
            "playerTrialScore": 0,
            "oppTrialScore": 0,
            "playerTotalScore": -9,
            "oppTotalScore": -12,
            "waitTime": 5589.245361971965,
            "responseTime": 1680724479677,
            "catchQuestion": "How many <b class=\"r\">red<\/b> marbles did your opponent report drawing? ",
            "catchKey": -1,
            "catchResponse": -1,
            "catchTime": 1680724451886,
            "trialTime": 0
        },
        {
            "exptPart": "trial",
            "trialNumber": 8,
            "roleCurrent": "sender",
            "marblesSampled": 100,
            "probRed": 0.5,
            "lambda": 5,
            "drawnRed": 58,
            "reportedRed": 60,
            "inferredRed": 65,
            "playerTrialScore": 0,
            "oppTrialScore": -7,
            "playerTotalScore": -9,
            "oppTotalScore": -19,
            "waitTime": 3231.0928743667187,
            "responseTime": 1680724498755,
            "catchQuestion": "How many <b class=\"r\">red<\/b> marbles did your opponent report drawing? ",
            "catchKey": -1,
            "catchResponse": -1,
            "catchTime": 1680724451886,
            "trialTime": 0
        },
        {
            "exptPart": "trial",
            "trialNumber": 9,
            "roleCurrent": "receiver",
            "marblesSampled": 100,
            "probRed": 0.5,
            "lambda": 5,
            "drawnRed": 47,
            "reportedRed": 42,
            "inferredRed": 49,
            "playerTrialScore": -2,
            "oppTrialScore": 0,
            "playerTotalScore": -11,
            "oppTotalScore": -19,
            "waitTime": 6544.277210324922,
            "responseTime": 1680724522727,
            "catchQuestion": "How many <b class=\"r\">red<\/b> marbles did your opponent report drawing? ",
            "catchKey": -1,
            "catchResponse": -1,
            "catchTime": 1680724451886,
            "trialTime": 0
        },
        {
            "exptPart": "trial",
            "trialNumber": 10,
            "roleCurrent": "sender",
            "marblesSampled": 100,
            "probRed": 0.5,
            "lambda": 5,
            "drawnRed": 46,
            "reportedRed": 44,
            "inferredRed": 50,
            "playerTrialScore": 0,
            "oppTrialScore": -4,
            "playerTotalScore": -11,
            "oppTotalScore": -23,
            "waitTime": 2919.82361709307,
            "responseTime": 1680724537400,
            "catchQuestion": "How many <b class=\"r\">red<\/b> marbles did your opponent report drawing? ",
            "catchKey": -1,
            "catchResponse": -1,
            "catchTime": 1680724537400,
            "trialTime": 0
        },
        {
            "exptPart": "trial",
            "trialNumber": 11,
            "roleCurrent": "receiver",
            "marblesSampled": 100,
            "probRed": 0.5,
            "lambda": 5,
            "drawnRed": 19,
            "reportedRed": 13,
            "inferredRed": 20,
            "playerTrialScore": -1,
            "oppTrialScore": 0,
            "playerTotalScore": -12,
            "oppTotalScore": -23,
            "waitTime": 5230.907473298785,
            "responseTime": 1680724553773,
            "catchQuestion": "How many <b class=\"r\">red<\/b> marbles did your opponent report drawing? ",
            "catchKey": -1,
            "catchResponse": -1,
            "catchTime": 1680724537400,
            "trialTime": 0
        },
        {
            "exptPart": "trial",
            "trialNumber": 12,
            "roleCurrent": "sender",
            "marblesSampled": 100,
            "probRed": 0.5,
            "lambda": 5,
            "drawnRed": 49,
            "reportedRed": 42,
            "inferredRed": 47,
            "playerTrialScore": 2,
            "oppTrialScore": -2,
            "playerTotalScore": -10,
            "oppTotalScore": -25,
            "waitTime": 2543.539781748206,
            "responseTime": 1680724603645,
            "catchQuestion": "How many <b class=\"r\">red<\/b> marbles did your opponent report drawing? ",
            "catchKey": -1,
            "catchResponse": -1,
            "catchTime": 1680724537400,
            "trialTime": 0
        },
        {
            "exptPart": "trial",
            "trialNumber": 13,
            "roleCurrent": "receiver",
            "marblesSampled": 100,
            "probRed": 0.5,
            "lambda": 5,
            "drawnRed": 42,
            "reportedRed": 36,
            "inferredRed": 36,
            "playerTrialScore": -6,
            "oppTrialScore": 6,
            "playerTotalScore": -16,
            "oppTotalScore": -19,
            "waitTime": 5581.828853635155,
            "responseTime": 1680724614015,
            "catchQuestion": "How many <b class=\"r\">red<\/b> marbles did your opponent report drawing? ",
            "catchKey": -1,
            "catchResponse": -1,
            "catchTime": 1680724537400,
            "trialTime": 0
        },
        {
            "exptPart": "trial",
            "trialNumber": 14,
            "roleCurrent": "sender",
            "marblesSampled": 100,
            "probRed": 0.5,
            "lambda": 5,
            "drawnRed": 70,
            "reportedRed": 58,
            "inferredRed": 63,
            "playerTrialScore": 7,
            "oppTrialScore": -7,
            "playerTotalScore": -9,
            "oppTotalScore": -26,
            "waitTime": 2648.809361928953,
            "responseTime": 1680724653914,
            "catchQuestion": "How many <b class=\"r\">red<\/b> marbles did your opponent report drawing? ",
            "catchKey": -1,
            "catchResponse": -1,
            "catchTime": 1680724537400,
            "trialTime": 0
        },
        {
            "exptPart": "trial",
            "trialNumber": 15,
            "roleCurrent": "receiver",
            "marblesSampled": 100,
            "probRed": 0.5,
            "lambda": 5,
            "drawnRed": 55,
            "reportedRed": 50,
            "inferredRed": 60,
            "playerTrialScore": -5,
            "oppTrialScore": 0,
            "playerTotalScore": -14,
            "oppTotalScore": -26,
            "waitTime": 5238.216103754476,
            "responseTime": 1680724663539,
            "catchQuestion": "How many <b class=\"r\">red<\/b> marbles did your opponent report drawing? ",
            "catchKey": -1,
            "catchResponse": -1,
            "catchTime": 1680724663539,
            "trialTime": 0
        },
        {
            "exptPart": "trial",
            "trialNumber": 16,
            "roleCurrent": "sender",
            "marblesSampled": 100,
            "probRed": 0.5,
            "lambda": 5,
            "drawnRed": 59,
            "reportedRed": 63,
            "inferredRed": 67,
            "playerTrialScore": 0,
            "oppTrialScore": -8,
            "playerTotalScore": -14,
            "oppTotalScore": -34,
            "waitTime": 3089.1788174785524,
            "responseTime": 1680724696305,
            "catchQuestion": "How many <b class=\"r\">red<\/b> marbles did your opponent report drawing? ",
            "catchKey": -1,
            "catchResponse": -1,
            "catchTime": 1680724663539,
            "trialTime": 0
        },
        {
            "exptPart": "trial",
            "trialNumber": 17,
            "roleCurrent": "receiver",
            "marblesSampled": 100,
            "probRed": 0.5,
            "lambda": 5,
            "drawnRed": 27,
            "reportedRed": 24,
            "inferredRed": 26,
            "playerTrialScore": -1,
            "oppTrialScore": 1,
            "playerTotalScore": -15,
            "oppTotalScore": -33,
            "waitTime": 5606.602366393963,
            "responseTime": 1680724711301,
            "catchQuestion": "How many <b class=\"r\">red<\/b> marbles did your opponent report drawing? ",
            "catchKey": -1,
            "catchResponse": -1,
            "catchTime": 1680724663539,
            "trialTime": 0
        },
        {
            "exptPart": "trial",
            "trialNumber": 18,
            "roleCurrent": "sender",
            "marblesSampled": 100,
            "probRed": 0.5,
            "lambda": 5,
            "drawnRed": 30,
            "reportedRed": 20,
            "inferredRed": 27,
            "playerTrialScore": 3,
            "oppTrialScore": -3,
            "playerTotalScore": -12,
            "oppTotalScore": -36,
            "waitTime": 2394.7666128326073,
            "responseTime": 1680724778172,
            "catchQuestion": "How many <b class=\"r\">red<\/b> marbles did your opponent report drawing? ",
            "catchKey": -1,
            "catchResponse": -1,
            "catchTime": 1680724663539,
            "trialTime": 0
        },
        {
            "exptPart": "trial",
            "trialNumber": 19,
            "roleCurrent": "receiver",
            "marblesSampled": 100,
            "probRed": 0.5,
            "lambda": 5,
            "drawnRed": 65,
            "reportedRed": 60,
            "inferredRed": 67,
            "playerTrialScore": -2,
            "oppTrialScore": 0,
            "playerTotalScore": -14,
            "oppTotalScore": -36,
            "waitTime": 6369.394088738423,
            "responseTime": 1680724789909,
            "catchQuestion": "How many <b class=\"r\">red<\/b> marbles did your opponent report drawing? ",
            "catchKey": -1,
            "catchResponse": -1,
            "catchTime": 1680724663539,
            "trialTime": 0
        },
        {
            "exptPart": "trial",
            "trialNumber": 20,
            "roleCurrent": "sender",
            "marblesSampled": 100,
            "probRed": 0.5,
            "lambda": 5,
            "drawnRed": 46,
            "reportedRed": 39,
            "inferredRed": 48,
            "playerTrialScore": 0,
            "oppTrialScore": -2,
            "playerTotalScore": -14,
            "oppTotalScore": -38,
            "waitTime": 2268.828110707732,
            "responseTime": 1680724815522,
            "catchQuestion": "How many <b class=\"r\">red<\/b> marbles did your opponent report drawing? ",
            "catchKey": -1,
            "catchResponse": -1,
            "catchTime": 1680724815522,
            "trialTime": 0
        },
        {
            "exptPart": "trial",
            "trialNumber": 21,
            "roleCurrent": "receiver",
            "marblesSampled": 100,
            "probRed": 0.5,
            "lambda": 5,
            "drawnRed": 18,
            "reportedRed": 11,
            "inferredRed": 20,
            "playerTrialScore": -2,
            "oppTrialScore": 0,
            "playerTotalScore": -16,
            "oppTotalScore": -38,
            "waitTime": 6871.253931151543,
            "responseTime": 1680724828307,
            "catchQuestion": "How many <b class=\"r\">red<\/b> marbles did your opponent report drawing? ",
            "catchKey": -1,
            "catchResponse": -1,
            "catchTime": 1680724815522,
            "trialTime": 0
        },
        {
            "exptPart": "trial",
            "trialNumber": 22,
            "roleCurrent": "sender",
            "marblesSampled": 100,
            "probRed": 0.5,
            "lambda": 5,
            "drawnRed": 63,
            "reportedRed": 50,
            "inferredRed": 53,
            "playerTrialScore": 10,
            "oppTrialScore": -10,
            "playerTotalScore": -6,
            "oppTotalScore": -48,
            "waitTime": 2438.3988180571114,
            "responseTime": 1680724872018,
            "catchQuestion": "How many <b class=\"r\">red<\/b> marbles did your opponent report drawing? ",
            "catchKey": -1,
            "catchResponse": -1,
            "catchTime": 1680724815522,
            "trialTime": 0
        },
        {
            "exptPart": "trial",
            "trialNumber": 23,
            "roleCurrent": "receiver",
            "marblesSampled": 100,
            "probRed": 0.5,
            "lambda": 5,
            "drawnRed": 62,
            "reportedRed": 61,
            "inferredRed": 75,
            "playerTrialScore": -13,
            "oppTrialScore": 0,
            "playerTotalScore": -19,
            "oppTotalScore": -48,
            "waitTime": 6672.362739114411,
            "responseTime": 1680724884969,
            "catchQuestion": "How many <b class=\"r\">red<\/b> marbles did your opponent report drawing? ",
            "catchKey": -1,
            "catchResponse": -1,
            "catchTime": 1680724815522,
            "trialTime": 0
        },
        {
            "exptPart": "trial",
            "trialNumber": 24,
            "roleCurrent": "sender",
            "marblesSampled": 100,
            "probRed": 0.5,
            "lambda": 5,
            "drawnRed": 75,
            "reportedRed": 58,
            "inferredRed": 64,
            "playerTrialScore": 11,
            "oppTrialScore": -11,
            "playerTotalScore": -8,
            "oppTotalScore": -59,
            "waitTime": 2270.831279907476,
            "responseTime": 1680724941622,
            "catchQuestion": "How many <b class=\"r\">red<\/b> marbles did your opponent report drawing? ",
            "catchKey": -1,
            "catchResponse": -1,
            "catchTime": 1680724815522,
            "trialTime": 0
        },
        {
            "exptPart": "trial",
            "trialNumber": 25,
            "roleCurrent": "receiver",
            "marblesSampled": 100,
            "probRed": 0.5,
            "lambda": 5,
            "drawnRed": 43,
            "reportedRed": 40,
            "inferredRed": 52,
            "playerTrialScore": -9,
            "oppTrialScore": 0,
            "playerTotalScore": -17,
            "oppTotalScore": -59,
            "waitTime": 6873.9309485595995,
            "responseTime": 1680724953833,
            "catchQuestion": "How many <b class=\"r\">red<\/b> marbles did your opponent report drawing? ",
            "catchKey": -1,
            "catchResponse": -1,
            "catchTime": 1680724953833,
            "trialTime": 0
        },
        {
            "exptPart": "trial",
            "trialNumber": 26,
            "roleCurrent": "sender",
            "marblesSampled": 100,
            "probRed": 0.5,
            "lambda": 5,
            "drawnRed": 33,
            "reportedRed": 3,
            "inferredRed": 7,
            "playerTrialScore": 26,
            "oppTrialScore": -26,
            "playerTotalScore": 9,
            "oppTotalScore": -85,
            "waitTime": 3144.1567586748665,
            "responseTime": 1680725108883,
            "catchQuestion": "How many <b class=\"r\">red<\/b> marbles did your opponent report drawing? ",
            "catchKey": -1,
            "catchResponse": -1,
            "catchTime": 1680724953833,
            "trialTime": 0
        },
        {
            "exptPart": "trial",
            "trialNumber": 27,
            "roleCurrent": "receiver",
            "marblesSampled": 100,
            "probRed": 0.5,
            "lambda": 5,
            "drawnRed": 53,
            "reportedRed": 44,
            "inferredRed": 69,
            "playerTrialScore": -16,
            "oppTrialScore": 0,
            "playerTotalScore": -7,
            "oppTotalScore": -85,
            "waitTime": 6370.312669563144,
            "responseTime": 1680725121784,
            "catchQuestion": "How many <b class=\"r\">red<\/b> marbles did your opponent report drawing? ",
            "catchKey": 44,
            "catchResponse": 43,
            "catchTime": 1680725121784,
            "trialTime": 0
        },
        {
            "exptPart": "trial",
            "trialNumber": 28,
            "roleCurrent": "sender",
            "marblesSampled": 100,
            "probRed": 0.5,
            "lambda": 5,
            "drawnRed": 58,
            "reportedRed": 50,
            "inferredRed": 61,
            "playerTrialScore": 0,
            "oppTrialScore": -3,
            "playerTotalScore": -7,
            "oppTotalScore": -88,
            "waitTime": 3138.1877339139146,
            "responseTime": 1680725160810,
            "catchQuestion": "How many <b class=\"r\">red<\/b> marbles did your opponent report drawing? ",
            "catchKey": -1,
            "catchResponse": -1,
            "catchTime": 1680725121784,
            "trialTime": 0
        },
        {
            "exptPart": "trial",
            "trialNumber": 29,
            "roleCurrent": "receiver",
            "marblesSampled": 100,
            "probRed": 0.5,
            "lambda": 5,
            "drawnRed": 44,
            "reportedRed": 38,
            "inferredRed": 59,
            "playerTrialScore": -15,
            "oppTrialScore": 0,
            "playerTotalScore": -22,
            "oppTotalScore": -88,
            "waitTime": 6734.362316285765,
            "responseTime": 1680725177987,
            "catchQuestion": "How many <b class=\"r\">red<\/b> marbles did your opponent report drawing? ",
            "catchKey": -1,
            "catchResponse": -1,
            "catchTime": 1680725121784,
            "trialTime": 0
        },
        {
            "exptPart": "trial",
            "trialNumber": 30,
            "roleCurrent": "sender",
            "marblesSampled": 100,
            "probRed": 0.5,
            "lambda": 5,
            "drawnRed": 50,
            "reportedRed": 44,
            "inferredRed": 51,
            "playerTrialScore": 0,
            "oppTrialScore": -1,
            "playerTotalScore": -22,
            "oppTotalScore": -89,
            "waitTime": 2128.102426797476,
            "responseTime": 1680725196781,
            "catchQuestion": "How many <b class=\"r\">red<\/b> marbles did your opponent report drawing? ",
            "catchKey": -1,
            "catchResponse": -1,
            "catchTime": 1680725196781,
            "trialTime": 0
        },
        {
            "exptPart": "trial",
            "trialNumber": 31,
            "roleCurrent": "receiver",
            "marblesSampled": 100,
            "probRed": 0.5,
            "lambda": 5,
            "drawnRed": 92,
            "reportedRed": 85,
            "inferredRed": 80,
            "playerTrialScore": -12,
            "oppTrialScore": 12,
            "playerTotalScore": -34,
            "oppTotalScore": -77,
            "waitTime": 6095.068278981386,
            "responseTime": 1680725217024,
            "catchQuestion": "How many <b class=\"r\">red<\/b> marbles did your opponent report drawing? ",
            "catchKey": -1,
            "catchResponse": -1,
            "catchTime": 1680725196781,
            "trialTime": 0
        },
        {
            "exptPart": "trial",
            "trialNumber": 32,
            "roleCurrent": "sender",
            "marblesSampled": 100,
            "probRed": 0.5,
            "lambda": 5,
            "drawnRed": 40,
            "reportedRed": 38,
            "inferredRed": 45,
            "playerTrialScore": 0,
            "oppTrialScore": -5,
            "playerTotalScore": -34,
            "oppTotalScore": -82,
            "waitTime": 2706.404676059532,
            "responseTime": 1680725229385,
            "catchQuestion": "How many <b class=\"r\">red<\/b> marbles did your opponent report drawing? ",
            "catchKey": -1,
            "catchResponse": -1,
            "catchTime": 1680725196781,
            "trialTime": 0
        },
        {
            "exptPart": "trial",
            "trialNumber": 33,
            "roleCurrent": "receiver",
            "marblesSampled": 100,
            "probRed": 0.5,
            "lambda": 5,
            "drawnRed": 64,
            "reportedRed": 60,
            "inferredRed": 65,
            "playerTrialScore": -1,
            "oppTrialScore": 0,
            "playerTotalScore": -35,
            "oppTotalScore": -82,
            "waitTime": 5603.605389916428,
            "responseTime": 1680725240221,
            "catchQuestion": "How many <b class=\"r\">red<\/b> marbles did your opponent report drawing? ",
            "catchKey": -1,
            "catchResponse": -1,
            "catchTime": 1680725196781,
            "trialTime": 0
        },
        {
            "exptPart": "trial",
            "trialNumber": 34,
            "roleCurrent": "sender",
            "marblesSampled": 100,
            "probRed": 0.5,
            "lambda": 5,
            "drawnRed": 88,
            "reportedRed": 64,
            "inferredRed": 70,
            "playerTrialScore": 18,
            "oppTrialScore": -18,
            "playerTotalScore": -17,
            "oppTotalScore": -100,
            "waitTime": 2972.964422396288,
            "responseTime": 1680725339427,
            "catchQuestion": "How many <b class=\"r\">red<\/b> marbles did your opponent report drawing? ",
            "catchKey": -1,
            "catchResponse": -1,
            "catchTime": 1680725196781,
            "trialTime": 0
        },
        {
            "exptPart": "trial",
            "trialNumber": 35,
            "roleCurrent": "receiver",
            "marblesSampled": 100,
            "probRed": 0.5,
            "lambda": 5,
            "drawnRed": 34,
            "reportedRed": 26,
            "inferredRed": 50,
            "playerTrialScore": -16,
            "oppTrialScore": 0,
            "playerTotalScore": -33,
            "oppTotalScore": -100,
            "waitTime": 5162.902761875712,
            "responseTime": 1680725353557,
            "catchQuestion": "How many <b class=\"r\">red<\/b> marbles did your opponent report drawing? ",
            "catchKey": -1,
            "catchResponse": -1,
            "catchTime": 1680725353557,
            "trialTime": 0
        },
        {
            "exptPart": "trial",
            "trialNumber": 36,
            "roleCurrent": "sender",
            "marblesSampled": 100,
            "probRed": 0.5,
            "lambda": 5,
            "drawnRed": 51,
            "reportedRed": 48,
            "inferredRed": 55,
            "playerTrialScore": 0,
            "oppTrialScore": -4,
            "playerTotalScore": -33,
            "oppTotalScore": -104,
            "waitTime": 3122.922368646291,
            "responseTime": 1680725368684,
            "catchQuestion": "How many <b class=\"r\">red<\/b> marbles did your opponent report drawing? ",
            "catchKey": -1,
            "catchResponse": -1,
            "catchTime": 1680725353557,
            "trialTime": 0
        },
        {
            "exptPart": "trial",
            "trialNumber": 37,
            "roleCurrent": "receiver",
            "marblesSampled": 100,
            "probRed": 0.5,
            "lambda": 5,
            "drawnRed": 52,
            "reportedRed": 46,
            "inferredRed": 50,
            "playerTrialScore": -2,
            "oppTrialScore": 2,
            "playerTotalScore": -35,
            "oppTotalScore": -102,
            "waitTime": 5651.989387707836,
            "responseTime": 1680725383727,
            "catchQuestion": "How many <b class=\"r\">red<\/b> marbles did your opponent report drawing? ",
            "catchKey": -1,
            "catchResponse": -1,
            "catchTime": 1680725353557,
            "trialTime": 0
        },
        {
            "exptPart": "trial",
            "trialNumber": 38,
            "roleCurrent": "sender",
            "marblesSampled": 100,
            "probRed": 0.5,
            "lambda": 5,
            "drawnRed": 48,
            "reportedRed": 43,
            "inferredRed": 48,
            "playerTrialScore": 0,
            "oppTrialScore": 0,
            "playerTotalScore": -35,
            "oppTotalScore": -102,
            "waitTime": 2810.49105698198,
            "responseTime": 1680725400152,
            "catchQuestion": "How many <b class=\"r\">red<\/b> marbles did your opponent report drawing? ",
            "catchKey": -1,
            "catchResponse": -1,
            "catchTime": 1680725353557,
            "trialTime": 0
        },
        {
            "exptPart": "trial",
            "trialNumber": 39,
            "roleCurrent": "receiver",
            "marblesSampled": 100,
            "probRed": 0.5,
            "lambda": 5,
            "drawnRed": 15,
            "reportedRed": 12,
            "inferredRed": 22,
            "playerTrialScore": -7,
            "oppTrialScore": 0,
            "playerTotalScore": -42,
            "oppTotalScore": -102,
            "waitTime": 6437.633771521337,
            "responseTime": 1680725415379,
            "catchQuestion": "How many <b class=\"r\">red<\/b> marbles did your opponent report drawing? ",
            "catchKey": -1,
            "catchResponse": -1,
            "catchTime": 1680725353557,
            "trialTime": 0
        },
        {
            "exptPart": "trial",
            "trialNumber": 40,
            "roleCurrent": "sender",
            "marblesSampled": 100,
            "probRed": 0.5,
            "lambda": 5,
            "drawnRed": 52,
            "reportedRed": 52,
            "inferredRed": 56,
            "playerTrialScore": 0,
            "oppTrialScore": -4,
            "playerTotalScore": -42,
            "oppTotalScore": -106,
            "waitTime": 2639.8671647862584,
            "responseTime": 1680725422268,
            "catchQuestion": "How many <b class=\"r\">red<\/b> marbles did your opponent report drawing? ",
            "catchKey": -1,
            "catchResponse": -1,
            "catchTime": 1680725422268,
            "trialTime": 0
        },
        {
            "exptPart": "trial",
            "trialNumber": 41,
            "roleCurrent": "receiver",
            "marblesSampled": 100,
            "probRed": 0.5,
            "lambda": 5,
            "drawnRed": 54,
            "reportedRed": 50,
            "inferredRed": 54,
            "playerTrialScore": 0,
            "oppTrialScore": 0,
            "playerTotalScore": -42,
            "oppTotalScore": -106,
            "waitTime": 6310.992914792818,
            "responseTime": 1680725436897,
            "catchQuestion": "How many <b class=\"r\">red<\/b> marbles did your opponent report drawing? ",
            "catchKey": -1,
            "catchResponse": -1,
            "catchTime": 1680725422268,
            "trialTime": 0
        },
        {
            "exptPart": "trial",
            "trialNumber": 42,
            "roleCurrent": "sender",
            "marblesSampled": 100,
            "probRed": 0.5,
            "lambda": 5,
            "drawnRed": 67,
            "reportedRed": 65,
            "inferredRed": 73,
            "playerTrialScore": 0,
            "oppTrialScore": -6,
            "playerTotalScore": -42,
            "oppTotalScore": -112,
            "waitTime": 2975.653666240073,
            "responseTime": 1680725450545,
            "catchQuestion": "How many <b class=\"r\">red<\/b> marbles did your opponent report drawing? ",
            "catchKey": -1,
            "catchResponse": -1,
            "catchTime": 1680725422268,
            "trialTime": 0
        },
        {
            "exptPart": "trial",
            "trialNumber": 43,
            "roleCurrent": "receiver",
            "marblesSampled": 100,
            "probRed": 0.5,
            "lambda": 5,
            "drawnRed": 27,
            "reportedRed": 21,
            "inferredRed": 43,
            "playerTrialScore": -16,
            "oppTrialScore": 0,
            "playerTotalScore": -58,
            "oppTotalScore": -112,
            "waitTime": 5157.911282593042,
            "responseTime": 1680725461883,
            "catchQuestion": "How many <b class=\"r\">red<\/b> marbles did your opponent report drawing? ",
            "catchKey": -1,
            "catchResponse": -1,
            "catchTime": 1680725422268,
            "trialTime": 0
        },
        {
            "exptPart": "trial",
            "trialNumber": 44,
            "roleCurrent": "sender",
            "marblesSampled": 100,
            "probRed": 0.5,
            "lambda": 5,
            "drawnRed": 42,
            "reportedRed": 36,
            "inferredRed": 38,
            "playerTrialScore": 4,
            "oppTrialScore": -4,
            "playerTotalScore": -54,
            "oppTotalScore": -116,
            "waitTime": 3152.72514132242,
            "responseTime": 1680725485220,
            "catchQuestion": "How many <b class=\"r\">red<\/b> marbles did your opponent report drawing? ",
            "catchKey": -1,
            "catchResponse": -1,
            "catchTime": 1680725422268,
            "trialTime": 0
        },
        {
            "exptPart": "trial",
            "trialNumber": 45,
            "roleCurrent": "receiver",
            "marblesSampled": 100,
            "probRed": 0.5,
            "lambda": 5,
            "drawnRed": 62,
            "reportedRed": 57,
            "inferredRed": 70,
            "playerTrialScore": -8,
            "oppTrialScore": 0,
            "playerTotalScore": -62,
            "oppTotalScore": -116,
            "waitTime": 7251.325183044033,
            "responseTime": 1680725497182,
            "catchQuestion": "How many <b class=\"r\">red<\/b> marbles did your opponent report drawing? ",
            "catchKey": -1,
            "catchResponse": -1,
            "catchTime": 1680725497182,
            "trialTime": 0
        },
        {
            "exptPart": "trial",
            "trialNumber": 46,
            "roleCurrent": "sender",
            "marblesSampled": 100,
            "probRed": 0.5,
            "lambda": 5,
            "drawnRed": 35,
            "reportedRed": 32,
            "inferredRed": 35,
            "playerTrialScore": 0,
            "oppTrialScore": 0,
            "playerTotalScore": -62,
            "oppTotalScore": -116,
            "waitTime": 3198.9066864879455,
            "responseTime": 1680725511893,
            "catchQuestion": "How many <b class=\"r\">red<\/b> marbles did you actually draw (before any changes)? ",
            "catchKey": 35,
            "catchResponse": 35,
            "catchTime": 1680725511893,
            "trialTime": 0
        },
        {
            "exptPart": "trial",
            "trialNumber": 47,
            "roleCurrent": "receiver",
            "marblesSampled": 100,
            "probRed": 0.5,
            "lambda": 5,
            "drawnRed": 14,
            "reportedRed": 7,
            "inferredRed": 25,
            "playerTrialScore": -11,
            "oppTrialScore": 0,
            "playerTotalScore": -73,
            "oppTotalScore": -116,
            "waitTime": 5432.438082622781,
            "responseTime": 1680725531184,
            "catchQuestion": "How many <b class=\"r\">red<\/b> marbles did you actually draw (before any changes)? ",
            "catchKey": -1,
            "catchResponse": -1,
            "catchTime": 1680725511893,
            "trialTime": 0
        },
        {
            "exptPart": "trial",
            "trialNumber": 48,
            "roleCurrent": "sender",
            "marblesSampled": 100,
            "probRed": 0.5,
            "lambda": 5,
            "drawnRed": 73,
            "reportedRed": 61,
            "inferredRed": 63,
            "playerTrialScore": 10,
            "oppTrialScore": -10,
            "playerTotalScore": -63,
            "oppTotalScore": -126,
            "waitTime": 3120.5002760038374,
            "responseTime": 1680725564968,
            "catchQuestion": "How many <b class=\"r\">red<\/b> marbles did you actually draw (before any changes)? ",
            "catchKey": -1,
            "catchResponse": -1,
            "catchTime": 1680725511893,
            "trialTime": 0
        },
        {
            "exptPart": "trial",
            "trialNumber": 49,
            "roleCurrent": "receiver",
            "marblesSampled": 100,
            "probRed": 0.5,
            "lambda": 5,
            "drawnRed": 65,
            "reportedRed": 56,
            "inferredRed": 65,
            "playerTrialScore": 0,
            "oppTrialScore": 0,
            "playerTotalScore": -63,
            "oppTotalScore": -126,
            "waitTime": 6062.272211211309,
            "responseTime": 1680725577722,
            "catchQuestion": "How many <b class=\"r\">red<\/b> marbles did you actually draw (before any changes)? ",
            "catchKey": -1,
            "catchResponse": -1,
            "catchTime": 1680725511893,
            "trialTime": 0
        },
        {
            "exptPart": "trial",
            "trialNumber": 50,
            "roleCurrent": "sender",
            "marblesSampled": 100,
            "probRed": 0.5,
            "lambda": 5,
            "drawnRed": 45,
            "reportedRed": 44,
            "inferredRed": 46,
            "playerTrialScore": 0,
            "oppTrialScore": -1,
            "playerTotalScore": -63,
            "oppTotalScore": -127,
            "waitTime": 2787.2848268405196,
            "responseTime": 1680725586691,
            "catchQuestion": "How many <b class=\"r\">red<\/b> marbles did you actually draw (before any changes)? ",
            "catchKey": -1,
            "catchResponse": -1,
            "catchTime": 1680725586691,
            "trialTime": 0
        },
        {
            "exptPart": "trial",
            "trialNumber": 51,
            "roleCurrent": "receiver",
            "marblesSampled": 100,
            "probRed": 0.5,
            "lambda": 5,
            "drawnRed": 71,
            "reportedRed": 69,
            "inferredRed": 75,
            "playerTrialScore": -4,
            "oppTrialScore": 0,
            "playerTotalScore": -67,
            "oppTotalScore": -127,
            "waitTime": 5667.262424033724,
            "responseTime": 1680725598415,
            "catchQuestion": "How many <b class=\"r\">red<\/b> marbles did you actually draw (before any changes)? ",
            "catchKey": -1,
            "catchResponse": -1,
            "catchTime": 1680725586691,
            "trialTime": 0
        },
        {
            "exptPart": "trial",
            "trialNumber": 52,
            "roleCurrent": "sender",
            "marblesSampled": 100,
            "probRed": 0.5,
            "lambda": 5,
            "drawnRed": 75,
            "reportedRed": 63,
            "inferredRed": 68,
            "playerTrialScore": 7,
            "oppTrialScore": -7,
            "playerTotalScore": -60,
            "oppTotalScore": -134,
            "waitTime": 2417.9947848399447,
            "responseTime": 1680725631374,
            "catchQuestion": "How many <b class=\"r\">red<\/b> marbles did you actually draw (before any changes)? ",
            "catchKey": -1,
            "catchResponse": -1,
            "catchTime": 1680725586691,
            "trialTime": 0
        },
        {
            "exptPart": "trial",
            "trialNumber": 53,
            "roleCurrent": "receiver",
            "marblesSampled": 100,
            "probRed": 0.5,
            "lambda": 5,
            "drawnRed": 58,
            "reportedRed": 54,
            "inferredRed": 60,
            "playerTrialScore": -2,
            "oppTrialScore": 0,
            "playerTotalScore": -62,
            "oppTotalScore": -134,
            "waitTime": 5800.266376737871,
            "responseTime": 1680725640281,
            "catchQuestion": "How many <b class=\"r\">red<\/b> marbles did you actually draw (before any changes)? ",
            "catchKey": -1,
            "catchResponse": -1,
            "catchTime": 1680725586691,
            "trialTime": 0
        },
        {
            "exptPart": "trial",
            "trialNumber": 54,
            "roleCurrent": "sender",
            "marblesSampled": 100,
            "probRed": 0.5,
            "lambda": 5,
            "drawnRed": 56,
            "reportedRed": 50,
            "inferredRed": 54,
            "playerTrialScore": 2,
            "oppTrialScore": -2,
            "playerTotalScore": -60,
            "oppTotalScore": -136,
            "waitTime": 3115.6381447606364,
            "responseTime": 1680725658141,
            "catchQuestion": "How many <b class=\"r\">red<\/b> marbles did you actually draw (before any changes)? ",
            "catchKey": -1,
            "catchResponse": -1,
            "catchTime": 1680725586691,
            "trialTime": 0
        },
        {
            "exptPart": "trial",
            "trialNumber": 55,
            "roleCurrent": "receiver",
            "marblesSampled": 100,
            "probRed": 0.5,
            "lambda": 5,
            "drawnRed": 70,
            "reportedRed": 65,
            "inferredRed": 74,
            "playerTrialScore": -4,
            "oppTrialScore": 0,
            "playerTotalScore": -64,
            "oppTotalScore": -136,
            "waitTime": 6076.562058560608,
            "responseTime": 1680725671701,
            "catchQuestion": "How many <b class=\"r\">red<\/b> marbles did your opponent report drawing? ",
            "catchKey": 65,
            "catchResponse": 65,
            "catchTime": 1680725671701,
            "trialTime": 0
        },
        {
            "exptPart": "trial",
            "trialNumber": 56,
            "roleCurrent": "sender",
            "marblesSampled": 100,
            "probRed": 0.5,
            "lambda": 5,
            "drawnRed": 42,
            "reportedRed": 32,
            "inferredRed": 37,
            "playerTrialScore": 5,
            "oppTrialScore": -5,
            "playerTotalScore": -59,
            "oppTotalScore": -141,
            "waitTime": 2947.092206432816,
            "responseTime": 1680725707862,
            "catchQuestion": "How many <b class=\"r\">red<\/b> marbles did your opponent report drawing? ",
            "catchKey": -1,
            "catchResponse": -1,
            "catchTime": 1680725671701,
            "trialTime": 0
        },
        {
            "exptPart": "trial",
            "trialNumber": 57,
            "roleCurrent": "receiver",
            "marblesSampled": 100,
            "probRed": 0.5,
            "lambda": 5,
            "drawnRed": 49,
            "reportedRed": 45,
            "inferredRed": 50,
            "playerTrialScore": -1,
            "oppTrialScore": 0,
            "playerTotalScore": -60,
            "oppTotalScore": -141,
            "waitTime": 6056.2643053193315,
            "responseTime": 1680725719052,
            "catchQuestion": "How many <b class=\"r\">red<\/b> marbles did your opponent report drawing? ",
            "catchKey": 45,
            "catchResponse": 45,
            "catchTime": 1680725719052,
            "trialTime": 0
        },
        {
            "exptPart": "trial",
            "trialNumber": 58,
            "roleCurrent": "sender",
            "marblesSampled": 100,
            "probRed": 0.5,
            "lambda": 5,
            "drawnRed": 43,
            "reportedRed": 39,
            "inferredRed": 43,
            "playerTrialScore": 0,
            "oppTrialScore": 0,
            "playerTotalScore": -60,
            "oppTotalScore": -141,
            "waitTime": 2096.310793944056,
            "responseTime": 1680725740394,
            "catchQuestion": "How many <b class=\"r\">red<\/b> marbles did your opponent report drawing? ",
            "catchKey": -1,
            "catchResponse": -1,
            "catchTime": 1680725719052,
            "trialTime": 0
        },
        {
            "exptPart": "trial",
            "trialNumber": 59,
            "roleCurrent": "receiver",
            "marblesSampled": 100,
            "probRed": 0.5,
            "lambda": 5,
            "drawnRed": 76,
            "reportedRed": 69,
            "inferredRed": 76,
            "playerTrialScore": 0,
            "oppTrialScore": 0,
            "playerTotalScore": -60,
            "oppTotalScore": -141,
            "waitTime": 5827.156613414914,
            "responseTime": 1680725750549,
            "catchQuestion": "How many <b class=\"r\">red<\/b> marbles did your opponent report drawing? ",
            "catchKey": -1,
            "catchResponse": -1,
            "catchTime": 1680725719052,
            "trialTime": 0
        },
        {
            "exptPart": "trial",
            "trialNumber": 60,
            "roleCurrent": "sender",
            "marblesSampled": 100,
            "probRed": 0.5,
            "lambda": 5,
            "drawnRed": 62,
            "reportedRed": 51,
            "inferredRed": 56,
            "playerTrialScore": 6,
            "oppTrialScore": -6,
            "playerTotalScore": -54,
            "oppTotalScore": -147,
            "waitTime": 2207.354019037171,
            "responseTime": 1680725776301,
            "catchQuestion": "How many <b class=\"r\">red<\/b> marbles did your opponent report drawing? ",
            "catchKey": -1,
            "catchResponse": -1,
            "catchTime": 1680725776301,
            "trialTime": 0
        },
        {
            "exptPart": "trial",
            "trialNumber": 61,
            "roleCurrent": "receiver",
            "marblesSampled": 100,
            "probRed": 0.5,
            "lambda": 5,
            "drawnRed": 41,
            "reportedRed": 40,
            "inferredRed": 45,
            "playerTrialScore": -4,
            "oppTrialScore": 0,
            "playerTotalScore": -58,
            "oppTotalScore": -147,
            "waitTime": 6155.088373134433,
            "responseTime": 1680725787210,
            "catchQuestion": "How many <b class=\"r\">red<\/b> marbles did your opponent report drawing? ",
            "catchKey": -1,
            "catchResponse": -1,
            "catchTime": 1680725776301,
            "trialTime": 0
        },
        {
            "exptPart": "trial",
            "trialNumber": 62,
            "roleCurrent": "sender",
            "marblesSampled": 100,
            "probRed": 0.5,
            "lambda": 5,
            "drawnRed": 51,
            "reportedRed": 41,
            "inferredRed": 46,
            "playerTrialScore": 5,
            "oppTrialScore": -5,
            "playerTotalScore": -53,
            "oppTotalScore": -152,
            "waitTime": 2464.3505738875356,
            "responseTime": 1680725812887,
            "catchQuestion": "How many <b class=\"r\">red<\/b> marbles did your opponent report drawing? ",
            "catchKey": -1,
            "catchResponse": -1,
            "catchTime": 1680725776301,
            "trialTime": 0
        },
        {
            "exptPart": "trial",
            "trialNumber": 63,
            "roleCurrent": "receiver",
            "marblesSampled": 100,
            "probRed": 0.5,
            "lambda": 5,
            "drawnRed": 47,
            "reportedRed": 41,
            "inferredRed": 47,
            "playerTrialScore": 0,
            "oppTrialScore": 0,
            "playerTotalScore": -53,
            "oppTotalScore": -152,
            "waitTime": 6260.6784676059815,
            "responseTime": 1680725823048,
            "catchQuestion": "How many <b class=\"r\">red<\/b> marbles did your opponent report drawing? ",
            "catchKey": -1,
            "catchResponse": -1,
            "catchTime": 1680725776301,
            "trialTime": 0
        },
        {
            "exptPart": "trial",
            "trialNumber": 64,
            "roleCurrent": "sender",
            "marblesSampled": 100,
            "probRed": 0.5,
            "lambda": 5,
            "drawnRed": 21,
            "reportedRed": 11,
            "inferredRed": 16,
            "playerTrialScore": 5,
            "oppTrialScore": -5,
            "playerTotalScore": -48,
            "oppTotalScore": -157,
            "waitTime": 2944.6567838142055,
            "responseTime": 1680725850545,
            "catchQuestion": "How many <b class=\"r\">red<\/b> marbles did your opponent report drawing? ",
            "catchKey": -1,
            "catchResponse": -1,
            "catchTime": 1680725776301,
            "trialTime": 0
        },
        {
            "exptPart": "trial",
            "trialNumber": 65,
            "roleCurrent": "receiver",
            "marblesSampled": 100,
            "probRed": 0.5,
            "lambda": 5,
            "drawnRed": 40,
            "reportedRed": 38,
            "inferredRed": 45,
            "playerTrialScore": -5,
            "oppTrialScore": 0,
            "playerTotalScore": -53,
            "oppTotalScore": -157,
            "waitTime": 6288.798390398084,
            "responseTime": 1680725865140,
            "catchQuestion": "How many <b class=\"r\">red<\/b> marbles did your opponent report drawing? ",
            "catchKey": -1,
            "catchResponse": -1,
            "catchTime": 1680725865140,
            "trialTime": 0
        },
        {
            "exptPart": "trial",
            "trialNumber": 66,
            "roleCurrent": "sender",
            "marblesSampled": 100,
            "probRed": 0.5,
            "lambda": 5,
            "drawnRed": 31,
            "reportedRed": 26,
            "inferredRed": 31,
            "playerTrialScore": 0,
            "oppTrialScore": 0,
            "playerTotalScore": -53,
            "oppTotalScore": -157,
            "waitTime": 2903.787006766232,
            "responseTime": 1680725879949,
            "catchQuestion": "How many <b class=\"r\">red<\/b> marbles did your opponent report drawing? ",
            "catchKey": -1,
            "catchResponse": -1,
            "catchTime": 1680725865140,
            "trialTime": 0
        },
        {
            "exptPart": "trial",
            "trialNumber": 67,
            "roleCurrent": "receiver",
            "marblesSampled": 100,
            "probRed": 0.5,
            "lambda": 5,
            "drawnRed": 62,
            "reportedRed": 59,
            "inferredRed": 67,
            "playerTrialScore": -5,
            "oppTrialScore": 0,
            "playerTotalScore": -58,
            "oppTotalScore": -157,
            "waitTime": 5673.833463240765,
            "responseTime": 1680725891043,
            "catchQuestion": "How many <b class=\"r\">red<\/b> marbles did your opponent report drawing? ",
            "catchKey": -1,
            "catchResponse": -1,
            "catchTime": 1680725865140,
            "trialTime": 0
        },
        {
            "exptPart": "trial",
            "trialNumber": 68,
            "roleCurrent": "sender",
            "marblesSampled": 100,
            "probRed": 0.5,
            "lambda": 5,
            "drawnRed": 43,
            "reportedRed": 30,
            "inferredRed": 33,
            "playerTrialScore": 10,
            "oppTrialScore": -10,
            "playerTotalScore": -48,
            "oppTotalScore": -167,
            "waitTime": 2093.1295534249252,
            "responseTime": 1680725929819,
            "catchQuestion": "How many <b class=\"r\">red<\/b> marbles did your opponent report drawing? ",
            "catchKey": -1,
            "catchResponse": -1,
            "catchTime": 1680725865140,
            "trialTime": 0
        },
        {
            "exptPart": "trial",
            "trialNumber": 69,
            "roleCurrent": "receiver",
            "marblesSampled": 100,
            "probRed": 0.5,
            "lambda": 5,
            "drawnRed": 83,
            "reportedRed": 77,
            "inferredRed": 80,
            "playerTrialScore": -3,
            "oppTrialScore": 3,
            "playerTotalScore": -51,
            "oppTotalScore": -164,
            "waitTime": 6298.927812389671,
            "responseTime": 1680725943892,
            "catchQuestion": "How many <b class=\"r\">red<\/b> marbles did your opponent report drawing? ",
            "catchKey": -1,
            "catchResponse": -1,
            "catchTime": 1680725865140,
            "trialTime": 0
        },
        {
            "exptPart": "trial",
            "trialNumber": 70,
            "roleCurrent": "sender",
            "marblesSampled": 100,
            "probRed": 0.5,
            "lambda": 5,
            "drawnRed": 54,
            "reportedRed": 47,
            "inferredRed": 55,
            "playerTrialScore": 0,
            "oppTrialScore": -1,
            "playerTotalScore": -51,
            "oppTotalScore": -165,
            "waitTime": 2412.6217226105123,
            "responseTime": 1680725961456,
            "catchQuestion": "How many <b class=\"r\">red<\/b> marbles did you actually draw (before any changes)? ",
            "catchKey": 54,
            "catchResponse": 57,
            "catchTime": 1680725961456,
            "trialTime": 0
        },
        {
            "exptPart": "trial",
            "trialNumber": 71,
            "roleCurrent": "receiver",
            "marblesSampled": 100,
            "probRed": 0.5,
            "lambda": 5,
            "drawnRed": 45,
            "reportedRed": 43,
            "inferredRed": 46,
            "playerTrialScore": -1,
            "oppTrialScore": 0,
            "playerTotalScore": -52,
            "oppTotalScore": -165,
            "waitTime": 6103.366979624287,
            "responseTime": 1680725981961,
            "catchQuestion": "How many <b class=\"r\">red<\/b> marbles did you actually draw (before any changes)? ",
            "catchKey": -1,
            "catchResponse": -1,
            "catchTime": 1680725961456,
            "trialTime": 0
        },
        {
            "exptPart": "trial",
            "trialNumber": 72,
            "roleCurrent": "sender",
            "marblesSampled": 100,
            "probRed": 0.5,
            "lambda": 5,
            "drawnRed": 80,
            "reportedRed": 66,
            "inferredRed": 70,
            "playerTrialScore": 10,
            "oppTrialScore": -10,
            "playerTotalScore": -42,
            "oppTotalScore": -175,
            "waitTime": 2275.56277916433,
            "responseTime": 1680726021489,
            "catchQuestion": "How many <b class=\"r\">red<\/b> marbles did you actually draw (before any changes)? ",
            "catchKey": -1,
            "catchResponse": -1,
            "catchTime": 1680725961456,
            "trialTime": 0
        },
        {
            "exptPart": "trial",
            "trialNumber": 73,
            "roleCurrent": "receiver",
            "marblesSampled": 100,
            "probRed": 0.5,
            "lambda": 5,
            "drawnRed": 58,
            "reportedRed": 56,
            "inferredRed": 63,
            "playerTrialScore": -5,
            "oppTrialScore": 0,
            "playerTotalScore": -47,
            "oppTotalScore": -175,
            "waitTime": 5946.453591770759,
            "responseTime": 1680726031863,
            "catchQuestion": "How many <b class=\"r\">red<\/b> marbles did you actually draw (before any changes)? ",
            "catchKey": -1,
            "catchResponse": -1,
            "catchTime": 1680725961456,
            "trialTime": 0
        },
        {
            "exptPart": "trial",
            "trialNumber": 74,
            "roleCurrent": "sender",
            "marblesSampled": 100,
            "probRed": 0.5,
            "lambda": 5,
            "drawnRed": 51,
            "reportedRed": 48,
            "inferredRed": 48,
            "playerTrialScore": 3,
            "oppTrialScore": -3,
            "playerTotalScore": -44,
            "oppTotalScore": -178,
            "waitTime": 2194.864092833599,
            "responseTime": 1680726043739,
            "catchQuestion": "How many <b class=\"r\">red<\/b> marbles did you actually draw (before any changes)? ",
            "catchKey": -1,
            "catchResponse": -1,
            "catchTime": 1680725961456,
            "trialTime": 0
        },
        {
            "exptPart": "trial",
            "trialNumber": 75,
            "roleCurrent": "receiver",
            "marblesSampled": 100,
            "probRed": 0.5,
            "lambda": 5,
            "drawnRed": 60,
            "reportedRed": 52,
            "inferredRed": 58,
            "playerTrialScore": -2,
            "oppTrialScore": 2,
            "playerTotalScore": -46,
            "oppTotalScore": -176,
            "waitTime": 5980.340041008301,
            "responseTime": 1680726057027,
            "catchQuestion": "How many <b class=\"r\">red<\/b> marbles did you actually draw (before any changes)? ",
            "catchKey": -1,
            "catchResponse": -1,
            "catchTime": 1680726057027,
            "trialTime": 0
        },
        {
            "exptPart": "trial",
            "trialNumber": 76,
            "roleCurrent": "sender",
            "marblesSampled": 100,
            "probRed": 0.5,
            "lambda": 5,
            "drawnRed": 51,
            "reportedRed": 43,
            "inferredRed": 48,
            "playerTrialScore": 3,
            "oppTrialScore": -3,
            "playerTotalScore": -43,
            "oppTotalScore": -179,
            "waitTime": 2743.572519721404,
            "responseTime": 1680726084519,
            "catchQuestion": "How many <b class=\"r\">red<\/b> marbles did you actually draw (before any changes)? ",
            "catchKey": -1,
            "catchResponse": -1,
            "catchTime": 1680726057027,
            "trialTime": 0
        },
        {
            "exptPart": "trial",
            "trialNumber": 77,
            "roleCurrent": "receiver",
            "marblesSampled": 100,
            "probRed": 0.5,
            "lambda": 5,
            "drawnRed": 76,
            "reportedRed": 72,
            "inferredRed": 78,
            "playerTrialScore": -2,
            "oppTrialScore": 0,
            "playerTotalScore": -45,
            "oppTotalScore": -179,
            "waitTime": 6662.269280011324,
            "responseTime": 1680726095381,
            "catchQuestion": "How many <b class=\"r\">red<\/b> marbles did you actually draw (before any changes)? ",
            "catchKey": -1,
            "catchResponse": -1,
            "catchTime": 1680726057027,
            "trialTime": 0
        },
        {
            "exptPart": "trial",
            "trialNumber": 78,
            "roleCurrent": "sender",
            "marblesSampled": 100,
            "probRed": 0.5,
            "lambda": 5,
            "drawnRed": 76,
            "reportedRed": 70,
            "inferredRed": 74,
            "playerTrialScore": 2,
            "oppTrialScore": -2,
            "playerTotalScore": -43,
            "oppTotalScore": -181,
            "waitTime": 2845.6198558859533,
            "responseTime": 1680726114339,
            "catchQuestion": "How many <b class=\"r\">red<\/b> marbles did you actually draw (before any changes)? ",
            "catchKey": -1,
            "catchResponse": -1,
            "catchTime": 1680726057027,
            "trialTime": 0
        },
        {
            "exptPart": "trial",
            "trialNumber": 79,
            "roleCurrent": "receiver",
            "marblesSampled": 100,
            "probRed": 0.5,
            "lambda": 5,
            "drawnRed": 55,
            "reportedRed": 49,
            "inferredRed": 54,
            "playerTrialScore": -1,
            "oppTrialScore": 1,
            "playerTotalScore": -44,
            "oppTotalScore": -180,
            "waitTime": 5274.789855091608,
            "responseTime": 1680726125705,
            "catchQuestion": "How many <b class=\"r\">red<\/b> marbles did you actually draw (before any changes)? ",
            "catchKey": -1,
            "catchResponse": -1,
            "catchTime": 1680726057027,
            "trialTime": 0
        },
        {
            "exptPart": "trial",
            "trialNumber": 80,
            "roleCurrent": "sender",
            "marblesSampled": 100,
            "probRed": 0.5,
            "lambda": 5,
            "drawnRed": 87,
            "reportedRed": 72,
            "inferredRed": 76,
            "playerTrialScore": 11,
            "oppTrialScore": -11,
            "playerTotalScore": -33,
            "oppTotalScore": -191,
            "waitTime": 2979.9689907130423,
            "responseTime": 1680726170685,
            "catchQuestion": "How many <b class=\"r\">red<\/b> marbles did you actually draw (before any changes)? ",
            "catchKey": -1,
            "catchResponse": -1,
            "catchTime": 1680726170685,
            "trialTime": 0
        },
        {
            "exptPart": "trial",
            "trialNumber": 81,
            "roleCurrent": "receiver",
            "marblesSampled": 100,
            "probRed": 0.5,
            "lambda": 5,
            "drawnRed": 67,
            "reportedRed": 59,
            "inferredRed": 64,
            "playerTrialScore": -3,
            "oppTrialScore": 3,
            "playerTotalScore": -36,
            "oppTotalScore": -188,
            "waitTime": 6833.550573027666,
            "responseTime": 1680726186187,
            "catchQuestion": "How many <b class=\"r\">red<\/b> marbles did your opponent report drawing? ",
            "catchKey": 59,
            "catchResponse": 59,
            "catchTime": 1680726186187,
            "trialTime": 0
        },
        {
            "exptPart": "trial",
            "trialNumber": 82,
            "roleCurrent": "sender",
            "marblesSampled": 100,
            "probRed": 0.5,
            "lambda": 5,
            "drawnRed": 49,
            "reportedRed": 44,
            "inferredRed": 53,
            "playerTrialScore": 0,
            "oppTrialScore": -4,
            "playerTotalScore": -36,
            "oppTotalScore": -192,
            "waitTime": 2225.2291353224155,
            "responseTime": 1680726205585,
            "catchQuestion": "How many <b class=\"r\">red<\/b> marbles did your opponent report drawing? ",
            "catchKey": -1,
            "catchResponse": -1,
            "catchTime": 1680726186187,
            "trialTime": 0
        },
        {
            "exptPart": "trial",
            "trialNumber": 83,
            "roleCurrent": "receiver",
            "marblesSampled": 100,
            "probRed": 0.5,
            "lambda": 5,
            "drawnRed": 52,
            "reportedRed": 51,
            "inferredRed": 58,
            "playerTrialScore": -6,
            "oppTrialScore": 0,
            "playerTotalScore": -42,
            "oppTotalScore": -192,
            "waitTime": 5860.711799084924,
            "responseTime": 1680726215385,
            "catchQuestion": "How many <b class=\"r\">red<\/b> marbles did your opponent report drawing? ",
            "catchKey": -1,
            "catchResponse": -1,
            "catchTime": 1680726186187,
            "trialTime": 0
        },
        {
            "exptPart": "trial",
            "trialNumber": 84,
            "roleCurrent": "sender",
            "marblesSampled": 100,
            "probRed": 0.5,
            "lambda": 5,
            "drawnRed": 85,
            "reportedRed": 78,
            "inferredRed": 81,
            "playerTrialScore": 4,
            "oppTrialScore": -4,
            "playerTotalScore": -38,
            "oppTotalScore": -196,
            "waitTime": 2158.5586532536463,
            "responseTime": 1680726234921,
            "catchQuestion": "How many <b class=\"r\">red<\/b> marbles did your opponent report drawing? ",
            "catchKey": -1,
            "catchResponse": -1,
            "catchTime": 1680726186187,
            "trialTime": 0
        },
        {
            "exptPart": "trial",
            "trialNumber": 85,
            "roleCurrent": "receiver",
            "marblesSampled": 100,
            "probRed": 0.5,
            "lambda": 5,
            "drawnRed": 46,
            "reportedRed": 41,
            "inferredRed": 47,
            "playerTrialScore": -1,
            "oppTrialScore": 0,
            "playerTotalScore": -39,
            "oppTotalScore": -196,
            "waitTime": 7309.816653191097,
            "responseTime": 1680726247150,
            "catchQuestion": "How many <b class=\"r\">red<\/b> marbles did your opponent report drawing? ",
            "catchKey": -1,
            "catchResponse": -1,
            "catchTime": 1680726247150,
            "trialTime": 0
        },
        {
            "exptPart": "trial",
            "trialNumber": 86,
            "roleCurrent": "sender",
            "marblesSampled": 100,
            "probRed": 0.5,
            "lambda": 5,
            "drawnRed": 51,
            "reportedRed": 45,
            "inferredRed": 48,
            "playerTrialScore": 3,
            "oppTrialScore": -3,
            "playerTotalScore": -36,
            "oppTotalScore": -199,
            "waitTime": 2214.102630207771,
            "responseTime": 1680726264946,
            "catchQuestion": "How many <b class=\"r\">red<\/b> marbles did your opponent report drawing? ",
            "catchKey": -1,
            "catchResponse": -1,
            "catchTime": 1680726247150,
            "trialTime": 0
        },
        {
            "exptPart": "trial",
            "trialNumber": 87,
            "roleCurrent": "receiver",
            "marblesSampled": 100,
            "probRed": 0.5,
            "lambda": 5,
            "drawnRed": 83,
            "reportedRed": 81,
            "inferredRed": 87,
            "playerTrialScore": -4,
            "oppTrialScore": 0,
            "playerTotalScore": -40,
            "oppTotalScore": -199,
            "waitTime": 5597.150466153493,
            "responseTime": 1680726278590,
            "catchQuestion": "How many <b class=\"r\">red<\/b> marbles did your opponent report drawing? ",
            "catchKey": 81,
            "catchResponse": 81,
            "catchTime": 1680726278590,
            "trialTime": 0
        },
        {
            "exptPart": "trial",
            "trialNumber": 88,
            "roleCurrent": "sender",
            "marblesSampled": 100,
            "probRed": 0.5,
            "lambda": 5,
            "drawnRed": 43,
            "reportedRed": 36,
            "inferredRed": 42,
            "playerTrialScore": 1,
            "oppTrialScore": -1,
            "playerTotalScore": -39,
            "oppTotalScore": -200,
            "waitTime": 2214.501335047228,
            "responseTime": 1680726307513,
            "catchQuestion": "How many <b class=\"r\">red<\/b> marbles did your opponent report drawing? ",
            "catchKey": -1,
            "catchResponse": -1,
            "catchTime": 1680726278590,
            "trialTime": 0
        },
        {
            "exptPart": "trial",
            "trialNumber": 89,
            "roleCurrent": "receiver",
            "marblesSampled": 100,
            "probRed": 0.5,
            "lambda": 5,
            "drawnRed": 61,
            "reportedRed": 56,
            "inferredRed": 63,
            "playerTrialScore": -2,
            "oppTrialScore": 0,
            "playerTotalScore": -41,
            "oppTotalScore": -200,
            "waitTime": 5394.624972311562,
            "responseTime": 1680726317678,
            "catchQuestion": "How many <b class=\"r\">red<\/b> marbles did your opponent report drawing? ",
            "catchKey": -1,
            "catchResponse": -1,
            "catchTime": 1680726278590,
            "trialTime": 0
        },
        {
            "exptPart": "trial",
            "trialNumber": 90,
            "roleCurrent": "sender",
            "marblesSampled": 100,
            "probRed": 0.5,
            "lambda": 5,
            "drawnRed": 79,
            "reportedRed": 68,
            "inferredRed": 70,
            "playerTrialScore": 9,
            "oppTrialScore": -9,
            "playerTotalScore": -32,
            "oppTotalScore": -209,
            "waitTime": 2644.370401569109,
            "responseTime": 1680726345802,
            "catchQuestion": "How many <b class=\"r\">red<\/b> marbles did your opponent report drawing? ",
            "catchKey": -1,
            "catchResponse": -1,
            "catchTime": 1680726345802,
            "trialTime": 0
        },
        {
            "exptPart": "trial",
            "trialNumber": 91,
            "roleCurrent": "receiver",
            "marblesSampled": 100,
            "probRed": 0.5,
            "lambda": 5,
            "drawnRed": 61,
            "reportedRed": 56,
            "inferredRed": 60,
            "playerTrialScore": -1,
            "oppTrialScore": 1,
            "playerTotalScore": -33,
            "oppTotalScore": -208,
            "waitTime": 6019.779013139123,
            "responseTime": 1680726359887,
            "catchQuestion": "How many <b class=\"r\">red<\/b> marbles did your opponent report drawing? ",
            "catchKey": 56,
            "catchResponse": 56,
            "catchTime": 1680726359887,
            "trialTime": 0
        },
        {
            "exptPart": "trial",
            "trialNumber": 92,
            "roleCurrent": "sender",
            "marblesSampled": 100,
            "probRed": 0.5,
            "lambda": 5,
            "drawnRed": 30,
            "reportedRed": 19,
            "inferredRed": 25,
            "playerTrialScore": 5,
            "oppTrialScore": -5,
            "playerTotalScore": -28,
            "oppTotalScore": -213,
            "waitTime": 2092.7446398560246,
            "responseTime": 1680726401777,
            "catchQuestion": "How many <b class=\"r\">red<\/b> marbles did your opponent report drawing? ",
            "catchKey": -1,
            "catchResponse": -1,
            "catchTime": 1680726359887,
            "trialTime": 0
        },
        {
            "exptPart": "trial",
            "trialNumber": 93,
            "roleCurrent": "receiver",
            "marblesSampled": 100,
            "probRed": 0.5,
            "lambda": 5,
            "drawnRed": 28,
            "reportedRed": 26,
            "inferredRed": 33,
            "playerTrialScore": -5,
            "oppTrialScore": 0,
            "playerTotalScore": -33,
            "oppTotalScore": -213,
            "waitTime": 5929.727177338722,
            "responseTime": 1680726414182,
            "catchQuestion": "How many <b class=\"r\">red<\/b> marbles did your opponent report drawing? ",
            "catchKey": -1,
            "catchResponse": -1,
            "catchTime": 1680726359887,
            "trialTime": 0
        },
        {
            "exptPart": "trial",
            "trialNumber": 94,
            "roleCurrent": "sender",
            "marblesSampled": 100,
            "probRed": 0.5,
            "lambda": 5,
            "drawnRed": 82,
            "reportedRed": 76,
            "inferredRed": 82,
            "playerTrialScore": 0,
            "oppTrialScore": 0,
            "playerTotalScore": -33,
            "oppTotalScore": -213,
            "waitTime": 2186.4917965479826,
            "responseTime": 1680726429814,
            "catchQuestion": "How many <b class=\"r\">red<\/b> marbles did your opponent report drawing? ",
            "catchKey": -1,
            "catchResponse": -1,
            "catchTime": 1680726359887,
            "trialTime": 0
        },
        {
            "exptPart": "trial",
            "trialNumber": 95,
            "roleCurrent": "receiver",
            "marblesSampled": 100,
            "probRed": 0.5,
            "lambda": 5,
            "drawnRed": 45,
            "reportedRed": 35,
            "inferredRed": 40,
            "playerTrialScore": -5,
            "oppTrialScore": 5,
            "playerTotalScore": -38,
            "oppTotalScore": -208,
            "waitTime": 5849.753942965199,
            "responseTime": 1680726439391,
            "catchQuestion": "How many <b class=\"r\">red<\/b> marbles did your opponent report drawing? ",
            "catchKey": -1,
            "catchResponse": -1,
            "catchTime": 1680726439391,
            "trialTime": 0
        },
        {
            "exptPart": "trial",
            "trialNumber": 96,
            "roleCurrent": "sender",
            "marblesSampled": 100,
            "probRed": 0.5,
            "lambda": 5,
            "drawnRed": 65,
            "reportedRed": 59,
            "inferredRed": 65,
            "playerTrialScore": 0,
            "oppTrialScore": 0,
            "playerTotalScore": -38,
            "oppTotalScore": -208,
            "waitTime": 2623.7492396981947,
            "responseTime": 1680726459125,
            "catchQuestion": "How many <b class=\"r\">red<\/b> marbles did your opponent report drawing? ",
            "catchKey": -1,
            "catchResponse": -1,
            "catchTime": 1680726439391,
            "trialTime": 0
        },
        {
            "exptPart": "trial",
            "trialNumber": 97,
            "roleCurrent": "receiver",
            "marblesSampled": 100,
            "probRed": 0.5,
            "lambda": 5,
            "drawnRed": 55,
            "reportedRed": 47,
            "inferredRed": 56,
            "playerTrialScore": -1,
            "oppTrialScore": 0,
            "playerTotalScore": -39,
            "oppTotalScore": -208,
            "waitTime": 5400.525300857547,
            "responseTime": 1680726467827,
            "catchQuestion": "How many <b class=\"r\">red<\/b> marbles did your opponent report drawing? ",
            "catchKey": 47,
            "catchResponse": 47,
            "catchTime": 1680726467827,
            "trialTime": 0
        },
        {
            "exptPart": "trial",
            "trialNumber": 98,
            "roleCurrent": "sender",
            "marblesSampled": 100,
            "probRed": 0.5,
            "lambda": 5,
            "drawnRed": 23,
            "reportedRed": 14,
            "inferredRed": 16,
            "playerTrialScore": 7,
            "oppTrialScore": -7,
            "playerTotalScore": -32,
            "oppTotalScore": -215,
            "waitTime": 2351.18497373194,
            "responseTime": 1680726494873,
            "catchQuestion": "How many <b class=\"r\">red<\/b> marbles did you actually draw (before any changes)? ",
            "catchKey": 23,
            "catchResponse": 23,
            "catchTime": 1680726494874,
            "trialTime": 0
        },
        {
            "exptPart": "trial",
            "trialNumber": 99,
            "roleCurrent": "receiver",
            "marblesSampled": 100,
            "probRed": 0.5,
            "lambda": 5,
            "drawnRed": 16,
            "reportedRed": 10,
            "inferredRed": 23,
            "playerTrialScore": -7,
            "oppTrialScore": 0,
            "playerTotalScore": -39,
            "oppTotalScore": -215,
            "waitTime": 5602.291945475867,
            "responseTime": 1680726509039,
            "catchQuestion": "How many <b class=\"r\">red<\/b> marbles did you actually draw (before any changes)? ",
            "catchKey": -1,
            "catchResponse": -1,
            "catchTime": 1680726494874,
            "trialTime": 0
        },
        {
            "exptPart": "trial",
            "trialNumber": 100,
            "roleCurrent": "sender",
            "marblesSampled": 100,
            "probRed": 0.5,
            "lambda": 5,
            "drawnRed": 35,
            "reportedRed": 32,
            "inferredRed": 37,
            "playerTrialScore": 0,
            "oppTrialScore": -2,
            "playerTotalScore": -39,
            "oppTotalScore": -217,
            "waitTime": 2875.752662169408,
            "responseTime": 1680726520156,
            "catchQuestion": "How many <b class=\"r\">red<\/b> marbles did you actually draw (before any changes)? ",
            "catchKey": -1,
            "catchResponse": -1,
            "catchTime": 1680726520156,
            "trialTime": 0
        }
    ]
}