{
    "client": {
        "type": "sona",
        "experiment_id": 2228,
        "credit_token": "b315147ae43241ea9c65086cb510cfb7",
        "survey_code": "47489",
        "sid": "sona-47489",
        "window": {
            "width": 1600,
            "height": 749
        },
        "screen": {
            "width": 1600,
            "height": 900
        },
        "userAgent": "Mozilla\/5.0 (Windows NT 10.0; Win64; x64) AppleWebKit\/537.36 (KHTML, like Gecko) Chrome\/111.0.0.0 Safari\/537.36",
        "score": 0,
        "bonus": 0
    },
    "expt": {
        "saveURL": "submit.simple.php",
        "trials": 100,
        "practiceTrials": 2,
        "marblesSampled": 100,
        "probRed": 0.5,
        "lambdaAI": 5,
        "roleFirst": "receiver",
        "roles": [
            "sender",
            "receiver"
        ],
        "cost": "unif",
        "goal": "under",
        "goalInstructTxt": "above",
        "catchTrials": [
            49,
            16,
            7,
            41,
            57,
            62,
            15,
            3,
            26,
            96
        ],
        "scoreTotal": {
            "player": 855,
            "opp": -1604
        },
        "sona": {
            "experiment_id": 2228,
            "credit_token": "b315147ae43241ea9c65086cb510cfb7"
        },
        "pilot": false,
        "debug": false
    },
    "trials": [
        {
            "exptPart": "practice",
            "trialNumber": 1,
            "roleCurrent": "sender",
            "marblesSampled": 100,
            "probRed": 0.5,
            "lambda": 5,
            "drawnRed": 92,
            "reportedRed": 92,
            "inferredRed": 98,
            "playerTrialScore": 0,
            "oppTrialScore": -6,
            "playerTotalScore": 0,
            "oppTotalScore": -6,
            "waitTime": 2303.372018388895,
            "responseTime": 1678834887087,
            "catchQuestion": "How many <b class=\"r\">red<\/b> marbles did you actually draw (before any changes)? ",
            "catchKey": 92,
            "catchResponse": 92,
            "catchTime": 1678834887088,
            "trialTime": 0
        },
        {
            "exptPart": "practice",
            "trialNumber": 2,
            "roleCurrent": "receiver",
            "marblesSampled": 100,
            "probRed": 0.5,
            "lambda": 5,
            "drawnRed": 50,
            "reportedRed": 49,
            "inferredRed": 78,
            "playerTrialScore": -28,
            "oppTrialScore": 0,
            "playerTotalScore": -28,
            "oppTotalScore": -6,
            "waitTime": 6568.631682935609,
            "responseTime": 1678834931464,
            "catchQuestion": "How many <b class=\"r\">red<\/b> marbles did your opponent report drawing? ",
            "catchKey": 49,
            "catchResponse": 34,
            "catchTime": 1678834931464,
            "trialTime": 0
        },
        {
            "exptPart": "trial",
            "trialNumber": 1,
            "roleCurrent": "receiver",
            "marblesSampled": 100,
            "probRed": 0.5,
            "lambda": 5,
            "drawnRed": 19,
            "reportedRed": 13,
            "inferredRed": 20,
            "playerTrialScore": -1,
            "oppTrialScore": 0,
            "playerTotalScore": -1,
            "oppTotalScore": 0,
            "waitTime": 5722.401946240852,
            "responseTime": 1678834967442,
            "catchQuestion": "How many <b class=\"r\">red<\/b> marbles did your opponent report drawing? ",
            "catchKey": -1,
            "catchResponse": -1,
            "catchTime": 1678834931464,
            "trialTime": 0
        },
        {
            "exptPart": "trial",
            "trialNumber": 2,
            "roleCurrent": "sender",
            "marblesSampled": 100,
            "probRed": 0.5,
            "lambda": 5,
            "drawnRed": 79,
            "reportedRed": 41,
            "inferredRed": 44,
            "playerTrialScore": 35,
            "oppTrialScore": -35,
            "playerTotalScore": 34,
            "oppTotalScore": -35,
            "waitTime": 2760.035609990591,
            "responseTime": 1678835004089,
            "catchQuestion": "How many <b class=\"r\">red<\/b> marbles did your opponent report drawing? ",
            "catchKey": -1,
            "catchResponse": -1,
            "catchTime": 1678834931464,
            "trialTime": 0
        },
        {
            "exptPart": "trial",
            "trialNumber": 3,
            "roleCurrent": "receiver",
            "marblesSampled": 100,
            "probRed": 0.5,
            "lambda": 5,
            "drawnRed": 82,
            "reportedRed": 81,
            "inferredRed": 60,
            "playerTrialScore": -22,
            "oppTrialScore": 22,
            "playerTotalScore": 12,
            "oppTotalScore": -13,
            "waitTime": 6541.503902393321,
            "responseTime": 1678835023137,
            "catchQuestion": "How many <b class=\"r\">red<\/b> marbles did your opponent report drawing? ",
            "catchKey": -1,
            "catchResponse": -1,
            "catchTime": 1678834931464,
            "trialTime": 0
        },
        {
            "exptPart": "trial",
            "trialNumber": 4,
            "roleCurrent": "sender",
            "marblesSampled": 100,
            "probRed": 0.5,
            "lambda": 5,
            "drawnRed": 33,
            "reportedRed": 62,
            "inferredRed": 69,
            "playerTrialScore": 0,
            "oppTrialScore": -36,
            "playerTotalScore": 12,
            "oppTotalScore": -49,
            "waitTime": 2632.4094390923237,
            "responseTime": 1678835056273,
            "catchQuestion": "How many <b class=\"r\">red<\/b> marbles did you actually draw (before any changes)? ",
            "catchKey": 33,
            "catchResponse": 33,
            "catchTime": 1678835056273,
            "trialTime": 0
        },
        {
            "exptPart": "trial",
            "trialNumber": 5,
            "roleCurrent": "receiver",
            "marblesSampled": 100,
            "probRed": 0.5,
            "lambda": 5,
            "drawnRed": 51,
            "reportedRed": 44,
            "inferredRed": 60,
            "playerTrialScore": -9,
            "oppTrialScore": 0,
            "playerTotalScore": 3,
            "oppTotalScore": -49,
            "waitTime": 6767.454927367122,
            "responseTime": 1678835077926,
            "catchQuestion": "How many <b class=\"r\">red<\/b> marbles did you actually draw (before any changes)? ",
            "catchKey": -1,
            "catchResponse": -1,
            "catchTime": 1678835077926,
            "trialTime": 0
        },
        {
            "exptPart": "trial",
            "trialNumber": 6,
            "roleCurrent": "sender",
            "marblesSampled": 100,
            "probRed": 0.5,
            "lambda": 5,
            "drawnRed": 29,
            "reportedRed": 50,
            "inferredRed": 54,
            "playerTrialScore": 0,
            "oppTrialScore": -25,
            "playerTotalScore": 3,
            "oppTotalScore": -74,
            "waitTime": 3095.0908897681447,
            "responseTime": 1678835179901,
            "catchQuestion": "How many <b class=\"r\">red<\/b> marbles did you actually draw (before any changes)? ",
            "catchKey": -1,
            "catchResponse": -1,
            "catchTime": 1678835077926,
            "trialTime": 0
        },
        {
            "exptPart": "trial",
            "trialNumber": 7,
            "roleCurrent": "receiver",
            "marblesSampled": 100,
            "probRed": 0.5,
            "lambda": 5,
            "drawnRed": 57,
            "reportedRed": 52,
            "inferredRed": 60,
            "playerTrialScore": -3,
            "oppTrialScore": 0,
            "playerTotalScore": 0,
            "oppTotalScore": -74,
            "waitTime": 5429.122795946423,
            "responseTime": 1678835198114,
            "catchQuestion": "How many <b class=\"r\">red<\/b> marbles did you actually draw (before any changes)? ",
            "catchKey": -1,
            "catchResponse": -1,
            "catchTime": 1678835077926,
            "trialTime": 0
        },
        {
            "exptPart": "trial",
            "trialNumber": 8,
            "roleCurrent": "sender",
            "marblesSampled": 100,
            "probRed": 0.5,
            "lambda": 5,
            "drawnRed": 41,
            "reportedRed": 17,
            "inferredRed": 22,
            "playerTrialScore": 19,
            "oppTrialScore": -19,
            "playerTotalScore": 19,
            "oppTotalScore": -93,
            "waitTime": 3152.9031391575018,
            "responseTime": 1678835252373,
            "catchQuestion": "How many <b class=\"r\">red<\/b> marbles did you actually draw (before any changes)? ",
            "catchKey": 41,
            "catchResponse": 41,
            "catchTime": 1678835252373,
            "trialTime": 0
        },
        {
            "exptPart": "trial",
            "trialNumber": 9,
            "roleCurrent": "receiver",
            "marblesSampled": 100,
            "probRed": 0.5,
            "lambda": 5,
            "drawnRed": 68,
            "reportedRed": 66,
            "inferredRed": 55,
            "playerTrialScore": -13,
            "oppTrialScore": 13,
            "playerTotalScore": 6,
            "oppTotalScore": -80,
            "waitTime": 5385.833455134049,
            "responseTime": 1678835272912,
            "catchQuestion": "How many <b class=\"r\">red<\/b> marbles did you actually draw (before any changes)? ",
            "catchKey": -1,
            "catchResponse": -1,
            "catchTime": 1678835252373,
            "trialTime": 0
        },
        {
            "exptPart": "trial",
            "trialNumber": 10,
            "roleCurrent": "sender",
            "marblesSampled": 100,
            "probRed": 0.5,
            "lambda": 5,
            "drawnRed": 10,
            "reportedRed": 10,
            "inferredRed": 13,
            "playerTrialScore": 0,
            "oppTrialScore": -3,
            "playerTotalScore": 6,
            "oppTotalScore": -83,
            "waitTime": 2377.137741102064,
            "responseTime": 1678835300539,
            "catchQuestion": "How many <b class=\"r\">red<\/b> marbles did you actually draw (before any changes)? ",
            "catchKey": -1,
            "catchResponse": -1,
            "catchTime": 1678835300539,
            "trialTime": 0
        },
        {
            "exptPart": "trial",
            "trialNumber": 11,
            "roleCurrent": "receiver",
            "marblesSampled": 100,
            "probRed": 0.5,
            "lambda": 5,
            "drawnRed": 64,
            "reportedRed": 63,
            "inferredRed": 50,
            "playerTrialScore": -14,
            "oppTrialScore": 14,
            "playerTotalScore": -8,
            "oppTotalScore": -69,
            "waitTime": 6695.9822947545235,
            "responseTime": 1678835335447,
            "catchQuestion": "How many <b class=\"r\">red<\/b> marbles did you actually draw (before any changes)? ",
            "catchKey": -1,
            "catchResponse": -1,
            "catchTime": 1678835300539,
            "trialTime": 0
        },
        {
            "exptPart": "trial",
            "trialNumber": 12,
            "roleCurrent": "sender",
            "marblesSampled": 100,
            "probRed": 0.5,
            "lambda": 5,
            "drawnRed": 55,
            "reportedRed": 28,
            "inferredRed": 29,
            "playerTrialScore": 26,
            "oppTrialScore": -26,
            "playerTotalScore": 18,
            "oppTotalScore": -95,
            "waitTime": 2481.353929569011,
            "responseTime": 1678835393077,
            "catchQuestion": "How many <b class=\"r\">red<\/b> marbles did you actually draw (before any changes)? ",
            "catchKey": -1,
            "catchResponse": -1,
            "catchTime": 1678835300539,
            "trialTime": 0
        },
        {
            "exptPart": "trial",
            "trialNumber": 13,
            "roleCurrent": "receiver",
            "marblesSampled": 100,
            "probRed": 0.5,
            "lambda": 5,
            "drawnRed": 43,
            "reportedRed": 38,
            "inferredRed": 60,
            "playerTrialScore": -17,
            "oppTrialScore": 0,
            "playerTotalScore": 1,
            "oppTotalScore": -95,
            "waitTime": 6779.725900360512,
            "responseTime": 1678835411356,
            "catchQuestion": "How many <b class=\"r\">red<\/b> marbles did you actually draw (before any changes)? ",
            "catchKey": -1,
            "catchResponse": -1,
            "catchTime": 1678835300539,
            "trialTime": 0
        },
        {
            "exptPart": "trial",
            "trialNumber": 14,
            "roleCurrent": "sender",
            "marblesSampled": 100,
            "probRed": 0.5,
            "lambda": 5,
            "drawnRed": 50,
            "reportedRed": 10,
            "inferredRed": 14,
            "playerTrialScore": 36,
            "oppTrialScore": -36,
            "playerTotalScore": 37,
            "oppTotalScore": -131,
            "waitTime": 2475.904349446263,
            "responseTime": 1678835447575,
            "catchQuestion": "How many <b class=\"r\">red<\/b> marbles did you actually draw (before any changes)? ",
            "catchKey": -1,
            "catchResponse": -1,
            "catchTime": 1678835300539,
            "trialTime": 0
        },
        {
            "exptPart": "trial",
            "trialNumber": 15,
            "roleCurrent": "receiver",
            "marblesSampled": 100,
            "probRed": 0.5,
            "lambda": 5,
            "drawnRed": 25,
            "reportedRed": 23,
            "inferredRed": 55,
            "playerTrialScore": -30,
            "oppTrialScore": 0,
            "playerTotalScore": 7,
            "oppTotalScore": -131,
            "waitTime": 7393.385682769385,
            "responseTime": 1678835486117,
            "catchQuestion": "How many <b class=\"r\">red<\/b> marbles did you actually draw (before any changes)? ",
            "catchKey": -1,
            "catchResponse": -1,
            "catchTime": 1678835486118,
            "trialTime": 0
        },
        {
            "exptPart": "trial",
            "trialNumber": 16,
            "roleCurrent": "sender",
            "marblesSampled": 100,
            "probRed": 0.5,
            "lambda": 5,
            "drawnRed": 21,
            "reportedRed": 9,
            "inferredRed": 13,
            "playerTrialScore": 8,
            "oppTrialScore": -8,
            "playerTotalScore": 15,
            "oppTotalScore": -139,
            "waitTime": 2301.855657625655,
            "responseTime": 1678835511575,
            "catchQuestion": "How many <b class=\"r\">red<\/b> marbles did you actually draw (before any changes)? ",
            "catchKey": 21,
            "catchResponse": 21,
            "catchTime": 1678835511575,
            "trialTime": 0
        },
        {
            "exptPart": "trial",
            "trialNumber": 17,
            "roleCurrent": "receiver",
            "marblesSampled": 100,
            "probRed": 0.5,
            "lambda": 5,
            "drawnRed": 72,
            "reportedRed": 66,
            "inferredRed": 77,
            "playerTrialScore": -5,
            "oppTrialScore": 0,
            "playerTotalScore": 10,
            "oppTotalScore": -139,
            "waitTime": 6577.708305516448,
            "responseTime": 1678835539001,
            "catchQuestion": "How many <b class=\"r\">red<\/b> marbles did your opponent report drawing? ",
            "catchKey": 66,
            "catchResponse": 65,
            "catchTime": 1678835539001,
            "trialTime": 0
        },
        {
            "exptPart": "trial",
            "trialNumber": 18,
            "roleCurrent": "sender",
            "marblesSampled": 100,
            "probRed": 0.5,
            "lambda": 5,
            "drawnRed": 62,
            "reportedRed": 22,
            "inferredRed": 28,
            "playerTrialScore": 34,
            "oppTrialScore": -34,
            "playerTotalScore": 44,
            "oppTotalScore": -173,
            "waitTime": 2119.6613076040067,
            "responseTime": 1678835582185,
            "catchQuestion": "How many <b class=\"r\">red<\/b> marbles did your opponent report drawing? ",
            "catchKey": -1,
            "catchResponse": -1,
            "catchTime": 1678835539001,
            "trialTime": 0
        },
        {
            "exptPart": "trial",
            "trialNumber": 19,
            "roleCurrent": "receiver",
            "marblesSampled": 100,
            "probRed": 0.5,
            "lambda": 5,
            "drawnRed": 91,
            "reportedRed": 85,
            "inferredRed": 90,
            "playerTrialScore": -1,
            "oppTrialScore": 1,
            "playerTotalScore": 43,
            "oppTotalScore": -172,
            "waitTime": 6819.204788903032,
            "responseTime": 1678835620691,
            "catchQuestion": "How many <b class=\"r\">red<\/b> marbles did your opponent report drawing? ",
            "catchKey": -1,
            "catchResponse": -1,
            "catchTime": 1678835539001,
            "trialTime": 0
        },
        {
            "exptPart": "trial",
            "trialNumber": 20,
            "roleCurrent": "sender",
            "marblesSampled": 100,
            "probRed": 0.5,
            "lambda": 5,
            "drawnRed": 57,
            "reportedRed": 24,
            "inferredRed": 32,
            "playerTrialScore": 25,
            "oppTrialScore": -25,
            "playerTotalScore": 68,
            "oppTotalScore": -197,
            "waitTime": 2466.2067558156173,
            "responseTime": 1678835647317,
            "catchQuestion": "How many <b class=\"r\">red<\/b> marbles did your opponent report drawing? ",
            "catchKey": -1,
            "catchResponse": -1,
            "catchTime": 1678835647317,
            "trialTime": 0
        },
        {
            "exptPart": "trial",
            "trialNumber": 21,
            "roleCurrent": "receiver",
            "marblesSampled": 100,
            "probRed": 0.5,
            "lambda": 5,
            "drawnRed": 20,
            "reportedRed": 11,
            "inferredRed": 80,
            "playerTrialScore": -60,
            "oppTrialScore": 0,
            "playerTotalScore": 8,
            "oppTotalScore": -197,
            "waitTime": 6162.487369189159,
            "responseTime": 1678835670245,
            "catchQuestion": "How many <b class=\"r\">red<\/b> marbles did your opponent report drawing? ",
            "catchKey": -1,
            "catchResponse": -1,
            "catchTime": 1678835647317,
            "trialTime": 0
        },
        {
            "exptPart": "trial",
            "trialNumber": 22,
            "roleCurrent": "sender",
            "marblesSampled": 100,
            "probRed": 0.5,
            "lambda": 5,
            "drawnRed": 93,
            "reportedRed": 12,
            "inferredRed": 14,
            "playerTrialScore": 79,
            "oppTrialScore": -79,
            "playerTotalScore": 87,
            "oppTotalScore": -276,
            "waitTime": 2118.708540398339,
            "responseTime": 1678835719025,
            "catchQuestion": "How many <b class=\"r\">red<\/b> marbles did your opponent report drawing? ",
            "catchKey": -1,
            "catchResponse": -1,
            "catchTime": 1678835647317,
            "trialTime": 0
        },
        {
            "exptPart": "trial",
            "trialNumber": 23,
            "roleCurrent": "receiver",
            "marblesSampled": 100,
            "probRed": 0.5,
            "lambda": 5,
            "drawnRed": 46,
            "reportedRed": 43,
            "inferredRed": 90,
            "playerTrialScore": -44,
            "oppTrialScore": 0,
            "playerTotalScore": 43,
            "oppTotalScore": -276,
            "waitTime": 5850.331465628374,
            "responseTime": 1678835737569,
            "catchQuestion": "How many <b class=\"r\">red<\/b> marbles did your opponent report drawing? ",
            "catchKey": -1,
            "catchResponse": -1,
            "catchTime": 1678835647317,
            "trialTime": 0
        },
        {
            "exptPart": "trial",
            "trialNumber": 24,
            "roleCurrent": "sender",
            "marblesSampled": 100,
            "probRed": 0.5,
            "lambda": 5,
            "drawnRed": 42,
            "reportedRed": 11,
            "inferredRed": 17,
            "playerTrialScore": 25,
            "oppTrialScore": -25,
            "playerTotalScore": 68,
            "oppTotalScore": -301,
            "waitTime": 2674.0130000833733,
            "responseTime": 1678835762604,
            "catchQuestion": "How many <b class=\"r\">red<\/b> marbles did your opponent report drawing? ",
            "catchKey": -1,
            "catchResponse": -1,
            "catchTime": 1678835647317,
            "trialTime": 0
        },
        {
            "exptPart": "trial",
            "trialNumber": 25,
            "roleCurrent": "receiver",
            "marblesSampled": 100,
            "probRed": 0.5,
            "lambda": 5,
            "drawnRed": 48,
            "reportedRed": 40,
            "inferredRed": 90,
            "playerTrialScore": -42,
            "oppTrialScore": 0,
            "playerTotalScore": 26,
            "oppTotalScore": -301,
            "waitTime": 7316.531603093729,
            "responseTime": 1678835786701,
            "catchQuestion": "How many <b class=\"r\">red<\/b> marbles did your opponent report drawing? ",
            "catchKey": -1,
            "catchResponse": -1,
            "catchTime": 1678835786702,
            "trialTime": 0
        },
        {
            "exptPart": "trial",
            "trialNumber": 26,
            "roleCurrent": "sender",
            "marblesSampled": 100,
            "probRed": 0.5,
            "lambda": 5,
            "drawnRed": 64,
            "reportedRed": 16,
            "inferredRed": 20,
            "playerTrialScore": 44,
            "oppTrialScore": -44,
            "playerTotalScore": 70,
            "oppTotalScore": -345,
            "waitTime": 2831.17936155766,
            "responseTime": 1678835842861,
            "catchQuestion": "How many <b class=\"r\">red<\/b> marbles did your opponent report drawing? ",
            "catchKey": -1,
            "catchResponse": -1,
            "catchTime": 1678835786702,
            "trialTime": 0
        },
        {
            "exptPart": "trial",
            "trialNumber": 27,
            "roleCurrent": "receiver",
            "marblesSampled": 100,
            "probRed": 0.5,
            "lambda": 5,
            "drawnRed": 47,
            "reportedRed": 41,
            "inferredRed": 70,
            "playerTrialScore": -23,
            "oppTrialScore": 0,
            "playerTotalScore": 47,
            "oppTotalScore": -345,
            "waitTime": 6272.291095622615,
            "responseTime": 1678835862141,
            "catchQuestion": "How many <b class=\"r\">red<\/b> marbles did your opponent report drawing? ",
            "catchKey": 41,
            "catchResponse": 34,
            "catchTime": 1678835862141,
            "trialTime": 0
        },
        {
            "exptPart": "trial",
            "trialNumber": 28,
            "roleCurrent": "sender",
            "marblesSampled": 100,
            "probRed": 0.5,
            "lambda": 5,
            "drawnRed": 60,
            "reportedRed": 15,
            "inferredRed": 25,
            "playerTrialScore": 35,
            "oppTrialScore": -35,
            "playerTotalScore": 82,
            "oppTotalScore": -380,
            "waitTime": 2220.171440136941,
            "responseTime": 1678835902652,
            "catchQuestion": "How many <b class=\"r\">red<\/b> marbles did your opponent report drawing? ",
            "catchKey": -1,
            "catchResponse": -1,
            "catchTime": 1678835862141,
            "trialTime": 0
        },
        {
            "exptPart": "trial",
            "trialNumber": 29,
            "roleCurrent": "receiver",
            "marblesSampled": 100,
            "probRed": 0.5,
            "lambda": 5,
            "drawnRed": 17,
            "reportedRed": 15,
            "inferredRed": 40,
            "playerTrialScore": -23,
            "oppTrialScore": 0,
            "playerTotalScore": 59,
            "oppTotalScore": -380,
            "waitTime": 5749.6872046239105,
            "responseTime": 1678835921758,
            "catchQuestion": "How many <b class=\"r\">red<\/b> marbles did your opponent report drawing? ",
            "catchKey": -1,
            "catchResponse": -1,
            "catchTime": 1678835862141,
            "trialTime": 0
        },
        {
            "exptPart": "trial",
            "trialNumber": 30,
            "roleCurrent": "sender",
            "marblesSampled": 100,
            "probRed": 0.5,
            "lambda": 5,
            "drawnRed": 64,
            "reportedRed": 19,
            "inferredRed": 25,
            "playerTrialScore": 39,
            "oppTrialScore": -39,
            "playerTotalScore": 98,
            "oppTotalScore": -419,
            "waitTime": 2376.8944677032073,
            "responseTime": 1678835960082,
            "catchQuestion": "How many <b class=\"r\">red<\/b> marbles did your opponent report drawing? ",
            "catchKey": -1,
            "catchResponse": -1,
            "catchTime": 1678835960082,
            "trialTime": 0
        },
        {
            "exptPart": "trial",
            "trialNumber": 31,
            "roleCurrent": "receiver",
            "marblesSampled": 100,
            "probRed": 0.5,
            "lambda": 5,
            "drawnRed": 82,
            "reportedRed": 75,
            "inferredRed": 85,
            "playerTrialScore": -3,
            "oppTrialScore": 0,
            "playerTotalScore": 95,
            "oppTotalScore": -419,
            "waitTime": 5460.445162500449,
            "responseTime": 1678835977573,
            "catchQuestion": "How many <b class=\"r\">red<\/b> marbles did your opponent report drawing? ",
            "catchKey": -1,
            "catchResponse": -1,
            "catchTime": 1678835960082,
            "trialTime": 0
        },
        {
            "exptPart": "trial",
            "trialNumber": 32,
            "roleCurrent": "sender",
            "marblesSampled": 100,
            "probRed": 0.5,
            "lambda": 5,
            "drawnRed": 64,
            "reportedRed": 64,
            "inferredRed": 72,
            "playerTrialScore": 0,
            "oppTrialScore": -8,
            "playerTotalScore": 95,
            "oppTotalScore": -427,
            "waitTime": 2308.5248937033725,
            "responseTime": 1678835989372,
            "catchQuestion": "How many <b class=\"r\">red<\/b> marbles did your opponent report drawing? ",
            "catchKey": -1,
            "catchResponse": -1,
            "catchTime": 1678835960082,
            "trialTime": 0
        },
        {
            "exptPart": "trial",
            "trialNumber": 33,
            "roleCurrent": "receiver",
            "marblesSampled": 100,
            "probRed": 0.5,
            "lambda": 5,
            "drawnRed": 52,
            "reportedRed": 50,
            "inferredRed": 70,
            "playerTrialScore": -18,
            "oppTrialScore": 0,
            "playerTotalScore": 77,
            "oppTotalScore": -427,
            "waitTime": 5744.385768650632,
            "responseTime": 1678836017106,
            "catchQuestion": "How many <b class=\"r\">red<\/b> marbles did your opponent report drawing? ",
            "catchKey": -1,
            "catchResponse": -1,
            "catchTime": 1678835960082,
            "trialTime": 0
        },
        {
            "exptPart": "trial",
            "trialNumber": 34,
            "roleCurrent": "sender",
            "marblesSampled": 100,
            "probRed": 0.5,
            "lambda": 5,
            "drawnRed": 10,
            "reportedRed": 2,
            "inferredRed": 6,
            "playerTrialScore": 4,
            "oppTrialScore": -4,
            "playerTotalScore": 81,
            "oppTotalScore": -431,
            "waitTime": 2441.243709543307,
            "responseTime": 1678836039982,
            "catchQuestion": "How many <b class=\"r\">red<\/b> marbles did your opponent report drawing? ",
            "catchKey": -1,
            "catchResponse": -1,
            "catchTime": 1678835960082,
            "trialTime": 0
        },
        {
            "exptPart": "trial",
            "trialNumber": 35,
            "roleCurrent": "receiver",
            "marblesSampled": 100,
            "probRed": 0.5,
            "lambda": 5,
            "drawnRed": 40,
            "reportedRed": 32,
            "inferredRed": 50,
            "playerTrialScore": -10,
            "oppTrialScore": 0,
            "playerTotalScore": 71,
            "oppTotalScore": -431,
            "waitTime": 5580.718073135757,
            "responseTime": 1678836067115,
            "catchQuestion": "How many <b class=\"r\">red<\/b> marbles did your opponent report drawing? ",
            "catchKey": -1,
            "catchResponse": -1,
            "catchTime": 1678836067115,
            "trialTime": 0
        },
        {
            "exptPart": "trial",
            "trialNumber": 36,
            "roleCurrent": "sender",
            "marblesSampled": 100,
            "probRed": 0.5,
            "lambda": 5,
            "drawnRed": 70,
            "reportedRed": 13,
            "inferredRed": 15,
            "playerTrialScore": 55,
            "oppTrialScore": -55,
            "playerTotalScore": 126,
            "oppTotalScore": -486,
            "waitTime": 2206.6542577821474,
            "responseTime": 1678836107591,
            "catchQuestion": "How many <b class=\"r\">red<\/b> marbles did your opponent report drawing? ",
            "catchKey": -1,
            "catchResponse": -1,
            "catchTime": 1678836067115,
            "trialTime": 0
        },
        {
            "exptPart": "trial",
            "trialNumber": 37,
            "roleCurrent": "receiver",
            "marblesSampled": 100,
            "probRed": 0.5,
            "lambda": 5,
            "drawnRed": 45,
            "reportedRed": 35,
            "inferredRed": 60,
            "playerTrialScore": -15,
            "oppTrialScore": 0,
            "playerTotalScore": 111,
            "oppTotalScore": -486,
            "waitTime": 6421.135994933247,
            "responseTime": 1678836138929,
            "catchQuestion": "How many <b class=\"r\">red<\/b> marbles did your opponent report drawing? ",
            "catchKey": -1,
            "catchResponse": -1,
            "catchTime": 1678836067115,
            "trialTime": 0
        },
        {
            "exptPart": "trial",
            "trialNumber": 38,
            "roleCurrent": "sender",
            "marblesSampled": 100,
            "probRed": 0.5,
            "lambda": 5,
            "drawnRed": 74,
            "reportedRed": 95,
            "inferredRed": 97,
            "playerTrialScore": 0,
            "oppTrialScore": -23,
            "playerTotalScore": 111,
            "oppTotalScore": -509,
            "waitTime": 2565.924080555221,
            "responseTime": 1678836164536,
            "catchQuestion": "How many <b class=\"r\">red<\/b> marbles did your opponent report drawing? ",
            "catchKey": -1,
            "catchResponse": -1,
            "catchTime": 1678836067115,
            "trialTime": 0
        },
        {
            "exptPart": "trial",
            "trialNumber": 39,
            "roleCurrent": "receiver",
            "marblesSampled": 100,
            "probRed": 0.5,
            "lambda": 5,
            "drawnRed": 32,
            "reportedRed": 30,
            "inferredRed": 50,
            "playerTrialScore": -18,
            "oppTrialScore": 0,
            "playerTotalScore": 93,
            "oppTotalScore": -509,
            "waitTime": 6938.227411704262,
            "responseTime": 1678836176242,
            "catchQuestion": "How many <b class=\"r\">red<\/b> marbles did your opponent report drawing? ",
            "catchKey": -1,
            "catchResponse": -1,
            "catchTime": 1678836067115,
            "trialTime": 0
        },
        {
            "exptPart": "trial",
            "trialNumber": 40,
            "roleCurrent": "sender",
            "marblesSampled": 100,
            "probRed": 0.5,
            "lambda": 5,
            "drawnRed": 31,
            "reportedRed": 96,
            "inferredRed": 100,
            "playerTrialScore": 0,
            "oppTrialScore": -69,
            "playerTotalScore": 93,
            "oppTotalScore": -578,
            "waitTime": 2391.1761065211635,
            "responseTime": 1678836222901,
            "catchQuestion": "How many <b class=\"r\">red<\/b> marbles did your opponent report drawing? ",
            "catchKey": -1,
            "catchResponse": -1,
            "catchTime": 1678836222901,
            "trialTime": 0
        },
        {
            "exptPart": "trial",
            "trialNumber": 41,
            "roleCurrent": "receiver",
            "marblesSampled": 100,
            "probRed": 0.5,
            "lambda": 5,
            "drawnRed": 45,
            "reportedRed": 41,
            "inferredRed": 60,
            "playerTrialScore": -15,
            "oppTrialScore": 0,
            "playerTotalScore": 78,
            "oppTotalScore": -578,
            "waitTime": 7314.657371957347,
            "responseTime": 1678836243690,
            "catchQuestion": "How many <b class=\"r\">red<\/b> marbles did your opponent report drawing? ",
            "catchKey": -1,
            "catchResponse": -1,
            "catchTime": 1678836222901,
            "trialTime": 0
        },
        {
            "exptPart": "trial",
            "trialNumber": 42,
            "roleCurrent": "sender",
            "marblesSampled": 100,
            "probRed": 0.5,
            "lambda": 5,
            "drawnRed": 68,
            "reportedRed": 11,
            "inferredRed": 15,
            "playerTrialScore": 53,
            "oppTrialScore": -53,
            "playerTotalScore": 131,
            "oppTotalScore": -631,
            "waitTime": 2581.078138990743,
            "responseTime": 1678836284433,
            "catchQuestion": "How many <b class=\"r\">red<\/b> marbles did you actually draw (before any changes)? ",
            "catchKey": 68,
            "catchResponse": 68,
            "catchTime": 1678836284433,
            "trialTime": 0
        },
        {
            "exptPart": "trial",
            "trialNumber": 43,
            "roleCurrent": "receiver",
            "marblesSampled": 100,
            "probRed": 0.5,
            "lambda": 5,
            "drawnRed": 44,
            "reportedRed": 36,
            "inferredRed": 50,
            "playerTrialScore": -6,
            "oppTrialScore": 0,
            "playerTotalScore": 125,
            "oppTotalScore": -631,
            "waitTime": 5201.638243218233,
            "responseTime": 1678836301360,
            "catchQuestion": "How many <b class=\"r\">red<\/b> marbles did you actually draw (before any changes)? ",
            "catchKey": -1,
            "catchResponse": -1,
            "catchTime": 1678836284433,
            "trialTime": 0
        },
        {
            "exptPart": "trial",
            "trialNumber": 44,
            "roleCurrent": "sender",
            "marblesSampled": 100,
            "probRed": 0.5,
            "lambda": 5,
            "drawnRed": 55,
            "reportedRed": 31,
            "inferredRed": 37,
            "playerTrialScore": 18,
            "oppTrialScore": -18,
            "playerTotalScore": 143,
            "oppTotalScore": -649,
            "waitTime": 2558.0503703920735,
            "responseTime": 1678836328951,
            "catchQuestion": "How many <b class=\"r\">red<\/b> marbles did you actually draw (before any changes)? ",
            "catchKey": -1,
            "catchResponse": -1,
            "catchTime": 1678836284433,
            "trialTime": 0
        },
        {
            "exptPart": "trial",
            "trialNumber": 45,
            "roleCurrent": "receiver",
            "marblesSampled": 100,
            "probRed": 0.5,
            "lambda": 5,
            "drawnRed": 71,
            "reportedRed": 68,
            "inferredRed": 70,
            "playerTrialScore": -1,
            "oppTrialScore": 1,
            "playerTotalScore": 142,
            "oppTotalScore": -648,
            "waitTime": 5787.357495992721,
            "responseTime": 1678836351609,
            "catchQuestion": "How many <b class=\"r\">red<\/b> marbles did you actually draw (before any changes)? ",
            "catchKey": -1,
            "catchResponse": -1,
            "catchTime": 1678836351609,
            "trialTime": 0
        },
        {
            "exptPart": "trial",
            "trialNumber": 46,
            "roleCurrent": "sender",
            "marblesSampled": 100,
            "probRed": 0.5,
            "lambda": 5,
            "drawnRed": 56,
            "reportedRed": 10,
            "inferredRed": 17,
            "playerTrialScore": 39,
            "oppTrialScore": -39,
            "playerTotalScore": 181,
            "oppTotalScore": -687,
            "waitTime": 2550.660630808375,
            "responseTime": 1678836386283,
            "catchQuestion": "How many <b class=\"r\">red<\/b> marbles did you actually draw (before any changes)? ",
            "catchKey": -1,
            "catchResponse": -1,
            "catchTime": 1678836351609,
            "trialTime": 0
        },
        {
            "exptPart": "trial",
            "trialNumber": 47,
            "roleCurrent": "receiver",
            "marblesSampled": 100,
            "probRed": 0.5,
            "lambda": 5,
            "drawnRed": 46,
            "reportedRed": 41,
            "inferredRed": 60,
            "playerTrialScore": -14,
            "oppTrialScore": 0,
            "playerTotalScore": 167,
            "oppTotalScore": -687,
            "waitTime": 5211.693494584924,
            "responseTime": 1678836399054,
            "catchQuestion": "How many <b class=\"r\">red<\/b> marbles did you actually draw (before any changes)? ",
            "catchKey": -1,
            "catchResponse": -1,
            "catchTime": 1678836351609,
            "trialTime": 0
        },
        {
            "exptPart": "trial",
            "trialNumber": 48,
            "roleCurrent": "sender",
            "marblesSampled": 100,
            "probRed": 0.5,
            "lambda": 5,
            "drawnRed": 48,
            "reportedRed": 6,
            "inferredRed": 11,
            "playerTrialScore": 37,
            "oppTrialScore": -37,
            "playerTotalScore": 204,
            "oppTotalScore": -724,
            "waitTime": 2412.7796035624096,
            "responseTime": 1678836430566,
            "catchQuestion": "How many <b class=\"r\">red<\/b> marbles did you actually draw (before any changes)? ",
            "catchKey": -1,
            "catchResponse": -1,
            "catchTime": 1678836351609,
            "trialTime": 0
        },
        {
            "exptPart": "trial",
            "trialNumber": 49,
            "roleCurrent": "receiver",
            "marblesSampled": 100,
            "probRed": 0.5,
            "lambda": 5,
            "drawnRed": 45,
            "reportedRed": 40,
            "inferredRed": 50,
            "playerTrialScore": -5,
            "oppTrialScore": 0,
            "playerTotalScore": 199,
            "oppTotalScore": -724,
            "waitTime": 6884.5561453122455,
            "responseTime": 1678836444222,
            "catchQuestion": "How many <b class=\"r\">red<\/b> marbles did you actually draw (before any changes)? ",
            "catchKey": -1,
            "catchResponse": -1,
            "catchTime": 1678836351609,
            "trialTime": 0
        },
        {
            "exptPart": "trial",
            "trialNumber": 50,
            "roleCurrent": "sender",
            "marblesSampled": 100,
            "probRed": 0.5,
            "lambda": 5,
            "drawnRed": 62,
            "reportedRed": 11,
            "inferredRed": 16,
            "playerTrialScore": 46,
            "oppTrialScore": -46,
            "playerTotalScore": 245,
            "oppTotalScore": -770,
            "waitTime": 3161.0633212738953,
            "responseTime": 1678836476292,
            "catchQuestion": "How many <b class=\"r\">red<\/b> marbles did you actually draw (before any changes)? ",
            "catchKey": 62,
            "catchResponse": 62,
            "catchTime": 1678836476292,
            "trialTime": 0
        },
        {
            "exptPart": "trial",
            "trialNumber": 51,
            "roleCurrent": "receiver",
            "marblesSampled": 100,
            "probRed": 0.5,
            "lambda": 5,
            "drawnRed": 70,
            "reportedRed": 63,
            "inferredRed": 70,
            "playerTrialScore": 0,
            "oppTrialScore": 0,
            "playerTotalScore": 245,
            "oppTotalScore": -770,
            "waitTime": 5385.197233771529,
            "responseTime": 1678836494089,
            "catchQuestion": "How many <b class=\"r\">red<\/b> marbles did you actually draw (before any changes)? ",
            "catchKey": -1,
            "catchResponse": -1,
            "catchTime": 1678836476292,
            "trialTime": 0
        },
        {
            "exptPart": "trial",
            "trialNumber": 52,
            "roleCurrent": "sender",
            "marblesSampled": 100,
            "probRed": 0.5,
            "lambda": 5,
            "drawnRed": 25,
            "reportedRed": 5,
            "inferredRed": 8,
            "playerTrialScore": 17,
            "oppTrialScore": -17,
            "playerTotalScore": 262,
            "oppTotalScore": -787,
            "waitTime": 2821.944701219998,
            "responseTime": 1678836513812,
            "catchQuestion": "How many <b class=\"r\">red<\/b> marbles did you actually draw (before any changes)? ",
            "catchKey": -1,
            "catchResponse": -1,
            "catchTime": 1678836476292,
            "trialTime": 0
        },
        {
            "exptPart": "trial",
            "trialNumber": 53,
            "roleCurrent": "receiver",
            "marblesSampled": 100,
            "probRed": 0.5,
            "lambda": 5,
            "drawnRed": 68,
            "reportedRed": 65,
            "inferredRed": 75,
            "playerTrialScore": -7,
            "oppTrialScore": 0,
            "playerTotalScore": 255,
            "oppTotalScore": -787,
            "waitTime": 5957.132512245393,
            "responseTime": 1678836525949,
            "catchQuestion": "How many <b class=\"r\">red<\/b> marbles did you actually draw (before any changes)? ",
            "catchKey": -1,
            "catchResponse": -1,
            "catchTime": 1678836476292,
            "trialTime": 0
        },
        {
            "exptPart": "trial",
            "trialNumber": 54,
            "roleCurrent": "sender",
            "marblesSampled": 100,
            "probRed": 0.5,
            "lambda": 5,
            "drawnRed": 47,
            "reportedRed": 7,
            "inferredRed": 13,
            "playerTrialScore": 34,
            "oppTrialScore": -34,
            "playerTotalScore": 289,
            "oppTotalScore": -821,
            "waitTime": 2147.303991092495,
            "responseTime": 1678836552293,
            "catchQuestion": "How many <b class=\"r\">red<\/b> marbles did you actually draw (before any changes)? ",
            "catchKey": -1,
            "catchResponse": -1,
            "catchTime": 1678836476292,
            "trialTime": 0
        },
        {
            "exptPart": "trial",
            "trialNumber": 55,
            "roleCurrent": "receiver",
            "marblesSampled": 100,
            "probRed": 0.5,
            "lambda": 5,
            "drawnRed": 71,
            "reportedRed": 62,
            "inferredRed": 80,
            "playerTrialScore": -9,
            "oppTrialScore": 0,
            "playerTotalScore": 280,
            "oppTotalScore": -821,
            "waitTime": 5447.888742969109,
            "responseTime": 1678836562080,
            "catchQuestion": "How many <b class=\"r\">red<\/b> marbles did you actually draw (before any changes)? ",
            "catchKey": -1,
            "catchResponse": -1,
            "catchTime": 1678836562080,
            "trialTime": 0
        },
        {
            "exptPart": "trial",
            "trialNumber": 56,
            "roleCurrent": "sender",
            "marblesSampled": 100,
            "probRed": 0.5,
            "lambda": 5,
            "drawnRed": 37,
            "reportedRed": 7,
            "inferredRed": 14,
            "playerTrialScore": 23,
            "oppTrialScore": -23,
            "playerTotalScore": 303,
            "oppTotalScore": -844,
            "waitTime": 2544.7350137083395,
            "responseTime": 1678836588349,
            "catchQuestion": "How many <b class=\"r\">red<\/b> marbles did you actually draw (before any changes)? ",
            "catchKey": -1,
            "catchResponse": -1,
            "catchTime": 1678836562080,
            "trialTime": 0
        },
        {
            "exptPart": "trial",
            "trialNumber": 57,
            "roleCurrent": "receiver",
            "marblesSampled": 100,
            "probRed": 0.5,
            "lambda": 5,
            "drawnRed": 49,
            "reportedRed": 43,
            "inferredRed": 60,
            "playerTrialScore": -11,
            "oppTrialScore": 0,
            "playerTotalScore": 292,
            "oppTotalScore": -844,
            "waitTime": 5139.47698461437,
            "responseTime": 1678836600722,
            "catchQuestion": "How many <b class=\"r\">red<\/b> marbles did you actually draw (before any changes)? ",
            "catchKey": -1,
            "catchResponse": -1,
            "catchTime": 1678836562080,
            "trialTime": 0
        },
        {
            "exptPart": "trial",
            "trialNumber": 58,
            "roleCurrent": "sender",
            "marblesSampled": 100,
            "probRed": 0.5,
            "lambda": 5,
            "drawnRed": 45,
            "reportedRed": 5,
            "inferredRed": 12,
            "playerTrialScore": 33,
            "oppTrialScore": -33,
            "playerTotalScore": 325,
            "oppTotalScore": -877,
            "waitTime": 3086.6365991460025,
            "responseTime": 1678836628051,
            "catchQuestion": "How many <b class=\"r\">red<\/b> marbles did you actually draw (before any changes)? ",
            "catchKey": 45,
            "catchResponse": 45,
            "catchTime": 1678836628051,
            "trialTime": 0
        },
        {
            "exptPart": "trial",
            "trialNumber": 59,
            "roleCurrent": "receiver",
            "marblesSampled": 100,
            "probRed": 0.5,
            "lambda": 5,
            "drawnRed": 84,
            "reportedRed": 76,
            "inferredRed": 80,
            "playerTrialScore": -4,
            "oppTrialScore": 4,
            "playerTotalScore": 321,
            "oppTotalScore": -873,
            "waitTime": 7333.290963422834,
            "responseTime": 1678836657114,
            "catchQuestion": "How many <b class=\"r\">red<\/b> marbles did you actually draw (before any changes)? ",
            "catchKey": -1,
            "catchResponse": -1,
            "catchTime": 1678836628051,
            "trialTime": 0
        },
        {
            "exptPart": "trial",
            "trialNumber": 60,
            "roleCurrent": "sender",
            "marblesSampled": 100,
            "probRed": 0.5,
            "lambda": 5,
            "drawnRed": 45,
            "reportedRed": 8,
            "inferredRed": 11,
            "playerTrialScore": 34,
            "oppTrialScore": -34,
            "playerTotalScore": 355,
            "oppTotalScore": -907,
            "waitTime": 2209.157442238239,
            "responseTime": 1678836681085,
            "catchQuestion": "How many <b class=\"r\">red<\/b> marbles did you actually draw (before any changes)? ",
            "catchKey": -1,
            "catchResponse": -1,
            "catchTime": 1678836681085,
            "trialTime": 0
        },
        {
            "exptPart": "trial",
            "trialNumber": 61,
            "roleCurrent": "receiver",
            "marblesSampled": 100,
            "probRed": 0.5,
            "lambda": 5,
            "drawnRed": 22,
            "reportedRed": 18,
            "inferredRed": 50,
            "playerTrialScore": -28,
            "oppTrialScore": 0,
            "playerTotalScore": 327,
            "oppTotalScore": -907,
            "waitTime": 6063.578788524829,
            "responseTime": 1678836698457,
            "catchQuestion": "How many <b class=\"r\">red<\/b> marbles did you actually draw (before any changes)? ",
            "catchKey": -1,
            "catchResponse": -1,
            "catchTime": 1678836681085,
            "trialTime": 0
        },
        {
            "exptPart": "trial",
            "trialNumber": 62,
            "roleCurrent": "sender",
            "marblesSampled": 100,
            "probRed": 0.5,
            "lambda": 5,
            "drawnRed": 41,
            "reportedRed": 8,
            "inferredRed": 14,
            "playerTrialScore": 27,
            "oppTrialScore": -27,
            "playerTotalScore": 354,
            "oppTotalScore": -934,
            "waitTime": 2509.076667651444,
            "responseTime": 1678836728261,
            "catchQuestion": "How many <b class=\"r\">red<\/b> marbles did you actually draw (before any changes)? ",
            "catchKey": -1,
            "catchResponse": -1,
            "catchTime": 1678836681085,
            "trialTime": 0
        },
        {
            "exptPart": "trial",
            "trialNumber": 63,
            "roleCurrent": "receiver",
            "marblesSampled": 100,
            "probRed": 0.5,
            "lambda": 5,
            "drawnRed": 82,
            "reportedRed": 75,
            "inferredRed": 80,
            "playerTrialScore": -2,
            "oppTrialScore": 2,
            "playerTotalScore": 352,
            "oppTotalScore": -932,
            "waitTime": 6666.951674251171,
            "responseTime": 1678836737427,
            "catchQuestion": "How many <b class=\"r\">red<\/b> marbles did your opponent report drawing? ",
            "catchKey": 75,
            "catchResponse": 75,
            "catchTime": 1678836737427,
            "trialTime": 0
        },
        {
            "exptPart": "trial",
            "trialNumber": 64,
            "roleCurrent": "sender",
            "marblesSampled": 100,
            "probRed": 0.5,
            "lambda": 5,
            "drawnRed": 34,
            "reportedRed": 8,
            "inferredRed": 13,
            "playerTrialScore": 21,
            "oppTrialScore": -21,
            "playerTotalScore": 373,
            "oppTotalScore": -953,
            "waitTime": 2723.359471170378,
            "responseTime": 1678836762160,
            "catchQuestion": "How many <b class=\"r\">red<\/b> marbles did your opponent report drawing? ",
            "catchKey": -1,
            "catchResponse": -1,
            "catchTime": 1678836737427,
            "trialTime": 0
        },
        {
            "exptPart": "trial",
            "trialNumber": 65,
            "roleCurrent": "receiver",
            "marblesSampled": 100,
            "probRed": 0.5,
            "lambda": 5,
            "drawnRed": 33,
            "reportedRed": 28,
            "inferredRed": 50,
            "playerTrialScore": -17,
            "oppTrialScore": 0,
            "playerTotalScore": 356,
            "oppTotalScore": -953,
            "waitTime": 7150.195327118778,
            "responseTime": 1678836773774,
            "catchQuestion": "How many <b class=\"r\">red<\/b> marbles did your opponent report drawing? ",
            "catchKey": -1,
            "catchResponse": -1,
            "catchTime": 1678836773774,
            "trialTime": 0
        },
        {
            "exptPart": "trial",
            "trialNumber": 66,
            "roleCurrent": "sender",
            "marblesSampled": 100,
            "probRed": 0.5,
            "lambda": 5,
            "drawnRed": 66,
            "reportedRed": 18,
            "inferredRed": 19,
            "playerTrialScore": 47,
            "oppTrialScore": -47,
            "playerTotalScore": 403,
            "oppTotalScore": -1000,
            "waitTime": 2499.9913140371727,
            "responseTime": 1678836802617,
            "catchQuestion": "How many <b class=\"r\">red<\/b> marbles did your opponent report drawing? ",
            "catchKey": -1,
            "catchResponse": -1,
            "catchTime": 1678836773774,
            "trialTime": 0
        },
        {
            "exptPart": "trial",
            "trialNumber": 67,
            "roleCurrent": "receiver",
            "marblesSampled": 100,
            "probRed": 0.5,
            "lambda": 5,
            "drawnRed": 58,
            "reportedRed": 54,
            "inferredRed": 75,
            "playerTrialScore": -17,
            "oppTrialScore": 0,
            "playerTotalScore": 386,
            "oppTotalScore": -1000,
            "waitTime": 5799.2769881195345,
            "responseTime": 1678836813294,
            "catchQuestion": "How many <b class=\"r\">red<\/b> marbles did your opponent report drawing? ",
            "catchKey": -1,
            "catchResponse": -1,
            "catchTime": 1678836773774,
            "trialTime": 0
        },
        {
            "exptPart": "trial",
            "trialNumber": 68,
            "roleCurrent": "sender",
            "marblesSampled": 100,
            "probRed": 0.5,
            "lambda": 5,
            "drawnRed": 61,
            "reportedRed": 21,
            "inferredRed": 27,
            "playerTrialScore": 34,
            "oppTrialScore": -34,
            "playerTotalScore": 420,
            "oppTotalScore": -1034,
            "waitTime": 2484.2049481781314,
            "responseTime": 1678836837199,
            "catchQuestion": "How many <b class=\"r\">red<\/b> marbles did your opponent report drawing? ",
            "catchKey": -1,
            "catchResponse": -1,
            "catchTime": 1678836773774,
            "trialTime": 0
        },
        {
            "exptPart": "trial",
            "trialNumber": 69,
            "roleCurrent": "receiver",
            "marblesSampled": 100,
            "probRed": 0.5,
            "lambda": 5,
            "drawnRed": 37,
            "reportedRed": 29,
            "inferredRed": 50,
            "playerTrialScore": -13,
            "oppTrialScore": 0,
            "playerTotalScore": 407,
            "oppTotalScore": -1034,
            "waitTime": 6183.324938309866,
            "responseTime": 1678836846356,
            "catchQuestion": "How many <b class=\"r\">red<\/b> marbles did your opponent report drawing? ",
            "catchKey": -1,
            "catchResponse": -1,
            "catchTime": 1678836773774,
            "trialTime": 0
        },
        {
            "exptPart": "trial",
            "trialNumber": 70,
            "roleCurrent": "sender",
            "marblesSampled": 100,
            "probRed": 0.5,
            "lambda": 5,
            "drawnRed": 79,
            "reportedRed": 6,
            "inferredRed": 10,
            "playerTrialScore": 69,
            "oppTrialScore": -69,
            "playerTotalScore": 476,
            "oppTotalScore": -1103,
            "waitTime": 2222.181485905492,
            "responseTime": 1678836890783,
            "catchQuestion": "How many <b class=\"r\">red<\/b> marbles did your opponent report drawing? ",
            "catchKey": -1,
            "catchResponse": -1,
            "catchTime": 1678836890783,
            "trialTime": 0
        },
        {
            "exptPart": "trial",
            "trialNumber": 71,
            "roleCurrent": "receiver",
            "marblesSampled": 100,
            "probRed": 0.5,
            "lambda": 5,
            "drawnRed": 69,
            "reportedRed": 68,
            "inferredRed": 75,
            "playerTrialScore": -6,
            "oppTrialScore": 0,
            "playerTotalScore": 470,
            "oppTotalScore": -1103,
            "waitTime": 6295.288054701876,
            "responseTime": 1678836912399,
            "catchQuestion": "How many <b class=\"r\">red<\/b> marbles did your opponent report drawing? ",
            "catchKey": -1,
            "catchResponse": -1,
            "catchTime": 1678836890783,
            "trialTime": 0
        },
        {
            "exptPart": "trial",
            "trialNumber": 72,
            "roleCurrent": "sender",
            "marblesSampled": 100,
            "probRed": 0.5,
            "lambda": 5,
            "drawnRed": 55,
            "reportedRed": 9,
            "inferredRed": 12,
            "playerTrialScore": 43,
            "oppTrialScore": -43,
            "playerTotalScore": 513,
            "oppTotalScore": -1146,
            "waitTime": 2753.1182219175416,
            "responseTime": 1678836941776,
            "catchQuestion": "How many <b class=\"r\">red<\/b> marbles did your opponent report drawing? ",
            "catchKey": -1,
            "catchResponse": -1,
            "catchTime": 1678836890783,
            "trialTime": 0
        },
        {
            "exptPart": "trial",
            "trialNumber": 73,
            "roleCurrent": "receiver",
            "marblesSampled": 100,
            "probRed": 0.5,
            "lambda": 5,
            "drawnRed": 15,
            "reportedRed": 10,
            "inferredRed": 30,
            "playerTrialScore": -15,
            "oppTrialScore": 0,
            "playerTotalScore": 498,
            "oppTotalScore": -1146,
            "waitTime": 5840.985174109084,
            "responseTime": 1678836957932,
            "catchQuestion": "How many <b class=\"r\">red<\/b> marbles did your opponent report drawing? ",
            "catchKey": -1,
            "catchResponse": -1,
            "catchTime": 1678836890783,
            "trialTime": 0
        },
        {
            "exptPart": "trial",
            "trialNumber": 74,
            "roleCurrent": "sender",
            "marblesSampled": 100,
            "probRed": 0.5,
            "lambda": 5,
            "drawnRed": 18,
            "reportedRed": 6,
            "inferredRed": 11,
            "playerTrialScore": 7,
            "oppTrialScore": -7,
            "playerTotalScore": 505,
            "oppTotalScore": -1153,
            "waitTime": 2712.0809672640225,
            "responseTime": 1678836972915,
            "catchQuestion": "How many <b class=\"r\">red<\/b> marbles did your opponent report drawing? ",
            "catchKey": -1,
            "catchResponse": -1,
            "catchTime": 1678836890783,
            "trialTime": 0
        },
        {
            "exptPart": "trial",
            "trialNumber": 75,
            "roleCurrent": "receiver",
            "marblesSampled": 100,
            "probRed": 0.5,
            "lambda": 5,
            "drawnRed": 74,
            "reportedRed": 72,
            "inferredRed": 80,
            "playerTrialScore": -6,
            "oppTrialScore": 0,
            "playerTotalScore": 499,
            "oppTotalScore": -1153,
            "waitTime": 6841.4463960263,
            "responseTime": 1678836988794,
            "catchQuestion": "How many <b class=\"r\">red<\/b> marbles did your opponent report drawing? ",
            "catchKey": -1,
            "catchResponse": -1,
            "catchTime": 1678836988794,
            "trialTime": 0
        },
        {
            "exptPart": "trial",
            "trialNumber": 76,
            "roleCurrent": "sender",
            "marblesSampled": 100,
            "probRed": 0.5,
            "lambda": 5,
            "drawnRed": 60,
            "reportedRed": 15,
            "inferredRed": 17,
            "playerTrialScore": 43,
            "oppTrialScore": -43,
            "playerTotalScore": 542,
            "oppTotalScore": -1196,
            "waitTime": 2756.4423122269186,
            "responseTime": 1678837029942,
            "catchQuestion": "How many <b class=\"r\">red<\/b> marbles did your opponent report drawing? ",
            "catchKey": -1,
            "catchResponse": -1,
            "catchTime": 1678836988794,
            "trialTime": 0
        },
        {
            "exptPart": "trial",
            "trialNumber": 77,
            "roleCurrent": "receiver",
            "marblesSampled": 100,
            "probRed": 0.5,
            "lambda": 5,
            "drawnRed": 77,
            "reportedRed": 74,
            "inferredRed": 80,
            "playerTrialScore": -3,
            "oppTrialScore": 0,
            "playerTotalScore": 539,
            "oppTotalScore": -1196,
            "waitTime": 6937.449979232997,
            "responseTime": 1678837040436,
            "catchQuestion": "How many <b class=\"r\">red<\/b> marbles did your opponent report drawing? ",
            "catchKey": -1,
            "catchResponse": -1,
            "catchTime": 1678836988794,
            "trialTime": 0
        },
        {
            "exptPart": "trial",
            "trialNumber": 78,
            "roleCurrent": "sender",
            "marblesSampled": 100,
            "probRed": 0.5,
            "lambda": 5,
            "drawnRed": 90,
            "reportedRed": 7,
            "inferredRed": 14,
            "playerTrialScore": 76,
            "oppTrialScore": -76,
            "playerTotalScore": 615,
            "oppTotalScore": -1272,
            "waitTime": 2491.080546904014,
            "responseTime": 1678837087337,
            "catchQuestion": "How many <b class=\"r\">red<\/b> marbles did your opponent report drawing? ",
            "catchKey": -1,
            "catchResponse": -1,
            "catchTime": 1678836988794,
            "trialTime": 0
        },
        {
            "exptPart": "trial",
            "trialNumber": 79,
            "roleCurrent": "receiver",
            "marblesSampled": 100,
            "probRed": 0.5,
            "lambda": 5,
            "drawnRed": 16,
            "reportedRed": 7,
            "inferredRed": 50,
            "playerTrialScore": -34,
            "oppTrialScore": 0,
            "playerTotalScore": 581,
            "oppTotalScore": -1272,
            "waitTime": 6708.983001448851,
            "responseTime": 1678837101190,
            "catchQuestion": "How many <b class=\"r\">red<\/b> marbles did your opponent report drawing? ",
            "catchKey": -1,
            "catchResponse": -1,
            "catchTime": 1678836988794,
            "trialTime": 0
        },
        {
            "exptPart": "trial",
            "trialNumber": 80,
            "roleCurrent": "sender",
            "marblesSampled": 100,
            "probRed": 0.5,
            "lambda": 5,
            "drawnRed": 66,
            "reportedRed": 15,
            "inferredRed": 19,
            "playerTrialScore": 47,
            "oppTrialScore": -47,
            "playerTotalScore": 628,
            "oppTotalScore": -1319,
            "waitTime": 2202.151792631451,
            "responseTime": 1678837133909,
            "catchQuestion": "How many <b class=\"r\">red<\/b> marbles did your opponent report drawing? ",
            "catchKey": -1,
            "catchResponse": -1,
            "catchTime": 1678837133909,
            "trialTime": 0
        },
        {
            "exptPart": "trial",
            "trialNumber": 81,
            "roleCurrent": "receiver",
            "marblesSampled": 100,
            "probRed": 0.5,
            "lambda": 5,
            "drawnRed": 58,
            "reportedRed": 52,
            "inferredRed": 60,
            "playerTrialScore": -2,
            "oppTrialScore": 0,
            "playerTotalScore": 626,
            "oppTotalScore": -1319,
            "waitTime": 6050.1364424388175,
            "responseTime": 1678837159584,
            "catchQuestion": "How many <b class=\"r\">red<\/b> marbles did your opponent report drawing? ",
            "catchKey": -1,
            "catchResponse": -1,
            "catchTime": 1678837133909,
            "trialTime": 0
        },
        {
            "exptPart": "trial",
            "trialNumber": 82,
            "roleCurrent": "sender",
            "marblesSampled": 100,
            "probRed": 0.5,
            "lambda": 5,
            "drawnRed": 62,
            "reportedRed": 6,
            "inferredRed": 8,
            "playerTrialScore": 54,
            "oppTrialScore": -54,
            "playerTotalScore": 680,
            "oppTotalScore": -1373,
            "waitTime": 2227.783129708846,
            "responseTime": 1678837189559,
            "catchQuestion": "How many <b class=\"r\">red<\/b> marbles did your opponent report drawing? ",
            "catchKey": -1,
            "catchResponse": -1,
            "catchTime": 1678837133909,
            "trialTime": 0
        },
        {
            "exptPart": "trial",
            "trialNumber": 83,
            "roleCurrent": "receiver",
            "marblesSampled": 100,
            "probRed": 0.5,
            "lambda": 5,
            "drawnRed": 66,
            "reportedRed": 62,
            "inferredRed": 75,
            "playerTrialScore": -9,
            "oppTrialScore": 0,
            "playerTotalScore": 671,
            "oppTotalScore": -1373,
            "waitTime": 5421.260709740454,
            "responseTime": 1678837198712,
            "catchQuestion": "How many <b class=\"r\">red<\/b> marbles did your opponent report drawing? ",
            "catchKey": -1,
            "catchResponse": -1,
            "catchTime": 1678837133909,
            "trialTime": 0
        },
        {
            "exptPart": "trial",
            "trialNumber": 84,
            "roleCurrent": "sender",
            "marblesSampled": 100,
            "probRed": 0.5,
            "lambda": 5,
            "drawnRed": 71,
            "reportedRed": 12,
            "inferredRed": 17,
            "playerTrialScore": 54,
            "oppTrialScore": -54,
            "playerTotalScore": 725,
            "oppTotalScore": -1427,
            "waitTime": 2356.94758022396,
            "responseTime": 1678837228888,
            "catchQuestion": "How many <b class=\"r\">red<\/b> marbles did your opponent report drawing? ",
            "catchKey": -1,
            "catchResponse": -1,
            "catchTime": 1678837133909,
            "trialTime": 0
        },
        {
            "exptPart": "trial",
            "trialNumber": 85,
            "roleCurrent": "receiver",
            "marblesSampled": 100,
            "probRed": 0.5,
            "lambda": 5,
            "drawnRed": 76,
            "reportedRed": 72,
            "inferredRed": 80,
            "playerTrialScore": -4,
            "oppTrialScore": 0,
            "playerTotalScore": 721,
            "oppTotalScore": -1427,
            "waitTime": 6906.297121859305,
            "responseTime": 1678837239188,
            "catchQuestion": "How many <b class=\"r\">red<\/b> marbles did your opponent report drawing? ",
            "catchKey": -1,
            "catchResponse": -1,
            "catchTime": 1678837239189,
            "trialTime": 0
        },
        {
            "exptPart": "trial",
            "trialNumber": 86,
            "roleCurrent": "sender",
            "marblesSampled": 100,
            "probRed": 0.5,
            "lambda": 5,
            "drawnRed": 54,
            "reportedRed": 21,
            "inferredRed": 27,
            "playerTrialScore": 27,
            "oppTrialScore": -27,
            "playerTotalScore": 748,
            "oppTotalScore": -1454,
            "waitTime": 2648.435206255937,
            "responseTime": 1678837276152,
            "catchQuestion": "How many <b class=\"r\">red<\/b> marbles did your opponent report drawing? ",
            "catchKey": -1,
            "catchResponse": -1,
            "catchTime": 1678837239189,
            "trialTime": 0
        },
        {
            "exptPart": "trial",
            "trialNumber": 87,
            "roleCurrent": "receiver",
            "marblesSampled": 100,
            "probRed": 0.5,
            "lambda": 5,
            "drawnRed": 60,
            "reportedRed": 52,
            "inferredRed": 70,
            "playerTrialScore": -10,
            "oppTrialScore": 0,
            "playerTotalScore": 738,
            "oppTotalScore": -1454,
            "waitTime": 5515.1770076619505,
            "responseTime": 1678837301539,
            "catchQuestion": "How many <b class=\"r\">red<\/b> marbles did your opponent report drawing? ",
            "catchKey": -1,
            "catchResponse": -1,
            "catchTime": 1678837239189,
            "trialTime": 0
        },
        {
            "exptPart": "trial",
            "trialNumber": 88,
            "roleCurrent": "sender",
            "marblesSampled": 100,
            "probRed": 0.5,
            "lambda": 5,
            "drawnRed": 44,
            "reportedRed": 9,
            "inferredRed": 17,
            "playerTrialScore": 27,
            "oppTrialScore": -27,
            "playerTotalScore": 765,
            "oppTotalScore": -1481,
            "waitTime": 2684.7943471539224,
            "responseTime": 1678837322148,
            "catchQuestion": "How many <b class=\"r\">red<\/b> marbles did your opponent report drawing? ",
            "catchKey": -1,
            "catchResponse": -1,
            "catchTime": 1678837239189,
            "trialTime": 0
        },
        {
            "exptPart": "trial",
            "trialNumber": 89,
            "roleCurrent": "receiver",
            "marblesSampled": 100,
            "probRed": 0.5,
            "lambda": 5,
            "drawnRed": 84,
            "reportedRed": 72,
            "inferredRed": 80,
            "playerTrialScore": -4,
            "oppTrialScore": 4,
            "playerTotalScore": 761,
            "oppTotalScore": -1477,
            "waitTime": 6004.449555005551,
            "responseTime": 1678837331425,
            "catchQuestion": "How many <b class=\"r\">red<\/b> marbles did your opponent report drawing? ",
            "catchKey": -1,
            "catchResponse": -1,
            "catchTime": 1678837239189,
            "trialTime": 0
        },
        {
            "exptPart": "trial",
            "trialNumber": 90,
            "roleCurrent": "sender",
            "marblesSampled": 100,
            "probRed": 0.5,
            "lambda": 5,
            "drawnRed": 48,
            "reportedRed": 11,
            "inferredRed": 17,
            "playerTrialScore": 31,
            "oppTrialScore": -31,
            "playerTotalScore": 792,
            "oppTotalScore": -1508,
            "waitTime": 2334.0944699754473,
            "responseTime": 1678837355224,
            "catchQuestion": "How many <b class=\"r\">red<\/b> marbles did your opponent report drawing? ",
            "catchKey": -1,
            "catchResponse": -1,
            "catchTime": 1678837355225,
            "trialTime": 0
        },
        {
            "exptPart": "trial",
            "trialNumber": 91,
            "roleCurrent": "receiver",
            "marblesSampled": 100,
            "probRed": 0.5,
            "lambda": 5,
            "drawnRed": 32,
            "reportedRed": 28,
            "inferredRed": 40,
            "playerTrialScore": -8,
            "oppTrialScore": 0,
            "playerTotalScore": 784,
            "oppTotalScore": -1508,
            "waitTime": 5787.642561121656,
            "responseTime": 1678837369739,
            "catchQuestion": "How many <b class=\"r\">red<\/b> marbles did your opponent report drawing? ",
            "catchKey": -1,
            "catchResponse": -1,
            "catchTime": 1678837355225,
            "trialTime": 0
        },
        {
            "exptPart": "trial",
            "trialNumber": 92,
            "roleCurrent": "sender",
            "marblesSampled": 100,
            "probRed": 0.5,
            "lambda": 5,
            "drawnRed": 23,
            "reportedRed": 6,
            "inferredRed": 14,
            "playerTrialScore": 9,
            "oppTrialScore": -9,
            "playerTotalScore": 793,
            "oppTotalScore": -1517,
            "waitTime": 2873.7453355864677,
            "responseTime": 1678837387673,
            "catchQuestion": "How many <b class=\"r\">red<\/b> marbles did your opponent report drawing? ",
            "catchKey": -1,
            "catchResponse": -1,
            "catchTime": 1678837355225,
            "trialTime": 0
        },
        {
            "exptPart": "trial",
            "trialNumber": 93,
            "roleCurrent": "receiver",
            "marblesSampled": 100,
            "probRed": 0.5,
            "lambda": 5,
            "drawnRed": 45,
            "reportedRed": 37,
            "inferredRed": 50,
            "playerTrialScore": -5,
            "oppTrialScore": 0,
            "playerTotalScore": 788,
            "oppTotalScore": -1517,
            "waitTime": 6941.205334632237,
            "responseTime": 1678837396749,
            "catchQuestion": "How many <b class=\"r\">red<\/b> marbles did your opponent report drawing? ",
            "catchKey": -1,
            "catchResponse": -1,
            "catchTime": 1678837355225,
            "trialTime": 0
        },
        {
            "exptPart": "trial",
            "trialNumber": 94,
            "roleCurrent": "sender",
            "marblesSampled": 100,
            "probRed": 0.5,
            "lambda": 5,
            "drawnRed": 27,
            "reportedRed": 27,
            "inferredRed": 29,
            "playerTrialScore": 0,
            "oppTrialScore": -2,
            "playerTotalScore": 788,
            "oppTotalScore": -1519,
            "waitTime": 2381.50521748718,
            "responseTime": 1678837409478,
            "catchQuestion": "How many <b class=\"r\">red<\/b> marbles did your opponent report drawing? ",
            "catchKey": -1,
            "catchResponse": -1,
            "catchTime": 1678837355225,
            "trialTime": 0
        },
        {
            "exptPart": "trial",
            "trialNumber": 95,
            "roleCurrent": "receiver",
            "marblesSampled": 100,
            "probRed": 0.5,
            "lambda": 5,
            "drawnRed": 24,
            "reportedRed": 22,
            "inferredRed": 40,
            "playerTrialScore": -16,
            "oppTrialScore": 0,
            "playerTotalScore": 772,
            "oppTotalScore": -1519,
            "waitTime": 5510.955749943807,
            "responseTime": 1678837418370,
            "catchQuestion": "How many <b class=\"r\">red<\/b> marbles did your opponent report drawing? ",
            "catchKey": -1,
            "catchResponse": -1,
            "catchTime": 1678837418370,
            "trialTime": 0
        },
        {
            "exptPart": "trial",
            "trialNumber": 96,
            "roleCurrent": "sender",
            "marblesSampled": 100,
            "probRed": 0.5,
            "lambda": 5,
            "drawnRed": 39,
            "reportedRed": 11,
            "inferredRed": 16,
            "playerTrialScore": 23,
            "oppTrialScore": -23,
            "playerTotalScore": 795,
            "oppTotalScore": -1542,
            "waitTime": 2385.848067188468,
            "responseTime": 1678837440246,
            "catchQuestion": "How many <b class=\"r\">red<\/b> marbles did your opponent report drawing? ",
            "catchKey": -1,
            "catchResponse": -1,
            "catchTime": 1678837418370,
            "trialTime": 0
        },
        {
            "exptPart": "trial",
            "trialNumber": 97,
            "roleCurrent": "receiver",
            "marblesSampled": 100,
            "probRed": 0.5,
            "lambda": 5,
            "drawnRed": 91,
            "reportedRed": 83,
            "inferredRed": 90,
            "playerTrialScore": -1,
            "oppTrialScore": 1,
            "playerTotalScore": 794,
            "oppTotalScore": -1541,
            "waitTime": 7288.9174893722,
            "responseTime": 1678837452389,
            "catchQuestion": "How many <b class=\"r\">red<\/b> marbles did your opponent report drawing? ",
            "catchKey": 83,
            "catchResponse": 83,
            "catchTime": 1678837452389,
            "trialTime": 0
        },
        {
            "exptPart": "trial",
            "trialNumber": 98,
            "roleCurrent": "sender",
            "marblesSampled": 100,
            "probRed": 0.5,
            "lambda": 5,
            "drawnRed": 41,
            "reportedRed": 8,
            "inferredRed": 11,
            "playerTrialScore": 30,
            "oppTrialScore": -30,
            "playerTotalScore": 824,
            "oppTotalScore": -1571,
            "waitTime": 2661.095536512145,
            "responseTime": 1678837477606,
            "catchQuestion": "How many <b class=\"r\">red<\/b> marbles did your opponent report drawing? ",
            "catchKey": -1,
            "catchResponse": -1,
            "catchTime": 1678837452389,
            "trialTime": 0
        },
        {
            "exptPart": "trial",
            "trialNumber": 99,
            "roleCurrent": "receiver",
            "marblesSampled": 100,
            "probRed": 0.5,
            "lambda": 5,
            "drawnRed": 73,
            "reportedRed": 69,
            "inferredRed": 75,
            "playerTrialScore": -2,
            "oppTrialScore": 0,
            "playerTotalScore": 822,
            "oppTotalScore": -1571,
            "waitTime": 5302.983104779695,
            "responseTime": 1678837487140,
            "catchQuestion": "How many <b class=\"r\">red<\/b> marbles did your opponent report drawing? ",
            "catchKey": -1,
            "catchResponse": -1,
            "catchTime": 1678837452389,
            "trialTime": 0
        },
        {
            "exptPart": "trial",
            "trialNumber": 100,
            "roleCurrent": "sender",
            "marblesSampled": 100,
            "probRed": 0.5,
            "lambda": 5,
            "drawnRed": 50,
            "reportedRed": 10,
            "inferredRed": 17,
            "playerTrialScore": 33,
            "oppTrialScore": -33,
            "playerTotalScore": 855,
            "oppTotalScore": -1604,
            "waitTime": 2798.410909875235,
            "responseTime": 1678837514609,
            "catchQuestion": "How many <b class=\"r\">red<\/b> marbles did your opponent report drawing? ",
            "catchKey": -1,
            "catchResponse": -1,
            "catchTime": 1678837514609,
            "trialTime": 0
        }
    ]
}