{
    "client": {
        "type": "sona",
        "experiment_id": 2228,
        "credit_token": "b315147ae43241ea9c65086cb510cfb7",
        "survey_code": "43387",
        "sid": "sona-43387",
        "window": {
            "width": 1440,
            "height": 820
        },
        "screen": {
            "width": 1440,
            "height": 900
        },
        "userAgent": "Mozilla\/5.0 (Macintosh; Intel Mac OS X 10_15_7) AppleWebKit\/605.1.15 (KHTML, like Gecko) Version\/16.3 Safari\/605.1.15",
        "score": 0,
        "bonus": 0
    },
    "expt": {
        "saveURL": "submit.simple.php",
        "trials": 100,
        "practiceTrials": 2,
        "marblesSampled": 100,
        "probRed": 0.5,
        "lambdaAI": 5,
        "roleFirst": "receiver",
        "roles": [
            "sender",
            "receiver"
        ],
        "cost": "linear",
        "goal": "over",
        "goalInstructTxt": "below",
        "catchTrials": [
            66,
            16,
            9,
            79,
            74,
            82,
            22,
            44,
            97,
            98
        ],
        "scoreTotal": {
            "player": -408,
            "opp": -30
        },
        "sona": {
            "experiment_id": 2228,
            "credit_token": "b315147ae43241ea9c65086cb510cfb7"
        },
        "pilot": false,
        "debug": false
    },
    "trials": [
        {
            "exptPart": "practice",
            "trialNumber": 1,
            "roleCurrent": "sender",
            "marblesSampled": 100,
            "probRed": 0.5,
            "lambda": 5,
            "drawnRed": 46,
            "reportedRed": 46,
            "inferredRed": 39,
            "playerTrialScore": 0,
            "oppTrialScore": -7,
            "playerTotalScore": 0,
            "oppTotalScore": -7,
            "waitTime": 2193.4968786684594,
            "responseTime": 1680645647949,
            "catchQuestion": "How many <b class=\"r\">red<\/b> marbles did you actually draw (before any changes)? ",
            "catchKey": 46,
            "catchResponse": 46,
            "catchTime": 1680645647950,
            "trialTime": 0
        },
        {
            "exptPart": "practice",
            "trialNumber": 2,
            "roleCurrent": "receiver",
            "marblesSampled": 100,
            "probRed": 0.5,
            "lambda": 5,
            "drawnRed": 52,
            "reportedRed": 58,
            "inferredRed": 59,
            "playerTrialScore": -7,
            "oppTrialScore": 7,
            "playerTotalScore": -7,
            "oppTotalScore": 0,
            "waitTime": 6879.161036810598,
            "responseTime": 1680645688445,
            "catchQuestion": "How many <b class=\"r\">red<\/b> marbles did your opponent report drawing? ",
            "catchKey": 58,
            "catchResponse": 58,
            "catchTime": 1680645688445,
            "trialTime": 0
        },
        {
            "exptPart": "trial",
            "trialNumber": 1,
            "roleCurrent": "receiver",
            "marblesSampled": 100,
            "probRed": 0.5,
            "lambda": 5,
            "drawnRed": 45,
            "reportedRed": 50,
            "inferredRed": 48,
            "playerTrialScore": -3,
            "oppTrialScore": 3,
            "playerTotalScore": -3,
            "oppTotalScore": 3,
            "waitTime": 5165.865521708445,
            "responseTime": 1680645757485,
            "catchQuestion": "How many <b class=\"r\">red<\/b> marbles did your opponent report drawing? ",
            "catchKey": -1,
            "catchResponse": -1,
            "catchTime": 1680645688445,
            "trialTime": 0
        },
        {
            "exptPart": "trial",
            "trialNumber": 2,
            "roleCurrent": "sender",
            "marblesSampled": 100,
            "probRed": 0.5,
            "lambda": 5,
            "drawnRed": 49,
            "reportedRed": 49,
            "inferredRed": 43,
            "playerTrialScore": 0,
            "oppTrialScore": -6,
            "playerTotalScore": -3,
            "oppTotalScore": -3,
            "waitTime": 2122.353593374629,
            "responseTime": 1680645768532,
            "catchQuestion": "How many <b class=\"r\">red<\/b> marbles did your opponent report drawing? ",
            "catchKey": -1,
            "catchResponse": -1,
            "catchTime": 1680645688445,
            "trialTime": 0
        },
        {
            "exptPart": "trial",
            "trialNumber": 3,
            "roleCurrent": "receiver",
            "marblesSampled": 100,
            "probRed": 0.5,
            "lambda": 5,
            "drawnRed": 49,
            "reportedRed": 52,
            "inferredRed": 53,
            "playerTrialScore": -4,
            "oppTrialScore": 4,
            "playerTotalScore": -7,
            "oppTotalScore": 1,
            "waitTime": 5374.8842598901065,
            "responseTime": 1680645805056,
            "catchQuestion": "How many <b class=\"r\">red<\/b> marbles did your opponent report drawing? ",
            "catchKey": -1,
            "catchResponse": -1,
            "catchTime": 1680645688445,
            "trialTime": 0
        },
        {
            "exptPart": "trial",
            "trialNumber": 4,
            "roleCurrent": "sender",
            "marblesSampled": 100,
            "probRed": 0.5,
            "lambda": 5,
            "drawnRed": 47,
            "reportedRed": 47,
            "inferredRed": 43,
            "playerTrialScore": 0,
            "oppTrialScore": -4,
            "playerTotalScore": -7,
            "oppTotalScore": -3,
            "waitTime": 2807.627171195594,
            "responseTime": 1680645819375,
            "catchQuestion": "How many <b class=\"r\">red<\/b> marbles did your opponent report drawing? ",
            "catchKey": -1,
            "catchResponse": -1,
            "catchTime": 1680645688445,
            "trialTime": 0
        },
        {
            "exptPart": "trial",
            "trialNumber": 5,
            "roleCurrent": "receiver",
            "marblesSampled": 100,
            "probRed": 0.5,
            "lambda": 5,
            "drawnRed": 44,
            "reportedRed": 49,
            "inferredRed": 47,
            "playerTrialScore": -3,
            "oppTrialScore": 3,
            "playerTotalScore": -10,
            "oppTotalScore": 0,
            "waitTime": 5917.010391272712,
            "responseTime": 1680645830306,
            "catchQuestion": "How many <b class=\"r\">red<\/b> marbles did your opponent report drawing? ",
            "catchKey": -1,
            "catchResponse": -1,
            "catchTime": 1680645830306,
            "trialTime": 0
        },
        {
            "exptPart": "trial",
            "trialNumber": 6,
            "roleCurrent": "sender",
            "marblesSampled": 100,
            "probRed": 0.5,
            "lambda": 5,
            "drawnRed": 10,
            "reportedRed": 10,
            "inferredRed": 7,
            "playerTrialScore": 0,
            "oppTrialScore": -3,
            "playerTotalScore": -10,
            "oppTotalScore": -3,
            "waitTime": 2462.3426880079096,
            "responseTime": 1680645889784,
            "catchQuestion": "How many <b class=\"r\">red<\/b> marbles did your opponent report drawing? ",
            "catchKey": -1,
            "catchResponse": -1,
            "catchTime": 1680645830306,
            "trialTime": 0
        },
        {
            "exptPart": "trial",
            "trialNumber": 7,
            "roleCurrent": "receiver",
            "marblesSampled": 100,
            "probRed": 0.5,
            "lambda": 5,
            "drawnRed": 53,
            "reportedRed": 59,
            "inferredRed": 59,
            "playerTrialScore": -6,
            "oppTrialScore": 6,
            "playerTotalScore": -16,
            "oppTotalScore": 3,
            "waitTime": 6669.512366071411,
            "responseTime": 1680645939732,
            "catchQuestion": "How many <b class=\"r\">red<\/b> marbles did your opponent report drawing? ",
            "catchKey": -1,
            "catchResponse": -1,
            "catchTime": 1680645830306,
            "trialTime": 0
        },
        {
            "exptPart": "trial",
            "trialNumber": 8,
            "roleCurrent": "sender",
            "marblesSampled": 100,
            "probRed": 0.5,
            "lambda": 5,
            "drawnRed": 65,
            "reportedRed": 65,
            "inferredRed": 58,
            "playerTrialScore": 0,
            "oppTrialScore": -7,
            "playerTotalScore": -16,
            "oppTotalScore": -4,
            "waitTime": 2722.399985979112,
            "responseTime": 1680645962640,
            "catchQuestion": "How many <b class=\"r\">red<\/b> marbles did your opponent report drawing? ",
            "catchKey": -1,
            "catchResponse": -1,
            "catchTime": 1680645830306,
            "trialTime": 0
        },
        {
            "exptPart": "trial",
            "trialNumber": 9,
            "roleCurrent": "receiver",
            "marblesSampled": 100,
            "probRed": 0.5,
            "lambda": 5,
            "drawnRed": 41,
            "reportedRed": 45,
            "inferredRed": 48,
            "playerTrialScore": -7,
            "oppTrialScore": 7,
            "playerTotalScore": -23,
            "oppTotalScore": 3,
            "waitTime": 7075.148846129632,
            "responseTime": 1680645985946,
            "catchQuestion": "How many <b class=\"r\">red<\/b> marbles did your opponent report drawing? ",
            "catchKey": -1,
            "catchResponse": -1,
            "catchTime": 1680645830306,
            "trialTime": 0
        },
        {
            "exptPart": "trial",
            "trialNumber": 10,
            "roleCurrent": "sender",
            "marblesSampled": 100,
            "probRed": 0.5,
            "lambda": 5,
            "drawnRed": 51,
            "reportedRed": 51,
            "inferredRed": 44,
            "playerTrialScore": 0,
            "oppTrialScore": -7,
            "playerTotalScore": -23,
            "oppTotalScore": -4,
            "waitTime": 2635.57371246216,
            "responseTime": 1680645995486,
            "catchQuestion": "How many <b class=\"r\">red<\/b> marbles did you actually draw (before any changes)? ",
            "catchKey": 51,
            "catchResponse": 51,
            "catchTime": 1680645995486,
            "trialTime": 0
        },
        {
            "exptPart": "trial",
            "trialNumber": 11,
            "roleCurrent": "receiver",
            "marblesSampled": 100,
            "probRed": 0.5,
            "lambda": 5,
            "drawnRed": 10,
            "reportedRed": 17,
            "inferredRed": 18,
            "playerTrialScore": -8,
            "oppTrialScore": 8,
            "playerTotalScore": -31,
            "oppTotalScore": 4,
            "waitTime": 5645.542011760306,
            "responseTime": 1680646032780,
            "catchQuestion": "How many <b class=\"r\">red<\/b> marbles did you actually draw (before any changes)? ",
            "catchKey": -1,
            "catchResponse": -1,
            "catchTime": 1680645995486,
            "trialTime": 0
        },
        {
            "exptPart": "trial",
            "trialNumber": 12,
            "roleCurrent": "sender",
            "marblesSampled": 100,
            "probRed": 0.5,
            "lambda": 5,
            "drawnRed": 40,
            "reportedRed": 40,
            "inferredRed": 32,
            "playerTrialScore": 0,
            "oppTrialScore": -8,
            "playerTotalScore": -31,
            "oppTotalScore": -4,
            "waitTime": 2214.570576463323,
            "responseTime": 1680646043199,
            "catchQuestion": "How many <b class=\"r\">red<\/b> marbles did you actually draw (before any changes)? ",
            "catchKey": -1,
            "catchResponse": -1,
            "catchTime": 1680645995486,
            "trialTime": 0
        },
        {
            "exptPart": "trial",
            "trialNumber": 13,
            "roleCurrent": "receiver",
            "marblesSampled": 100,
            "probRed": 0.5,
            "lambda": 5,
            "drawnRed": 62,
            "reportedRed": 66,
            "inferredRed": 70,
            "playerTrialScore": -8,
            "oppTrialScore": 8,
            "playerTotalScore": -39,
            "oppTotalScore": 4,
            "waitTime": 5733.781933448562,
            "responseTime": 1680646060764,
            "catchQuestion": "How many <b class=\"r\">red<\/b> marbles did you actually draw (before any changes)? ",
            "catchKey": -1,
            "catchResponse": -1,
            "catchTime": 1680645995486,
            "trialTime": 0
        },
        {
            "exptPart": "trial",
            "trialNumber": 14,
            "roleCurrent": "sender",
            "marblesSampled": 100,
            "probRed": 0.5,
            "lambda": 5,
            "drawnRed": 23,
            "reportedRed": 23,
            "inferredRed": 18,
            "playerTrialScore": 0,
            "oppTrialScore": -5,
            "playerTotalScore": -39,
            "oppTotalScore": -1,
            "waitTime": 2866.9418525941883,
            "responseTime": 1680646080749,
            "catchQuestion": "How many <b class=\"r\">red<\/b> marbles did you actually draw (before any changes)? ",
            "catchKey": -1,
            "catchResponse": -1,
            "catchTime": 1680645995486,
            "trialTime": 0
        },
        {
            "exptPart": "trial",
            "trialNumber": 15,
            "roleCurrent": "receiver",
            "marblesSampled": 100,
            "probRed": 0.5,
            "lambda": 5,
            "drawnRed": 33,
            "reportedRed": 34,
            "inferredRed": 37,
            "playerTrialScore": -4,
            "oppTrialScore": 4,
            "playerTotalScore": -43,
            "oppTotalScore": 3,
            "waitTime": 5235.270541286465,
            "responseTime": 1680646100298,
            "catchQuestion": "How many <b class=\"r\">red<\/b> marbles did you actually draw (before any changes)? ",
            "catchKey": -1,
            "catchResponse": -1,
            "catchTime": 1680646100298,
            "trialTime": 0
        },
        {
            "exptPart": "trial",
            "trialNumber": 16,
            "roleCurrent": "sender",
            "marblesSampled": 100,
            "probRed": 0.5,
            "lambda": 5,
            "drawnRed": 8,
            "reportedRed": 8,
            "inferredRed": 6,
            "playerTrialScore": 0,
            "oppTrialScore": -2,
            "playerTotalScore": -43,
            "oppTotalScore": 1,
            "waitTime": 2144.2121664681604,
            "responseTime": 1680646118941,
            "catchQuestion": "How many <b class=\"r\">red<\/b> marbles did you actually draw (before any changes)? ",
            "catchKey": -1,
            "catchResponse": -1,
            "catchTime": 1680646100298,
            "trialTime": 0
        },
        {
            "exptPart": "trial",
            "trialNumber": 17,
            "roleCurrent": "receiver",
            "marblesSampled": 100,
            "probRed": 0.5,
            "lambda": 5,
            "drawnRed": 46,
            "reportedRed": 50,
            "inferredRed": 55,
            "playerTrialScore": -9,
            "oppTrialScore": 9,
            "playerTotalScore": -52,
            "oppTotalScore": 10,
            "waitTime": 5701.805840044768,
            "responseTime": 1680646131089,
            "catchQuestion": "How many <b class=\"r\">red<\/b> marbles did your opponent report drawing? ",
            "catchKey": 50,
            "catchResponse": 50,
            "catchTime": 1680646131090,
            "trialTime": 0
        },
        {
            "exptPart": "trial",
            "trialNumber": 18,
            "roleCurrent": "sender",
            "marblesSampled": 100,
            "probRed": 0.5,
            "lambda": 5,
            "drawnRed": 56,
            "reportedRed": 56,
            "inferredRed": 54,
            "playerTrialScore": 0,
            "oppTrialScore": -2,
            "playerTotalScore": -52,
            "oppTotalScore": 8,
            "waitTime": 2910.022490579022,
            "responseTime": 1680646147179,
            "catchQuestion": "How many <b class=\"r\">red<\/b> marbles did your opponent report drawing? ",
            "catchKey": -1,
            "catchResponse": -1,
            "catchTime": 1680646131090,
            "trialTime": 0
        },
        {
            "exptPart": "trial",
            "trialNumber": 19,
            "roleCurrent": "receiver",
            "marblesSampled": 100,
            "probRed": 0.5,
            "lambda": 5,
            "drawnRed": 36,
            "reportedRed": 44,
            "inferredRed": 47,
            "playerTrialScore": -11,
            "oppTrialScore": 11,
            "playerTotalScore": -63,
            "oppTotalScore": 19,
            "waitTime": 6074.563828658679,
            "responseTime": 1680646165007,
            "catchQuestion": "How many <b class=\"r\">red<\/b> marbles did your opponent report drawing? ",
            "catchKey": -1,
            "catchResponse": -1,
            "catchTime": 1680646131090,
            "trialTime": 0
        },
        {
            "exptPart": "trial",
            "trialNumber": 20,
            "roleCurrent": "sender",
            "marblesSampled": 100,
            "probRed": 0.5,
            "lambda": 5,
            "drawnRed": 55,
            "reportedRed": 55,
            "inferredRed": 46,
            "playerTrialScore": 0,
            "oppTrialScore": -9,
            "playerTotalScore": -63,
            "oppTotalScore": 10,
            "waitTime": 2606.912586621732,
            "responseTime": 1680646182706,
            "catchQuestion": "How many <b class=\"r\">red<\/b> marbles did your opponent report drawing? ",
            "catchKey": -1,
            "catchResponse": -1,
            "catchTime": 1680646182706,
            "trialTime": 0
        },
        {
            "exptPart": "trial",
            "trialNumber": 21,
            "roleCurrent": "receiver",
            "marblesSampled": 100,
            "probRed": 0.5,
            "lambda": 5,
            "drawnRed": 29,
            "reportedRed": 34,
            "inferredRed": 34,
            "playerTrialScore": -5,
            "oppTrialScore": 5,
            "playerTotalScore": -68,
            "oppTotalScore": 15,
            "waitTime": 5605.237304766476,
            "responseTime": 1680646198170,
            "catchQuestion": "How many <b class=\"r\">red<\/b> marbles did your opponent report drawing? ",
            "catchKey": -1,
            "catchResponse": -1,
            "catchTime": 1680646182706,
            "trialTime": 0
        },
        {
            "exptPart": "trial",
            "trialNumber": 22,
            "roleCurrent": "sender",
            "marblesSampled": 100,
            "probRed": 0.5,
            "lambda": 5,
            "drawnRed": 32,
            "reportedRed": 34,
            "inferredRed": 26,
            "playerTrialScore": 0,
            "oppTrialScore": -6,
            "playerTotalScore": -68,
            "oppTotalScore": 9,
            "waitTime": 2310.358236911978,
            "responseTime": 1680646240369,
            "catchQuestion": "How many <b class=\"r\">red<\/b> marbles did your opponent report drawing? ",
            "catchKey": -1,
            "catchResponse": -1,
            "catchTime": 1680646182706,
            "trialTime": 0
        },
        {
            "exptPart": "trial",
            "trialNumber": 23,
            "roleCurrent": "receiver",
            "marblesSampled": 100,
            "probRed": 0.5,
            "lambda": 5,
            "drawnRed": 29,
            "reportedRed": 31,
            "inferredRed": 33,
            "playerTrialScore": -4,
            "oppTrialScore": 4,
            "playerTotalScore": -72,
            "oppTotalScore": 13,
            "waitTime": 6878.911624587097,
            "responseTime": 1680646256143,
            "catchQuestion": "How many <b class=\"r\">red<\/b> marbles did your opponent report drawing? ",
            "catchKey": 31,
            "catchResponse": 31,
            "catchTime": 1680646256143,
            "trialTime": 0
        },
        {
            "exptPart": "trial",
            "trialNumber": 24,
            "roleCurrent": "sender",
            "marblesSampled": 100,
            "probRed": 0.5,
            "lambda": 5,
            "drawnRed": 78,
            "reportedRed": 75,
            "inferredRed": 69,
            "playerTrialScore": 0,
            "oppTrialScore": -9,
            "playerTotalScore": -72,
            "oppTotalScore": 4,
            "waitTime": 2908.6118089221195,
            "responseTime": 1680646330344,
            "catchQuestion": "How many <b class=\"r\">red<\/b> marbles did your opponent report drawing? ",
            "catchKey": -1,
            "catchResponse": -1,
            "catchTime": 1680646256143,
            "trialTime": 0
        },
        {
            "exptPart": "trial",
            "trialNumber": 25,
            "roleCurrent": "receiver",
            "marblesSampled": 100,
            "probRed": 0.5,
            "lambda": 5,
            "drawnRed": 14,
            "reportedRed": 18,
            "inferredRed": 21,
            "playerTrialScore": -7,
            "oppTrialScore": 7,
            "playerTotalScore": -79,
            "oppTotalScore": 11,
            "waitTime": 5281.305715942545,
            "responseTime": 1680646347765,
            "catchQuestion": "How many <b class=\"r\">red<\/b> marbles did your opponent report drawing? ",
            "catchKey": -1,
            "catchResponse": -1,
            "catchTime": 1680646347765,
            "trialTime": 0
        },
        {
            "exptPart": "trial",
            "trialNumber": 26,
            "roleCurrent": "sender",
            "marblesSampled": 100,
            "probRed": 0.5,
            "lambda": 5,
            "drawnRed": 67,
            "reportedRed": 67,
            "inferredRed": 61,
            "playerTrialScore": 0,
            "oppTrialScore": -6,
            "playerTotalScore": -79,
            "oppTotalScore": 5,
            "waitTime": 2925.5444890340236,
            "responseTime": 1680646370811,
            "catchQuestion": "How many <b class=\"r\">red<\/b> marbles did your opponent report drawing? ",
            "catchKey": -1,
            "catchResponse": -1,
            "catchTime": 1680646347765,
            "trialTime": 0
        },
        {
            "exptPart": "trial",
            "trialNumber": 27,
            "roleCurrent": "receiver",
            "marblesSampled": 100,
            "probRed": 0.5,
            "lambda": 5,
            "drawnRed": 62,
            "reportedRed": 67,
            "inferredRed": 67,
            "playerTrialScore": -5,
            "oppTrialScore": 5,
            "playerTotalScore": -84,
            "oppTotalScore": 10,
            "waitTime": 7106.110842092135,
            "responseTime": 1680646393630,
            "catchQuestion": "How many <b class=\"r\">red<\/b> marbles did your opponent report drawing? ",
            "catchKey": -1,
            "catchResponse": -1,
            "catchTime": 1680646347765,
            "trialTime": 0
        },
        {
            "exptPart": "trial",
            "trialNumber": 28,
            "roleCurrent": "sender",
            "marblesSampled": 100,
            "probRed": 0.5,
            "lambda": 5,
            "drawnRed": 56,
            "reportedRed": 47,
            "inferredRed": 41,
            "playerTrialScore": 0,
            "oppTrialScore": -15,
            "playerTotalScore": -84,
            "oppTotalScore": -5,
            "waitTime": 2744.82333943882,
            "responseTime": 1680646509098,
            "catchQuestion": "How many <b class=\"r\">red<\/b> marbles did your opponent report drawing? ",
            "catchKey": -1,
            "catchResponse": -1,
            "catchTime": 1680646347765,
            "trialTime": 0
        },
        {
            "exptPart": "trial",
            "trialNumber": 29,
            "roleCurrent": "receiver",
            "marblesSampled": 100,
            "probRed": 0.5,
            "lambda": 5,
            "drawnRed": 35,
            "reportedRed": 41,
            "inferredRed": 50,
            "playerTrialScore": -15,
            "oppTrialScore": 15,
            "playerTotalScore": -99,
            "oppTotalScore": 10,
            "waitTime": 5841.549731790245,
            "responseTime": 1680646524786,
            "catchQuestion": "How many <b class=\"r\">red<\/b> marbles did your opponent report drawing? ",
            "catchKey": -1,
            "catchResponse": -1,
            "catchTime": 1680646347765,
            "trialTime": 0
        },
        {
            "exptPart": "trial",
            "trialNumber": 30,
            "roleCurrent": "sender",
            "marblesSampled": 100,
            "probRed": 0.5,
            "lambda": 5,
            "drawnRed": 61,
            "reportedRed": 48,
            "inferredRed": 43,
            "playerTrialScore": 0,
            "oppTrialScore": -18,
            "playerTotalScore": -99,
            "oppTotalScore": -8,
            "waitTime": 2655.562962591308,
            "responseTime": 1680646642021,
            "catchQuestion": "How many <b class=\"r\">red<\/b> marbles did your opponent report drawing? ",
            "catchKey": -1,
            "catchResponse": -1,
            "catchTime": 1680646642021,
            "trialTime": 0
        },
        {
            "exptPart": "trial",
            "trialNumber": 31,
            "roleCurrent": "receiver",
            "marblesSampled": 100,
            "probRed": 0.5,
            "lambda": 5,
            "drawnRed": 48,
            "reportedRed": 56,
            "inferredRed": 63,
            "playerTrialScore": -15,
            "oppTrialScore": 15,
            "playerTotalScore": -114,
            "oppTotalScore": 7,
            "waitTime": 5418.886287315732,
            "responseTime": 1680646661281,
            "catchQuestion": "How many <b class=\"r\">red<\/b> marbles did your opponent report drawing? ",
            "catchKey": -1,
            "catchResponse": -1,
            "catchTime": 1680646642021,
            "trialTime": 0
        },
        {
            "exptPart": "trial",
            "trialNumber": 32,
            "roleCurrent": "sender",
            "marblesSampled": 100,
            "probRed": 0.5,
            "lambda": 5,
            "drawnRed": 59,
            "reportedRed": 44,
            "inferredRed": 39,
            "playerTrialScore": 0,
            "oppTrialScore": -20,
            "playerTotalScore": -114,
            "oppTotalScore": -13,
            "waitTime": 2695.9541919268777,
            "responseTime": 1680646760417,
            "catchQuestion": "How many <b class=\"r\">red<\/b> marbles did your opponent report drawing? ",
            "catchKey": -1,
            "catchResponse": -1,
            "catchTime": 1680646642021,
            "trialTime": 0
        },
        {
            "exptPart": "trial",
            "trialNumber": 33,
            "roleCurrent": "receiver",
            "marblesSampled": 100,
            "probRed": 0.5,
            "lambda": 5,
            "drawnRed": 51,
            "reportedRed": 53,
            "inferredRed": 61,
            "playerTrialScore": -10,
            "oppTrialScore": 10,
            "playerTotalScore": -124,
            "oppTotalScore": -3,
            "waitTime": 6136.506855248275,
            "responseTime": 1680646776351,
            "catchQuestion": "How many <b class=\"r\">red<\/b> marbles did your opponent report drawing? ",
            "catchKey": -1,
            "catchResponse": -1,
            "catchTime": 1680646642021,
            "trialTime": 0
        },
        {
            "exptPart": "trial",
            "trialNumber": 34,
            "roleCurrent": "sender",
            "marblesSampled": 100,
            "probRed": 0.5,
            "lambda": 5,
            "drawnRed": 58,
            "reportedRed": 51,
            "inferredRed": 49,
            "playerTrialScore": 0,
            "oppTrialScore": -9,
            "playerTotalScore": -124,
            "oppTotalScore": -12,
            "waitTime": 2170.1947367346556,
            "responseTime": 1680646818400,
            "catchQuestion": "How many <b class=\"r\">red<\/b> marbles did your opponent report drawing? ",
            "catchKey": -1,
            "catchResponse": -1,
            "catchTime": 1680646642021,
            "trialTime": 0
        },
        {
            "exptPart": "trial",
            "trialNumber": 35,
            "roleCurrent": "receiver",
            "marblesSampled": 100,
            "probRed": 0.5,
            "lambda": 5,
            "drawnRed": 54,
            "reportedRed": 57,
            "inferredRed": 62,
            "playerTrialScore": -8,
            "oppTrialScore": 8,
            "playerTotalScore": -132,
            "oppTotalScore": -4,
            "waitTime": 5719.2367089109375,
            "responseTime": 1680646942867,
            "catchQuestion": "How many <b class=\"r\">red<\/b> marbles did your opponent report drawing? ",
            "catchKey": -1,
            "catchResponse": -1,
            "catchTime": 1680646942867,
            "trialTime": 0
        },
        {
            "exptPart": "trial",
            "trialNumber": 36,
            "roleCurrent": "sender",
            "marblesSampled": 100,
            "probRed": 0.5,
            "lambda": 5,
            "drawnRed": 51,
            "reportedRed": 43,
            "inferredRed": 40,
            "playerTrialScore": 0,
            "oppTrialScore": -11,
            "playerTotalScore": -132,
            "oppTotalScore": -15,
            "waitTime": 2598.9030259169394,
            "responseTime": 1680646977868,
            "catchQuestion": "How many <b class=\"r\">red<\/b> marbles did your opponent report drawing? ",
            "catchKey": -1,
            "catchResponse": -1,
            "catchTime": 1680646942867,
            "trialTime": 0
        },
        {
            "exptPart": "trial",
            "trialNumber": 37,
            "roleCurrent": "receiver",
            "marblesSampled": 100,
            "probRed": 0.5,
            "lambda": 5,
            "drawnRed": 50,
            "reportedRed": 52,
            "inferredRed": 54,
            "playerTrialScore": -4,
            "oppTrialScore": 4,
            "playerTotalScore": -136,
            "oppTotalScore": -11,
            "waitTime": 6026.726371973411,
            "responseTime": 1680646990367,
            "catchQuestion": "How many <b class=\"r\">red<\/b> marbles did your opponent report drawing? ",
            "catchKey": -1,
            "catchResponse": -1,
            "catchTime": 1680646942867,
            "trialTime": 0
        },
        {
            "exptPart": "trial",
            "trialNumber": 38,
            "roleCurrent": "sender",
            "marblesSampled": 100,
            "probRed": 0.5,
            "lambda": 5,
            "drawnRed": 71,
            "reportedRed": 66,
            "inferredRed": 61,
            "playerTrialScore": 0,
            "oppTrialScore": -10,
            "playerTotalScore": -136,
            "oppTotalScore": -21,
            "waitTime": 2695.3527104278082,
            "responseTime": 1680647009341,
            "catchQuestion": "How many <b class=\"r\">red<\/b> marbles did your opponent report drawing? ",
            "catchKey": -1,
            "catchResponse": -1,
            "catchTime": 1680646942867,
            "trialTime": 0
        },
        {
            "exptPart": "trial",
            "trialNumber": 39,
            "roleCurrent": "receiver",
            "marblesSampled": 100,
            "probRed": 0.5,
            "lambda": 5,
            "drawnRed": 35,
            "reportedRed": 39,
            "inferredRed": 45,
            "playerTrialScore": -10,
            "oppTrialScore": 10,
            "playerTotalScore": -146,
            "oppTotalScore": -11,
            "waitTime": 6635.271957970131,
            "responseTime": 1680647022501,
            "catchQuestion": "How many <b class=\"r\">red<\/b> marbles did your opponent report drawing? ",
            "catchKey": -1,
            "catchResponse": -1,
            "catchTime": 1680646942867,
            "trialTime": 0
        },
        {
            "exptPart": "trial",
            "trialNumber": 40,
            "roleCurrent": "sender",
            "marblesSampled": 100,
            "probRed": 0.5,
            "lambda": 5,
            "drawnRed": 21,
            "reportedRed": 15,
            "inferredRed": 12,
            "playerTrialScore": 0,
            "oppTrialScore": -9,
            "playerTotalScore": -146,
            "oppTotalScore": -20,
            "waitTime": 2101.1176847956067,
            "responseTime": 1680647088352,
            "catchQuestion": "How many <b class=\"r\">red<\/b> marbles did your opponent report drawing? ",
            "catchKey": -1,
            "catchResponse": -1,
            "catchTime": 1680647088352,
            "trialTime": 0
        },
        {
            "exptPart": "trial",
            "trialNumber": 41,
            "roleCurrent": "receiver",
            "marblesSampled": 100,
            "probRed": 0.5,
            "lambda": 5,
            "drawnRed": 27,
            "reportedRed": 31,
            "inferredRed": 42,
            "playerTrialScore": -15,
            "oppTrialScore": 15,
            "playerTotalScore": -161,
            "oppTotalScore": -5,
            "waitTime": 5544.501783355025,
            "responseTime": 1680647106392,
            "catchQuestion": "How many <b class=\"r\">red<\/b> marbles did your opponent report drawing? ",
            "catchKey": -1,
            "catchResponse": -1,
            "catchTime": 1680647088352,
            "trialTime": 0
        },
        {
            "exptPart": "trial",
            "trialNumber": 42,
            "roleCurrent": "sender",
            "marblesSampled": 100,
            "probRed": 0.5,
            "lambda": 5,
            "drawnRed": 53,
            "reportedRed": 53,
            "inferredRed": 46,
            "playerTrialScore": 0,
            "oppTrialScore": -7,
            "playerTotalScore": -161,
            "oppTotalScore": -12,
            "waitTime": 3202.1219872942697,
            "responseTime": 1680647124855,
            "catchQuestion": "How many <b class=\"r\">red<\/b> marbles did your opponent report drawing? ",
            "catchKey": -1,
            "catchResponse": -1,
            "catchTime": 1680647088352,
            "trialTime": 0
        },
        {
            "exptPart": "trial",
            "trialNumber": 43,
            "roleCurrent": "receiver",
            "marblesSampled": 100,
            "probRed": 0.5,
            "lambda": 5,
            "drawnRed": 39,
            "reportedRed": 41,
            "inferredRed": 45,
            "playerTrialScore": -6,
            "oppTrialScore": 6,
            "playerTotalScore": -167,
            "oppTotalScore": -6,
            "waitTime": 5732.830761012958,
            "responseTime": 1680647142510,
            "catchQuestion": "How many <b class=\"r\">red<\/b> marbles did your opponent report drawing? ",
            "catchKey": -1,
            "catchResponse": -1,
            "catchTime": 1680647088352,
            "trialTime": 0
        },
        {
            "exptPart": "trial",
            "trialNumber": 44,
            "roleCurrent": "sender",
            "marblesSampled": 100,
            "probRed": 0.5,
            "lambda": 5,
            "drawnRed": 32,
            "reportedRed": 34,
            "inferredRed": 30,
            "playerTrialScore": 0,
            "oppTrialScore": -2,
            "playerTotalScore": -167,
            "oppTotalScore": -8,
            "waitTime": 2495.9177241388415,
            "responseTime": 1680647161807,
            "catchQuestion": "How many <b class=\"r\">red<\/b> marbles did your opponent report drawing? ",
            "catchKey": -1,
            "catchResponse": -1,
            "catchTime": 1680647088352,
            "trialTime": 0
        },
        {
            "exptPart": "trial",
            "trialNumber": 45,
            "roleCurrent": "receiver",
            "marblesSampled": 100,
            "probRed": 0.5,
            "lambda": 5,
            "drawnRed": 36,
            "reportedRed": 40,
            "inferredRed": 46,
            "playerTrialScore": -10,
            "oppTrialScore": 10,
            "playerTotalScore": -177,
            "oppTotalScore": 2,
            "waitTime": 6800.47093988666,
            "responseTime": 1680647178296,
            "catchQuestion": "How many <b class=\"r\">red<\/b> marbles did your opponent report drawing? ",
            "catchKey": 40,
            "catchResponse": 43,
            "catchTime": 1680647178296,
            "trialTime": 0
        },
        {
            "exptPart": "trial",
            "trialNumber": 46,
            "roleCurrent": "sender",
            "marblesSampled": 100,
            "probRed": 0.5,
            "lambda": 5,
            "drawnRed": 32,
            "reportedRed": 36,
            "inferredRed": 29,
            "playerTrialScore": 0,
            "oppTrialScore": -3,
            "playerTotalScore": -177,
            "oppTotalScore": -1,
            "waitTime": 3236.331161482463,
            "responseTime": 1680647215480,
            "catchQuestion": "How many <b class=\"r\">red<\/b> marbles did your opponent report drawing? ",
            "catchKey": -1,
            "catchResponse": -1,
            "catchTime": 1680647178296,
            "trialTime": 0
        },
        {
            "exptPart": "trial",
            "trialNumber": 47,
            "roleCurrent": "receiver",
            "marblesSampled": 100,
            "probRed": 0.5,
            "lambda": 5,
            "drawnRed": 65,
            "reportedRed": 68,
            "inferredRed": 74,
            "playerTrialScore": -9,
            "oppTrialScore": 9,
            "playerTotalScore": -186,
            "oppTotalScore": 8,
            "waitTime": 5644.391814202339,
            "responseTime": 1680647232136,
            "catchQuestion": "How many <b class=\"r\">red<\/b> marbles did your opponent report drawing? ",
            "catchKey": -1,
            "catchResponse": -1,
            "catchTime": 1680647178296,
            "trialTime": 0
        },
        {
            "exptPart": "trial",
            "trialNumber": 48,
            "roleCurrent": "sender",
            "marblesSampled": 100,
            "probRed": 0.5,
            "lambda": 5,
            "drawnRed": 78,
            "reportedRed": 68,
            "inferredRed": 64,
            "playerTrialScore": 0,
            "oppTrialScore": -14,
            "playerTotalScore": -186,
            "oppTotalScore": -6,
            "waitTime": 2114.3732911249326,
            "responseTime": 1680647283344,
            "catchQuestion": "How many <b class=\"r\">red<\/b> marbles did your opponent report drawing? ",
            "catchKey": -1,
            "catchResponse": -1,
            "catchTime": 1680647178296,
            "trialTime": 0
        },
        {
            "exptPart": "trial",
            "trialNumber": 49,
            "roleCurrent": "receiver",
            "marblesSampled": 100,
            "probRed": 0.5,
            "lambda": 5,
            "drawnRed": 50,
            "reportedRed": 54,
            "inferredRed": 58,
            "playerTrialScore": -8,
            "oppTrialScore": 8,
            "playerTotalScore": -194,
            "oppTotalScore": 2,
            "waitTime": 5352.725455685683,
            "responseTime": 1680647297349,
            "catchQuestion": "How many <b class=\"r\">red<\/b> marbles did your opponent report drawing? ",
            "catchKey": -1,
            "catchResponse": -1,
            "catchTime": 1680647178296,
            "trialTime": 0
        },
        {
            "exptPart": "trial",
            "trialNumber": 50,
            "roleCurrent": "sender",
            "marblesSampled": 100,
            "probRed": 0.5,
            "lambda": 5,
            "drawnRed": 36,
            "reportedRed": 31,
            "inferredRed": 26,
            "playerTrialScore": 0,
            "oppTrialScore": -10,
            "playerTotalScore": -194,
            "oppTotalScore": -8,
            "waitTime": 2513.3462776759216,
            "responseTime": 1680647331366,
            "catchQuestion": "How many <b class=\"r\">red<\/b> marbles did your opponent report drawing? ",
            "catchKey": -1,
            "catchResponse": -1,
            "catchTime": 1680647331366,
            "trialTime": 0
        },
        {
            "exptPart": "trial",
            "trialNumber": 51,
            "roleCurrent": "receiver",
            "marblesSampled": 100,
            "probRed": 0.5,
            "lambda": 5,
            "drawnRed": 42,
            "reportedRed": 45,
            "inferredRed": 47,
            "playerTrialScore": -5,
            "oppTrialScore": 5,
            "playerTotalScore": -199,
            "oppTotalScore": -3,
            "waitTime": 5576.500197312058,
            "responseTime": 1680647350243,
            "catchQuestion": "How many <b class=\"r\">red<\/b> marbles did your opponent report drawing? ",
            "catchKey": -1,
            "catchResponse": -1,
            "catchTime": 1680647331366,
            "trialTime": 0
        },
        {
            "exptPart": "trial",
            "trialNumber": 52,
            "roleCurrent": "sender",
            "marblesSampled": 100,
            "probRed": 0.5,
            "lambda": 5,
            "drawnRed": 26,
            "reportedRed": 25,
            "inferredRed": 17,
            "playerTrialScore": 0,
            "oppTrialScore": -9,
            "playerTotalScore": -199,
            "oppTotalScore": -12,
            "waitTime": 3032.3898157156545,
            "responseTime": 1680647386330,
            "catchQuestion": "How many <b class=\"r\">red<\/b> marbles did your opponent report drawing? ",
            "catchKey": -1,
            "catchResponse": -1,
            "catchTime": 1680647331366,
            "trialTime": 0
        },
        {
            "exptPart": "trial",
            "trialNumber": 53,
            "roleCurrent": "receiver",
            "marblesSampled": 100,
            "probRed": 0.5,
            "lambda": 5,
            "drawnRed": 79,
            "reportedRed": 83,
            "inferredRed": 87,
            "playerTrialScore": -8,
            "oppTrialScore": 8,
            "playerTotalScore": -207,
            "oppTotalScore": -4,
            "waitTime": 5155.677620359307,
            "responseTime": 1680647413440,
            "catchQuestion": "How many <b class=\"r\">red<\/b> marbles did your opponent report drawing? ",
            "catchKey": -1,
            "catchResponse": -1,
            "catchTime": 1680647331366,
            "trialTime": 0
        },
        {
            "exptPart": "trial",
            "trialNumber": 54,
            "roleCurrent": "sender",
            "marblesSampled": 100,
            "probRed": 0.5,
            "lambda": 5,
            "drawnRed": 83,
            "reportedRed": 74,
            "inferredRed": 66,
            "playerTrialScore": 0,
            "oppTrialScore": -17,
            "playerTotalScore": -207,
            "oppTotalScore": -21,
            "waitTime": 3123.651389681209,
            "responseTime": 1680647467396,
            "catchQuestion": "How many <b class=\"r\">red<\/b> marbles did your opponent report drawing? ",
            "catchKey": -1,
            "catchResponse": -1,
            "catchTime": 1680647331366,
            "trialTime": 0
        },
        {
            "exptPart": "trial",
            "trialNumber": 55,
            "roleCurrent": "receiver",
            "marblesSampled": 100,
            "probRed": 0.5,
            "lambda": 5,
            "drawnRed": 48,
            "reportedRed": 52,
            "inferredRed": 55,
            "playerTrialScore": -7,
            "oppTrialScore": 7,
            "playerTotalScore": -214,
            "oppTotalScore": -14,
            "waitTime": 5270.205288538861,
            "responseTime": 1680647488440,
            "catchQuestion": "How many <b class=\"r\">red<\/b> marbles did your opponent report drawing? ",
            "catchKey": -1,
            "catchResponse": -1,
            "catchTime": 1680647488440,
            "trialTime": 0
        },
        {
            "exptPart": "trial",
            "trialNumber": 56,
            "roleCurrent": "sender",
            "marblesSampled": 100,
            "probRed": 0.5,
            "lambda": 5,
            "drawnRed": 51,
            "reportedRed": 45,
            "inferredRed": 40,
            "playerTrialScore": 0,
            "oppTrialScore": -11,
            "playerTotalScore": -214,
            "oppTotalScore": -25,
            "waitTime": 2410.986610483864,
            "responseTime": 1680647517392,
            "catchQuestion": "How many <b class=\"r\">red<\/b> marbles did your opponent report drawing? ",
            "catchKey": -1,
            "catchResponse": -1,
            "catchTime": 1680647488440,
            "trialTime": 0
        },
        {
            "exptPart": "trial",
            "trialNumber": 57,
            "roleCurrent": "receiver",
            "marblesSampled": 100,
            "probRed": 0.5,
            "lambda": 5,
            "drawnRed": 46,
            "reportedRed": 49,
            "inferredRed": 54,
            "playerTrialScore": -8,
            "oppTrialScore": 8,
            "playerTotalScore": -222,
            "oppTotalScore": -17,
            "waitTime": 5275.459156948257,
            "responseTime": 1680647537744,
            "catchQuestion": "How many <b class=\"r\">red<\/b> marbles did your opponent report drawing? ",
            "catchKey": -1,
            "catchResponse": -1,
            "catchTime": 1680647488440,
            "trialTime": 0
        },
        {
            "exptPart": "trial",
            "trialNumber": 58,
            "roleCurrent": "sender",
            "marblesSampled": 100,
            "probRed": 0.5,
            "lambda": 5,
            "drawnRed": 34,
            "reportedRed": 29,
            "inferredRed": 21,
            "playerTrialScore": 0,
            "oppTrialScore": -13,
            "playerTotalScore": -222,
            "oppTotalScore": -30,
            "waitTime": 2400.0484659841454,
            "responseTime": 1680647560438,
            "catchQuestion": "How many <b class=\"r\">red<\/b> marbles did your opponent report drawing? ",
            "catchKey": -1,
            "catchResponse": -1,
            "catchTime": 1680647488440,
            "trialTime": 0
        },
        {
            "exptPart": "trial",
            "trialNumber": 59,
            "roleCurrent": "receiver",
            "marblesSampled": 100,
            "probRed": 0.5,
            "lambda": 5,
            "drawnRed": 81,
            "reportedRed": 88,
            "inferredRed": 92,
            "playerTrialScore": -11,
            "oppTrialScore": 11,
            "playerTotalScore": -233,
            "oppTotalScore": -19,
            "waitTime": 5540.387218798816,
            "responseTime": 1680647580337,
            "catchQuestion": "How many <b class=\"r\">red<\/b> marbles did your opponent report drawing? ",
            "catchKey": -1,
            "catchResponse": -1,
            "catchTime": 1680647488440,
            "trialTime": 0
        },
        {
            "exptPart": "trial",
            "trialNumber": 60,
            "roleCurrent": "sender",
            "marblesSampled": 100,
            "probRed": 0.5,
            "lambda": 5,
            "drawnRed": 32,
            "reportedRed": 31,
            "inferredRed": 25,
            "playerTrialScore": 0,
            "oppTrialScore": -7,
            "playerTotalScore": -233,
            "oppTotalScore": -26,
            "waitTime": 2070.8919004758154,
            "responseTime": 1680647607471,
            "catchQuestion": "How many <b class=\"r\">red<\/b> marbles did your opponent report drawing? ",
            "catchKey": -1,
            "catchResponse": -1,
            "catchTime": 1680647607471,
            "trialTime": 0
        },
        {
            "exptPart": "trial",
            "trialNumber": 61,
            "roleCurrent": "receiver",
            "marblesSampled": 100,
            "probRed": 0.5,
            "lambda": 5,
            "drawnRed": 38,
            "reportedRed": 49,
            "inferredRed": 53,
            "playerTrialScore": -15,
            "oppTrialScore": 15,
            "playerTotalScore": -248,
            "oppTotalScore": -11,
            "waitTime": 7338.3216050414985,
            "responseTime": 1680647624673,
            "catchQuestion": "How many <b class=\"r\">red<\/b> marbles did your opponent report drawing? ",
            "catchKey": -1,
            "catchResponse": -1,
            "catchTime": 1680647607471,
            "trialTime": 0
        },
        {
            "exptPart": "trial",
            "trialNumber": 62,
            "roleCurrent": "sender",
            "marblesSampled": 100,
            "probRed": 0.5,
            "lambda": 5,
            "drawnRed": 62,
            "reportedRed": 56,
            "inferredRed": 53,
            "playerTrialScore": 0,
            "oppTrialScore": -9,
            "playerTotalScore": -248,
            "oppTotalScore": -20,
            "waitTime": 2484.6881250329843,
            "responseTime": 1680647667750,
            "catchQuestion": "How many <b class=\"r\">red<\/b> marbles did your opponent report drawing? ",
            "catchKey": -1,
            "catchResponse": -1,
            "catchTime": 1680647607471,
            "trialTime": 0
        },
        {
            "exptPart": "trial",
            "trialNumber": 63,
            "roleCurrent": "receiver",
            "marblesSampled": 100,
            "probRed": 0.5,
            "lambda": 5,
            "drawnRed": 65,
            "reportedRed": 72,
            "inferredRed": 76,
            "playerTrialScore": -11,
            "oppTrialScore": 11,
            "playerTotalScore": -259,
            "oppTotalScore": -9,
            "waitTime": 6097.713671296294,
            "responseTime": 1680647680413,
            "catchQuestion": "How many <b class=\"r\">red<\/b> marbles did your opponent report drawing? ",
            "catchKey": -1,
            "catchResponse": -1,
            "catchTime": 1680647607471,
            "trialTime": 0
        },
        {
            "exptPart": "trial",
            "trialNumber": 64,
            "roleCurrent": "sender",
            "marblesSampled": 100,
            "probRed": 0.5,
            "lambda": 5,
            "drawnRed": 56,
            "reportedRed": 39,
            "inferredRed": 35,
            "playerTrialScore": 0,
            "oppTrialScore": -21,
            "playerTotalScore": -259,
            "oppTotalScore": -30,
            "waitTime": 2908.4102141802614,
            "responseTime": 1680647779608,
            "catchQuestion": "How many <b class=\"r\">red<\/b> marbles did your opponent report drawing? ",
            "catchKey": -1,
            "catchResponse": -1,
            "catchTime": 1680647607471,
            "trialTime": 0
        },
        {
            "exptPart": "trial",
            "trialNumber": 65,
            "roleCurrent": "receiver",
            "marblesSampled": 100,
            "probRed": 0.5,
            "lambda": 5,
            "drawnRed": 26,
            "reportedRed": 29,
            "inferredRed": 35,
            "playerTrialScore": -9,
            "oppTrialScore": 9,
            "playerTotalScore": -268,
            "oppTotalScore": -21,
            "waitTime": 7064.062349723005,
            "responseTime": 1680647792637,
            "catchQuestion": "How many <b class=\"r\">red<\/b> marbles did your opponent report drawing? ",
            "catchKey": -1,
            "catchResponse": -1,
            "catchTime": 1680647792638,
            "trialTime": 0
        },
        {
            "exptPart": "trial",
            "trialNumber": 66,
            "roleCurrent": "sender",
            "marblesSampled": 100,
            "probRed": 0.5,
            "lambda": 5,
            "drawnRed": 60,
            "reportedRed": 59,
            "inferredRed": 55,
            "playerTrialScore": 0,
            "oppTrialScore": -5,
            "playerTotalScore": -268,
            "oppTotalScore": -26,
            "waitTime": 2499.423445782708,
            "responseTime": 1680647813227,
            "catchQuestion": "How many <b class=\"r\">red<\/b> marbles did your opponent report drawing? ",
            "catchKey": -1,
            "catchResponse": -1,
            "catchTime": 1680647792638,
            "trialTime": 0
        },
        {
            "exptPart": "trial",
            "trialNumber": 67,
            "roleCurrent": "receiver",
            "marblesSampled": 100,
            "probRed": 0.5,
            "lambda": 5,
            "drawnRed": 79,
            "reportedRed": 83,
            "inferredRed": 86,
            "playerTrialScore": -7,
            "oppTrialScore": 7,
            "playerTotalScore": -275,
            "oppTotalScore": -19,
            "waitTime": 7246.083543771988,
            "responseTime": 1680647827749,
            "catchQuestion": "How many <b class=\"r\">red<\/b> marbles did your opponent report drawing? ",
            "catchKey": 83,
            "catchResponse": 83,
            "catchTime": 1680647827749,
            "trialTime": 0
        },
        {
            "exptPart": "trial",
            "trialNumber": 68,
            "roleCurrent": "sender",
            "marblesSampled": 100,
            "probRed": 0.5,
            "lambda": 5,
            "drawnRed": 67,
            "reportedRed": 63,
            "inferredRed": 61,
            "playerTrialScore": 0,
            "oppTrialScore": -6,
            "playerTotalScore": -275,
            "oppTotalScore": -25,
            "waitTime": 2552.153990937612,
            "responseTime": 1680647861256,
            "catchQuestion": "How many <b class=\"r\">red<\/b> marbles did your opponent report drawing? ",
            "catchKey": -1,
            "catchResponse": -1,
            "catchTime": 1680647827749,
            "trialTime": 0
        },
        {
            "exptPart": "trial",
            "trialNumber": 69,
            "roleCurrent": "receiver",
            "marblesSampled": 100,
            "probRed": 0.5,
            "lambda": 5,
            "drawnRed": 34,
            "reportedRed": 40,
            "inferredRed": 42,
            "playerTrialScore": -8,
            "oppTrialScore": 8,
            "playerTotalScore": -283,
            "oppTotalScore": -17,
            "waitTime": 5159.074647260275,
            "responseTime": 1680647877417,
            "catchQuestion": "How many <b class=\"r\">red<\/b> marbles did your opponent report drawing? ",
            "catchKey": -1,
            "catchResponse": -1,
            "catchTime": 1680647827749,
            "trialTime": 0
        },
        {
            "exptPart": "trial",
            "trialNumber": 70,
            "roleCurrent": "sender",
            "marblesSampled": 100,
            "probRed": 0.5,
            "lambda": 5,
            "drawnRed": 39,
            "reportedRed": 36,
            "inferredRed": 26,
            "playerTrialScore": 0,
            "oppTrialScore": -13,
            "playerTotalScore": -283,
            "oppTotalScore": -30,
            "waitTime": 2525.5083101808614,
            "responseTime": 1680647896914,
            "catchQuestion": "How many <b class=\"r\">red<\/b> marbles did your opponent report drawing? ",
            "catchKey": -1,
            "catchResponse": -1,
            "catchTime": 1680647896914,
            "trialTime": 0
        },
        {
            "exptPart": "trial",
            "trialNumber": 71,
            "roleCurrent": "receiver",
            "marblesSampled": 100,
            "probRed": 0.5,
            "lambda": 5,
            "drawnRed": 42,
            "reportedRed": 47,
            "inferredRed": 50,
            "playerTrialScore": -8,
            "oppTrialScore": 8,
            "playerTotalScore": -291,
            "oppTotalScore": -22,
            "waitTime": 5134.651426247955,
            "responseTime": 1680647910664,
            "catchQuestion": "How many <b class=\"r\">red<\/b> marbles did your opponent report drawing? ",
            "catchKey": -1,
            "catchResponse": -1,
            "catchTime": 1680647896914,
            "trialTime": 0
        },
        {
            "exptPart": "trial",
            "trialNumber": 72,
            "roleCurrent": "sender",
            "marblesSampled": 100,
            "probRed": 0.5,
            "lambda": 5,
            "drawnRed": 28,
            "reportedRed": 25,
            "inferredRed": 19,
            "playerTrialScore": 0,
            "oppTrialScore": -9,
            "playerTotalScore": -291,
            "oppTotalScore": -31,
            "waitTime": 2703.8610399904323,
            "responseTime": 1680647933290,
            "catchQuestion": "How many <b class=\"r\">red<\/b> marbles did your opponent report drawing? ",
            "catchKey": -1,
            "catchResponse": -1,
            "catchTime": 1680647896914,
            "trialTime": 0
        },
        {
            "exptPart": "trial",
            "trialNumber": 73,
            "roleCurrent": "receiver",
            "marblesSampled": 100,
            "probRed": 0.5,
            "lambda": 5,
            "drawnRed": 20,
            "reportedRed": 26,
            "inferredRed": 28,
            "playerTrialScore": -8,
            "oppTrialScore": 8,
            "playerTotalScore": -299,
            "oppTotalScore": -23,
            "waitTime": 6367.2306635603,
            "responseTime": 1680647945288,
            "catchQuestion": "How many <b class=\"r\">red<\/b> marbles did your opponent report drawing? ",
            "catchKey": -1,
            "catchResponse": -1,
            "catchTime": 1680647896914,
            "trialTime": 0
        },
        {
            "exptPart": "trial",
            "trialNumber": 74,
            "roleCurrent": "sender",
            "marblesSampled": 100,
            "probRed": 0.5,
            "lambda": 5,
            "drawnRed": 43,
            "reportedRed": 38,
            "inferredRed": 36,
            "playerTrialScore": 0,
            "oppTrialScore": -7,
            "playerTotalScore": -299,
            "oppTotalScore": -30,
            "waitTime": 2078.3024715069805,
            "responseTime": 1680647989879,
            "catchQuestion": "How many <b class=\"r\">red<\/b> marbles did your opponent report drawing? ",
            "catchKey": -1,
            "catchResponse": -1,
            "catchTime": 1680647896914,
            "trialTime": 0
        },
        {
            "exptPart": "trial",
            "trialNumber": 75,
            "roleCurrent": "receiver",
            "marblesSampled": 100,
            "probRed": 0.5,
            "lambda": 5,
            "drawnRed": 25,
            "reportedRed": 29,
            "inferredRed": 32,
            "playerTrialScore": -7,
            "oppTrialScore": 7,
            "playerTotalScore": -306,
            "oppTotalScore": -23,
            "waitTime": 5159.408933967763,
            "responseTime": 1680648002668,
            "catchQuestion": "How many <b class=\"r\">red<\/b> marbles did your opponent report drawing? ",
            "catchKey": 29,
            "catchResponse": 29,
            "catchTime": 1680648002668,
            "trialTime": 0
        },
        {
            "exptPart": "trial",
            "trialNumber": 76,
            "roleCurrent": "sender",
            "marblesSampled": 100,
            "probRed": 0.5,
            "lambda": 5,
            "drawnRed": 61,
            "reportedRed": 61,
            "inferredRed": 55,
            "playerTrialScore": 0,
            "oppTrialScore": -6,
            "playerTotalScore": -306,
            "oppTotalScore": -29,
            "waitTime": 2102.1432943524114,
            "responseTime": 1680648026815,
            "catchQuestion": "How many <b class=\"r\">red<\/b> marbles did your opponent report drawing? ",
            "catchKey": -1,
            "catchResponse": -1,
            "catchTime": 1680648002668,
            "trialTime": 0
        },
        {
            "exptPart": "trial",
            "trialNumber": 77,
            "roleCurrent": "receiver",
            "marblesSampled": 100,
            "probRed": 0.5,
            "lambda": 5,
            "drawnRed": 65,
            "reportedRed": 68,
            "inferredRed": 68,
            "playerTrialScore": -3,
            "oppTrialScore": 3,
            "playerTotalScore": -309,
            "oppTotalScore": -26,
            "waitTime": 5209.1934631127315,
            "responseTime": 1680648039071,
            "catchQuestion": "How many <b class=\"r\">red<\/b> marbles did your opponent report drawing? ",
            "catchKey": -1,
            "catchResponse": -1,
            "catchTime": 1680648002668,
            "trialTime": 0
        },
        {
            "exptPart": "trial",
            "trialNumber": 78,
            "roleCurrent": "sender",
            "marblesSampled": 100,
            "probRed": 0.5,
            "lambda": 5,
            "drawnRed": 75,
            "reportedRed": 69,
            "inferredRed": 61,
            "playerTrialScore": 0,
            "oppTrialScore": -14,
            "playerTotalScore": -309,
            "oppTotalScore": -40,
            "waitTime": 2584.851226120648,
            "responseTime": 1680648062587,
            "catchQuestion": "How many <b class=\"r\">red<\/b> marbles did your opponent report drawing? ",
            "catchKey": -1,
            "catchResponse": -1,
            "catchTime": 1680648002668,
            "trialTime": 0
        },
        {
            "exptPart": "trial",
            "trialNumber": 79,
            "roleCurrent": "receiver",
            "marblesSampled": 100,
            "probRed": 0.5,
            "lambda": 5,
            "drawnRed": 48,
            "reportedRed": 54,
            "inferredRed": 59,
            "playerTrialScore": -11,
            "oppTrialScore": 11,
            "playerTotalScore": -320,
            "oppTotalScore": -29,
            "waitTime": 5535.833788203192,
            "responseTime": 1680648074387,
            "catchQuestion": "How many <b class=\"r\">red<\/b> marbles did your opponent report drawing? ",
            "catchKey": -1,
            "catchResponse": -1,
            "catchTime": 1680648002668,
            "trialTime": 0
        },
        {
            "exptPart": "trial",
            "trialNumber": 80,
            "roleCurrent": "sender",
            "marblesSampled": 100,
            "probRed": 0.5,
            "lambda": 5,
            "drawnRed": 40,
            "reportedRed": 34,
            "inferredRed": 31,
            "playerTrialScore": 0,
            "oppTrialScore": -9,
            "playerTotalScore": -320,
            "oppTotalScore": -38,
            "waitTime": 2705.3170147147525,
            "responseTime": 1680648104068,
            "catchQuestion": "How many <b class=\"r\">red<\/b> marbles did you actually draw (before any changes)? ",
            "catchKey": 40,
            "catchResponse": 46,
            "catchTime": 1680648104068,
            "trialTime": 0
        },
        {
            "exptPart": "trial",
            "trialNumber": 81,
            "roleCurrent": "receiver",
            "marblesSampled": 100,
            "probRed": 0.5,
            "lambda": 5,
            "drawnRed": 66,
            "reportedRed": 71,
            "inferredRed": 74,
            "playerTrialScore": -8,
            "oppTrialScore": 8,
            "playerTotalScore": -328,
            "oppTotalScore": -30,
            "waitTime": 6102.638015044968,
            "responseTime": 1680648145224,
            "catchQuestion": "How many <b class=\"r\">red<\/b> marbles did you actually draw (before any changes)? ",
            "catchKey": -1,
            "catchResponse": -1,
            "catchTime": 1680648104068,
            "trialTime": 0
        },
        {
            "exptPart": "trial",
            "trialNumber": 82,
            "roleCurrent": "sender",
            "marblesSampled": 100,
            "probRed": 0.5,
            "lambda": 5,
            "drawnRed": 49,
            "reportedRed": 47,
            "inferredRed": 41,
            "playerTrialScore": 0,
            "oppTrialScore": -8,
            "playerTotalScore": -328,
            "oppTotalScore": -38,
            "waitTime": 2359.3576555056243,
            "responseTime": 1680648167121,
            "catchQuestion": "How many <b class=\"r\">red<\/b> marbles did you actually draw (before any changes)? ",
            "catchKey": -1,
            "catchResponse": -1,
            "catchTime": 1680648104068,
            "trialTime": 0
        },
        {
            "exptPart": "trial",
            "trialNumber": 83,
            "roleCurrent": "receiver",
            "marblesSampled": 100,
            "probRed": 0.5,
            "lambda": 5,
            "drawnRed": 45,
            "reportedRed": 45,
            "inferredRed": 47,
            "playerTrialScore": -2,
            "oppTrialScore": 2,
            "playerTotalScore": -330,
            "oppTotalScore": -36,
            "waitTime": 7087.035417031047,
            "responseTime": 1680648184992,
            "catchQuestion": "How many <b class=\"r\">red<\/b> marbles did your opponent report drawing? ",
            "catchKey": 45,
            "catchResponse": 45,
            "catchTime": 1680648184992,
            "trialTime": 0
        },
        {
            "exptPart": "trial",
            "trialNumber": 84,
            "roleCurrent": "sender",
            "marblesSampled": 100,
            "probRed": 0.5,
            "lambda": 5,
            "drawnRed": 45,
            "reportedRed": 42,
            "inferredRed": 37,
            "playerTrialScore": 0,
            "oppTrialScore": -8,
            "playerTotalScore": -330,
            "oppTotalScore": -44,
            "waitTime": 2309.704997238075,
            "responseTime": 1680648266856,
            "catchQuestion": "How many <b class=\"r\">red<\/b> marbles did your opponent report drawing? ",
            "catchKey": -1,
            "catchResponse": -1,
            "catchTime": 1680648184992,
            "trialTime": 0
        },
        {
            "exptPart": "trial",
            "trialNumber": 85,
            "roleCurrent": "receiver",
            "marblesSampled": 100,
            "probRed": 0.5,
            "lambda": 5,
            "drawnRed": 47,
            "reportedRed": 55,
            "inferredRed": 62,
            "playerTrialScore": -15,
            "oppTrialScore": 15,
            "playerTotalScore": -345,
            "oppTotalScore": -29,
            "waitTime": 5781.565669316509,
            "responseTime": 1680648287523,
            "catchQuestion": "How many <b class=\"r\">red<\/b> marbles did your opponent report drawing? ",
            "catchKey": -1,
            "catchResponse": -1,
            "catchTime": 1680648287523,
            "trialTime": 0
        },
        {
            "exptPart": "trial",
            "trialNumber": 86,
            "roleCurrent": "sender",
            "marblesSampled": 100,
            "probRed": 0.5,
            "lambda": 5,
            "drawnRed": 55,
            "reportedRed": 49,
            "inferredRed": 48,
            "playerTrialScore": 0,
            "oppTrialScore": -7,
            "playerTotalScore": -345,
            "oppTotalScore": -36,
            "waitTime": 2904.080847513849,
            "responseTime": 1680648326833,
            "catchQuestion": "How many <b class=\"r\">red<\/b> marbles did your opponent report drawing? ",
            "catchKey": -1,
            "catchResponse": -1,
            "catchTime": 1680648287523,
            "trialTime": 0
        },
        {
            "exptPart": "trial",
            "trialNumber": 87,
            "roleCurrent": "receiver",
            "marblesSampled": 100,
            "probRed": 0.5,
            "lambda": 5,
            "drawnRed": 13,
            "reportedRed": 17,
            "inferredRed": 25,
            "playerTrialScore": -12,
            "oppTrialScore": 12,
            "playerTotalScore": -357,
            "oppTotalScore": -24,
            "waitTime": 7259.501532535155,
            "responseTime": 1680648341774,
            "catchQuestion": "How many <b class=\"r\">red<\/b> marbles did your opponent report drawing? ",
            "catchKey": -1,
            "catchResponse": -1,
            "catchTime": 1680648287523,
            "trialTime": 0
        },
        {
            "exptPart": "trial",
            "trialNumber": 88,
            "roleCurrent": "sender",
            "marblesSampled": 100,
            "probRed": 0.5,
            "lambda": 5,
            "drawnRed": 53,
            "reportedRed": 44,
            "inferredRed": 41,
            "playerTrialScore": 0,
            "oppTrialScore": -12,
            "playerTotalScore": -357,
            "oppTotalScore": -36,
            "waitTime": 2621.351604096823,
            "responseTime": 1680648376305,
            "catchQuestion": "How many <b class=\"r\">red<\/b> marbles did your opponent report drawing? ",
            "catchKey": -1,
            "catchResponse": -1,
            "catchTime": 1680648287523,
            "trialTime": 0
        },
        {
            "exptPart": "trial",
            "trialNumber": 89,
            "roleCurrent": "receiver",
            "marblesSampled": 100,
            "probRed": 0.5,
            "lambda": 5,
            "drawnRed": 62,
            "reportedRed": 66,
            "inferredRed": 70,
            "playerTrialScore": -8,
            "oppTrialScore": 8,
            "playerTotalScore": -365,
            "oppTotalScore": -28,
            "waitTime": 5466.274239151635,
            "responseTime": 1680648394149,
            "catchQuestion": "How many <b class=\"r\">red<\/b> marbles did your opponent report drawing? ",
            "catchKey": -1,
            "catchResponse": -1,
            "catchTime": 1680648287523,
            "trialTime": 0
        },
        {
            "exptPart": "trial",
            "trialNumber": 90,
            "roleCurrent": "sender",
            "marblesSampled": 100,
            "probRed": 0.5,
            "lambda": 5,
            "drawnRed": 74,
            "reportedRed": 67,
            "inferredRed": 60,
            "playerTrialScore": 0,
            "oppTrialScore": -14,
            "playerTotalScore": -365,
            "oppTotalScore": -42,
            "waitTime": 2412.7249117404135,
            "responseTime": 1680648426234,
            "catchQuestion": "How many <b class=\"r\">red<\/b> marbles did your opponent report drawing? ",
            "catchKey": -1,
            "catchResponse": -1,
            "catchTime": 1680648426234,
            "trialTime": 0
        },
        {
            "exptPart": "trial",
            "trialNumber": 91,
            "roleCurrent": "receiver",
            "marblesSampled": 100,
            "probRed": 0.5,
            "lambda": 5,
            "drawnRed": 71,
            "reportedRed": 79,
            "inferredRed": 82,
            "playerTrialScore": -11,
            "oppTrialScore": 11,
            "playerTotalScore": -376,
            "oppTotalScore": -31,
            "waitTime": 5914.526932446001,
            "responseTime": 1680648444586,
            "catchQuestion": "How many <b class=\"r\">red<\/b> marbles did your opponent report drawing? ",
            "catchKey": -1,
            "catchResponse": -1,
            "catchTime": 1680648426234,
            "trialTime": 0
        },
        {
            "exptPart": "trial",
            "trialNumber": 92,
            "roleCurrent": "sender",
            "marblesSampled": 100,
            "probRed": 0.5,
            "lambda": 5,
            "drawnRed": 81,
            "reportedRed": 80,
            "inferredRed": 79,
            "playerTrialScore": 0,
            "oppTrialScore": -2,
            "playerTotalScore": -376,
            "oppTotalScore": -33,
            "waitTime": 2703.7104679620825,
            "responseTime": 1680648464279,
            "catchQuestion": "How many <b class=\"r\">red<\/b> marbles did your opponent report drawing? ",
            "catchKey": -1,
            "catchResponse": -1,
            "catchTime": 1680648426234,
            "trialTime": 0
        },
        {
            "exptPart": "trial",
            "trialNumber": 93,
            "roleCurrent": "receiver",
            "marblesSampled": 100,
            "probRed": 0.5,
            "lambda": 5,
            "drawnRed": 19,
            "reportedRed": 23,
            "inferredRed": 27,
            "playerTrialScore": -8,
            "oppTrialScore": 8,
            "playerTotalScore": -384,
            "oppTotalScore": -25,
            "waitTime": 7017.167645934736,
            "responseTime": 1680648478224,
            "catchQuestion": "How many <b class=\"r\">red<\/b> marbles did your opponent report drawing? ",
            "catchKey": -1,
            "catchResponse": -1,
            "catchTime": 1680648426234,
            "trialTime": 0
        },
        {
            "exptPart": "trial",
            "trialNumber": 94,
            "roleCurrent": "sender",
            "marblesSampled": 100,
            "probRed": 0.5,
            "lambda": 5,
            "drawnRed": 81,
            "reportedRed": 78,
            "inferredRed": 72,
            "playerTrialScore": 0,
            "oppTrialScore": -9,
            "playerTotalScore": -384,
            "oppTotalScore": -34,
            "waitTime": 2789.0615834998553,
            "responseTime": 1680648495578,
            "catchQuestion": "How many <b class=\"r\">red<\/b> marbles did your opponent report drawing? ",
            "catchKey": -1,
            "catchResponse": -1,
            "catchTime": 1680648426234,
            "trialTime": 0
        },
        {
            "exptPart": "trial",
            "trialNumber": 95,
            "roleCurrent": "receiver",
            "marblesSampled": 100,
            "probRed": 0.5,
            "lambda": 5,
            "drawnRed": 28,
            "reportedRed": 31,
            "inferredRed": 36,
            "playerTrialScore": -8,
            "oppTrialScore": 8,
            "playerTotalScore": -392,
            "oppTotalScore": -26,
            "waitTime": 5167.781618227331,
            "responseTime": 1680648507450,
            "catchQuestion": "How many <b class=\"r\">red<\/b> marbles did your opponent report drawing? ",
            "catchKey": -1,
            "catchResponse": -1,
            "catchTime": 1680648507450,
            "trialTime": 0
        },
        {
            "exptPart": "trial",
            "trialNumber": 96,
            "roleCurrent": "sender",
            "marblesSampled": 100,
            "probRed": 0.5,
            "lambda": 5,
            "drawnRed": 24,
            "reportedRed": 26,
            "inferredRed": 20,
            "playerTrialScore": 0,
            "oppTrialScore": -4,
            "playerTotalScore": -392,
            "oppTotalScore": -30,
            "waitTime": 3249.178012003439,
            "responseTime": 1680648521850,
            "catchQuestion": "How many <b class=\"r\">red<\/b> marbles did your opponent report drawing? ",
            "catchKey": -1,
            "catchResponse": -1,
            "catchTime": 1680648507450,
            "trialTime": 0
        },
        {
            "exptPart": "trial",
            "trialNumber": 97,
            "roleCurrent": "receiver",
            "marblesSampled": 100,
            "probRed": 0.5,
            "lambda": 5,
            "drawnRed": 58,
            "reportedRed": 63,
            "inferredRed": 65,
            "playerTrialScore": -7,
            "oppTrialScore": 7,
            "playerTotalScore": -399,
            "oppTotalScore": -23,
            "waitTime": 6464.572727304196,
            "responseTime": 1680648540905,
            "catchQuestion": "How many <b class=\"r\">red<\/b> marbles did your opponent report drawing? ",
            "catchKey": -1,
            "catchResponse": -1,
            "catchTime": 1680648507450,
            "trialTime": 0
        },
        {
            "exptPart": "trial",
            "trialNumber": 98,
            "roleCurrent": "sender",
            "marblesSampled": 100,
            "probRed": 0.5,
            "lambda": 5,
            "drawnRed": 52,
            "reportedRed": 49,
            "inferredRed": 47,
            "playerTrialScore": 0,
            "oppTrialScore": -5,
            "playerTotalScore": -399,
            "oppTotalScore": -28,
            "waitTime": 2950.665943321638,
            "responseTime": 1680648556992,
            "catchQuestion": "How many <b class=\"r\">red<\/b> marbles did you actually draw (before any changes)? ",
            "catchKey": 52,
            "catchResponse": 52,
            "catchTime": 1680648556992,
            "trialTime": 0
        },
        {
            "exptPart": "trial",
            "trialNumber": 99,
            "roleCurrent": "receiver",
            "marblesSampled": 100,
            "probRed": 0.5,
            "lambda": 5,
            "drawnRed": 57,
            "reportedRed": 62,
            "inferredRed": 66,
            "playerTrialScore": -9,
            "oppTrialScore": 9,
            "playerTotalScore": -408,
            "oppTotalScore": -19,
            "waitTime": 7244.660610787285,
            "responseTime": 1680648583192,
            "catchQuestion": "How many <b class=\"r\">red<\/b> marbles did your opponent report drawing? ",
            "catchKey": 62,
            "catchResponse": 62,
            "catchTime": 1680648583193,
            "trialTime": 0
        },
        {
            "exptPart": "trial",
            "trialNumber": 100,
            "roleCurrent": "sender",
            "marblesSampled": 100,
            "probRed": 0.5,
            "lambda": 5,
            "drawnRed": 77,
            "reportedRed": 74,
            "inferredRed": 66,
            "playerTrialScore": 0,
            "oppTrialScore": -11,
            "playerTotalScore": -408,
            "oppTotalScore": -30,
            "waitTime": 2304.420192656119,
            "responseTime": 1680648604184,
            "catchQuestion": "How many <b class=\"r\">red<\/b> marbles did your opponent report drawing? ",
            "catchKey": -1,
            "catchResponse": -1,
            "catchTime": 1680648604184,
            "trialTime": 0
        }
    ]
}