{
    "client": {
        "type": "sona",
        "experiment_id": 2228,
        "credit_token": "b315147ae43241ea9c65086cb510cfb7",
        "survey_code": "33058",
        "sid": "sona-33058",
        "window": {
            "width": 1158,
            "height": 706
        },
        "screen": {
            "width": 1440,
            "height": 900
        },
        "userAgent": "Mozilla\/5.0 (Macintosh; Intel Mac OS X 10_15_7) AppleWebKit\/537.36 (KHTML, like Gecko) Chrome\/111.0.0.0 Safari\/537.36",
        "score": 0,
        "bonus": 0
    },
    "expt": {
        "saveURL": "submit.simple.php",
        "trials": 100,
        "practiceTrials": 2,
        "marblesSampled": 100,
        "probRed": 0.5,
        "lambdaAI": 5,
        "roleFirst": "receiver",
        "roles": [
            "sender",
            "receiver"
        ],
        "cost": "unif",
        "goal": "over",
        "goalInstructTxt": "below",
        "catchTrials": [
            71,
            83,
            85,
            25,
            44,
            84,
            38,
            28,
            95,
            88
        ],
        "scoreTotal": {
            "player": -103,
            "opp": -489
        },
        "sona": {
            "experiment_id": 2228,
            "credit_token": "b315147ae43241ea9c65086cb510cfb7"
        },
        "pilot": false,
        "debug": false
    },
    "trials": [
        {
            "exptPart": "practice",
            "trialNumber": 1,
            "roleCurrent": "sender",
            "marblesSampled": 100,
            "probRed": 0.5,
            "lambda": 5,
            "drawnRed": 18,
            "reportedRed": 23,
            "inferredRed": 20,
            "playerTrialScore": 2,
            "oppTrialScore": -2,
            "playerTotalScore": 2,
            "oppTotalScore": -2,
            "waitTime": 2667.7034123809863,
            "responseTime": 1678835434675,
            "catchQuestion": "How many <b class=\"r\">red<\/b> marbles did you actually draw (before any changes)? ",
            "catchKey": 18,
            "catchResponse": 18,
            "catchTime": 1678835434675,
            "trialTime": 0
        },
        {
            "exptPart": "practice",
            "trialNumber": 2,
            "roleCurrent": "receiver",
            "marblesSampled": 100,
            "probRed": 0.5,
            "lambda": 5,
            "drawnRed": 88,
            "reportedRed": 92,
            "inferredRed": 90,
            "playerTrialScore": -2,
            "oppTrialScore": 2,
            "playerTotalScore": 0,
            "oppTotalScore": 0,
            "waitTime": 5872.711135496449,
            "responseTime": 1678835467890,
            "catchQuestion": "How many <b class=\"r\">red<\/b> marbles did your opponent report drawing? ",
            "catchKey": 92,
            "catchResponse": 92,
            "catchTime": 1678835467890,
            "trialTime": 0
        },
        {
            "exptPart": "trial",
            "trialNumber": 1,
            "roleCurrent": "receiver",
            "marblesSampled": 100,
            "probRed": 0.5,
            "lambda": 5,
            "drawnRed": 48,
            "reportedRed": 55,
            "inferredRed": 50,
            "playerTrialScore": -2,
            "oppTrialScore": 2,
            "playerTotalScore": -2,
            "oppTotalScore": 2,
            "waitTime": 7209.081679880068,
            "responseTime": 1678835491609,
            "catchQuestion": "How many <b class=\"r\">red<\/b> marbles did your opponent report drawing? ",
            "catchKey": -1,
            "catchResponse": -1,
            "catchTime": 1678835467890,
            "trialTime": 0
        },
        {
            "exptPart": "trial",
            "trialNumber": 2,
            "roleCurrent": "sender",
            "marblesSampled": 100,
            "probRed": 0.5,
            "lambda": 5,
            "drawnRed": 35,
            "reportedRed": 35,
            "inferredRed": 31,
            "playerTrialScore": 0,
            "oppTrialScore": -4,
            "playerTotalScore": -2,
            "oppTotalScore": -2,
            "waitTime": 2318.722864245002,
            "responseTime": 1678835506588,
            "catchQuestion": "How many <b class=\"r\">red<\/b> marbles did your opponent report drawing? ",
            "catchKey": -1,
            "catchResponse": -1,
            "catchTime": 1678835467890,
            "trialTime": 0
        },
        {
            "exptPart": "trial",
            "trialNumber": 3,
            "roleCurrent": "receiver",
            "marblesSampled": 100,
            "probRed": 0.5,
            "lambda": 5,
            "drawnRed": 70,
            "reportedRed": 76,
            "inferredRed": 75,
            "playerTrialScore": -5,
            "oppTrialScore": 5,
            "playerTotalScore": -7,
            "oppTotalScore": 3,
            "waitTime": 7052.547602615572,
            "responseTime": 1678835517073,
            "catchQuestion": "How many <b class=\"r\">red<\/b> marbles did your opponent report drawing? ",
            "catchKey": -1,
            "catchResponse": -1,
            "catchTime": 1678835467890,
            "trialTime": 0
        },
        {
            "exptPart": "trial",
            "trialNumber": 4,
            "roleCurrent": "sender",
            "marblesSampled": 100,
            "probRed": 0.5,
            "lambda": 5,
            "drawnRed": 41,
            "reportedRed": 51,
            "inferredRed": 43,
            "playerTrialScore": 2,
            "oppTrialScore": -2,
            "playerTotalScore": -5,
            "oppTotalScore": 1,
            "waitTime": 2622.337464445449,
            "responseTime": 1678835538058,
            "catchQuestion": "How many <b class=\"r\">red<\/b> marbles did your opponent report drawing? ",
            "catchKey": -1,
            "catchResponse": -1,
            "catchTime": 1678835467890,
            "trialTime": 0
        },
        {
            "exptPart": "trial",
            "trialNumber": 5,
            "roleCurrent": "receiver",
            "marblesSampled": 100,
            "probRed": 0.5,
            "lambda": 5,
            "drawnRed": 89,
            "reportedRed": 96,
            "inferredRed": 90,
            "playerTrialScore": -1,
            "oppTrialScore": 1,
            "playerTotalScore": -6,
            "oppTotalScore": 2,
            "waitTime": 7309.284297899053,
            "responseTime": 1678835569884,
            "catchQuestion": "How many <b class=\"r\">red<\/b> marbles did your opponent report drawing? ",
            "catchKey": -1,
            "catchResponse": -1,
            "catchTime": 1678835569884,
            "trialTime": 0
        },
        {
            "exptPart": "trial",
            "trialNumber": 6,
            "roleCurrent": "sender",
            "marblesSampled": 100,
            "probRed": 0.5,
            "lambda": 5,
            "drawnRed": 46,
            "reportedRed": 48,
            "inferredRed": 42,
            "playerTrialScore": 0,
            "oppTrialScore": -4,
            "playerTotalScore": -6,
            "oppTotalScore": -2,
            "waitTime": 2379.3842490655934,
            "responseTime": 1678835584615,
            "catchQuestion": "How many <b class=\"r\">red<\/b> marbles did your opponent report drawing? ",
            "catchKey": -1,
            "catchResponse": -1,
            "catchTime": 1678835569884,
            "trialTime": 0
        },
        {
            "exptPart": "trial",
            "trialNumber": 7,
            "roleCurrent": "receiver",
            "marblesSampled": 100,
            "probRed": 0.5,
            "lambda": 5,
            "drawnRed": 47,
            "reportedRed": 48,
            "inferredRed": 46,
            "playerTrialScore": -1,
            "oppTrialScore": 0,
            "playerTotalScore": -7,
            "oppTotalScore": -2,
            "waitTime": 5951.4130866974865,
            "responseTime": 1678835603344,
            "catchQuestion": "How many <b class=\"r\">red<\/b> marbles did your opponent report drawing? ",
            "catchKey": -1,
            "catchResponse": -1,
            "catchTime": 1678835569884,
            "trialTime": 0
        },
        {
            "exptPart": "trial",
            "trialNumber": 8,
            "roleCurrent": "sender",
            "marblesSampled": 100,
            "probRed": 0.5,
            "lambda": 5,
            "drawnRed": 34,
            "reportedRed": 35,
            "inferredRed": 31,
            "playerTrialScore": 0,
            "oppTrialScore": -3,
            "playerTotalScore": -7,
            "oppTotalScore": -5,
            "waitTime": 2621.3150605276724,
            "responseTime": 1678835622697,
            "catchQuestion": "How many <b class=\"r\">red<\/b> marbles did your opponent report drawing? ",
            "catchKey": -1,
            "catchResponse": -1,
            "catchTime": 1678835569884,
            "trialTime": 0
        },
        {
            "exptPart": "trial",
            "trialNumber": 9,
            "roleCurrent": "receiver",
            "marblesSampled": 100,
            "probRed": 0.5,
            "lambda": 5,
            "drawnRed": 33,
            "reportedRed": 36,
            "inferredRed": 33,
            "playerTrialScore": 0,
            "oppTrialScore": 0,
            "playerTotalScore": -7,
            "oppTotalScore": -5,
            "waitTime": 7171.605827818335,
            "responseTime": 1678835635975,
            "catchQuestion": "How many <b class=\"r\">red<\/b> marbles did your opponent report drawing? ",
            "catchKey": -1,
            "catchResponse": -1,
            "catchTime": 1678835569884,
            "trialTime": 0
        },
        {
            "exptPart": "trial",
            "trialNumber": 10,
            "roleCurrent": "sender",
            "marblesSampled": 100,
            "probRed": 0.5,
            "lambda": 5,
            "drawnRed": 20,
            "reportedRed": 18,
            "inferredRed": 12,
            "playerTrialScore": 0,
            "oppTrialScore": -8,
            "playerTotalScore": -7,
            "oppTotalScore": -13,
            "waitTime": 2405.3513982008776,
            "responseTime": 1678835662210,
            "catchQuestion": "How many <b class=\"r\">red<\/b> marbles did your opponent report drawing? ",
            "catchKey": -1,
            "catchResponse": -1,
            "catchTime": 1678835662210,
            "trialTime": 0
        },
        {
            "exptPart": "trial",
            "trialNumber": 11,
            "roleCurrent": "receiver",
            "marblesSampled": 100,
            "probRed": 0.5,
            "lambda": 5,
            "drawnRed": 60,
            "reportedRed": 63,
            "inferredRed": 60,
            "playerTrialScore": 0,
            "oppTrialScore": 0,
            "playerTotalScore": -7,
            "oppTotalScore": -13,
            "waitTime": 7366.81133975822,
            "responseTime": 1678835680223,
            "catchQuestion": "How many <b class=\"r\">red<\/b> marbles did your opponent report drawing? ",
            "catchKey": -1,
            "catchResponse": -1,
            "catchTime": 1678835662210,
            "trialTime": 0
        },
        {
            "exptPart": "trial",
            "trialNumber": 12,
            "roleCurrent": "sender",
            "marblesSampled": 100,
            "probRed": 0.5,
            "lambda": 5,
            "drawnRed": 71,
            "reportedRed": 65,
            "inferredRed": 59,
            "playerTrialScore": 0,
            "oppTrialScore": -12,
            "playerTotalScore": -7,
            "oppTotalScore": -25,
            "waitTime": 3007.752443784197,
            "responseTime": 1678835728844,
            "catchQuestion": "How many <b class=\"r\">red<\/b> marbles did your opponent report drawing? ",
            "catchKey": -1,
            "catchResponse": -1,
            "catchTime": 1678835662210,
            "trialTime": 0
        },
        {
            "exptPart": "trial",
            "trialNumber": 13,
            "roleCurrent": "receiver",
            "marblesSampled": 100,
            "probRed": 0.5,
            "lambda": 5,
            "drawnRed": 41,
            "reportedRed": 44,
            "inferredRed": 40,
            "playerTrialScore": -1,
            "oppTrialScore": 0,
            "playerTotalScore": -8,
            "oppTotalScore": -25,
            "waitTime": 5188.7521519357315,
            "responseTime": 1678835743350,
            "catchQuestion": "How many <b class=\"r\">red<\/b> marbles did your opponent report drawing? ",
            "catchKey": -1,
            "catchResponse": -1,
            "catchTime": 1678835662210,
            "trialTime": 0
        },
        {
            "exptPart": "trial",
            "trialNumber": 14,
            "roleCurrent": "sender",
            "marblesSampled": 100,
            "probRed": 0.5,
            "lambda": 5,
            "drawnRed": 75,
            "reportedRed": 68,
            "inferredRed": 66,
            "playerTrialScore": 0,
            "oppTrialScore": -9,
            "playerTotalScore": -8,
            "oppTotalScore": -34,
            "waitTime": 2719.2708599414223,
            "responseTime": 1678835759672,
            "catchQuestion": "How many <b class=\"r\">red<\/b> marbles did your opponent report drawing? ",
            "catchKey": -1,
            "catchResponse": -1,
            "catchTime": 1678835662210,
            "trialTime": 0
        },
        {
            "exptPart": "trial",
            "trialNumber": 15,
            "roleCurrent": "receiver",
            "marblesSampled": 100,
            "probRed": 0.5,
            "lambda": 5,
            "drawnRed": 50,
            "reportedRed": 55,
            "inferredRed": 53,
            "playerTrialScore": -3,
            "oppTrialScore": 3,
            "playerTotalScore": -11,
            "oppTotalScore": -31,
            "waitTime": 7276.80502011019,
            "responseTime": 1678835770433,
            "catchQuestion": "How many <b class=\"r\">red<\/b> marbles did your opponent report drawing? ",
            "catchKey": -1,
            "catchResponse": -1,
            "catchTime": 1678835770433,
            "trialTime": 0
        },
        {
            "exptPart": "trial",
            "trialNumber": 16,
            "roleCurrent": "sender",
            "marblesSampled": 100,
            "probRed": 0.5,
            "lambda": 5,
            "drawnRed": 48,
            "reportedRed": 21,
            "inferredRed": 13,
            "playerTrialScore": 0,
            "oppTrialScore": -35,
            "playerTotalScore": -11,
            "oppTotalScore": -66,
            "waitTime": 2231.98462764314,
            "responseTime": 1678835805207,
            "catchQuestion": "How many <b class=\"r\">red<\/b> marbles did your opponent report drawing? ",
            "catchKey": -1,
            "catchResponse": -1,
            "catchTime": 1678835770433,
            "trialTime": 0
        },
        {
            "exptPart": "trial",
            "trialNumber": 17,
            "roleCurrent": "receiver",
            "marblesSampled": 100,
            "probRed": 0.5,
            "lambda": 5,
            "drawnRed": 63,
            "reportedRed": 65,
            "inferredRed": 60,
            "playerTrialScore": -3,
            "oppTrialScore": 0,
            "playerTotalScore": -14,
            "oppTotalScore": -66,
            "waitTime": 7490.203780446027,
            "responseTime": 1678835819496,
            "catchQuestion": "How many <b class=\"r\">red<\/b> marbles did your opponent report drawing? ",
            "catchKey": -1,
            "catchResponse": -1,
            "catchTime": 1678835770433,
            "trialTime": 0
        },
        {
            "exptPart": "trial",
            "trialNumber": 18,
            "roleCurrent": "sender",
            "marblesSampled": 100,
            "probRed": 0.5,
            "lambda": 5,
            "drawnRed": 78,
            "reportedRed": 58,
            "inferredRed": 54,
            "playerTrialScore": 0,
            "oppTrialScore": -24,
            "playerTotalScore": -14,
            "oppTotalScore": -90,
            "waitTime": 2978.2925824287445,
            "responseTime": 1678835853569,
            "catchQuestion": "How many <b class=\"r\">red<\/b> marbles did your opponent report drawing? ",
            "catchKey": -1,
            "catchResponse": -1,
            "catchTime": 1678835770433,
            "trialTime": 0
        },
        {
            "exptPart": "trial",
            "trialNumber": 19,
            "roleCurrent": "receiver",
            "marblesSampled": 100,
            "probRed": 0.5,
            "lambda": 5,
            "drawnRed": 42,
            "reportedRed": 46,
            "inferredRed": 39,
            "playerTrialScore": -3,
            "oppTrialScore": 0,
            "playerTotalScore": -17,
            "oppTotalScore": -90,
            "waitTime": 5487.201607314854,
            "responseTime": 1678835863387,
            "catchQuestion": "How many <b class=\"r\">red<\/b> marbles did your opponent report drawing? ",
            "catchKey": -1,
            "catchResponse": -1,
            "catchTime": 1678835770433,
            "trialTime": 0
        },
        {
            "exptPart": "trial",
            "trialNumber": 20,
            "roleCurrent": "sender",
            "marblesSampled": 100,
            "probRed": 0.5,
            "lambda": 5,
            "drawnRed": 53,
            "reportedRed": 42,
            "inferredRed": 39,
            "playerTrialScore": 0,
            "oppTrialScore": -14,
            "playerTotalScore": -17,
            "oppTotalScore": -104,
            "waitTime": 2429.132176656038,
            "responseTime": 1678835880008,
            "catchQuestion": "How many <b class=\"r\">red<\/b> marbles did your opponent report drawing? ",
            "catchKey": -1,
            "catchResponse": -1,
            "catchTime": 1678835880009,
            "trialTime": 0
        },
        {
            "exptPart": "trial",
            "trialNumber": 21,
            "roleCurrent": "receiver",
            "marblesSampled": 100,
            "probRed": 0.5,
            "lambda": 5,
            "drawnRed": 43,
            "reportedRed": 48,
            "inferredRed": 40,
            "playerTrialScore": -3,
            "oppTrialScore": 0,
            "playerTotalScore": -20,
            "oppTotalScore": -104,
            "waitTime": 6688.916168549304,
            "responseTime": 1678835892580,
            "catchQuestion": "How many <b class=\"r\">red<\/b> marbles did your opponent report drawing? ",
            "catchKey": -1,
            "catchResponse": -1,
            "catchTime": 1678835880009,
            "trialTime": 0
        },
        {
            "exptPart": "trial",
            "trialNumber": 22,
            "roleCurrent": "sender",
            "marblesSampled": 100,
            "probRed": 0.5,
            "lambda": 5,
            "drawnRed": 25,
            "reportedRed": 20,
            "inferredRed": 18,
            "playerTrialScore": 0,
            "oppTrialScore": -7,
            "playerTotalScore": -20,
            "oppTotalScore": -111,
            "waitTime": 2302.7168291290254,
            "responseTime": 1678835905592,
            "catchQuestion": "How many <b class=\"r\">red<\/b> marbles did your opponent report drawing? ",
            "catchKey": -1,
            "catchResponse": -1,
            "catchTime": 1678835880009,
            "trialTime": 0
        },
        {
            "exptPart": "trial",
            "trialNumber": 23,
            "roleCurrent": "receiver",
            "marblesSampled": 100,
            "probRed": 0.5,
            "lambda": 5,
            "drawnRed": 35,
            "reportedRed": 39,
            "inferredRed": 33,
            "playerTrialScore": -2,
            "oppTrialScore": 0,
            "playerTotalScore": -22,
            "oppTotalScore": -111,
            "waitTime": 5600.342492400236,
            "responseTime": 1678835914748,
            "catchQuestion": "How many <b class=\"r\">red<\/b> marbles did your opponent report drawing? ",
            "catchKey": -1,
            "catchResponse": -1,
            "catchTime": 1678835880009,
            "trialTime": 0
        },
        {
            "exptPart": "trial",
            "trialNumber": 24,
            "roleCurrent": "sender",
            "marblesSampled": 100,
            "probRed": 0.5,
            "lambda": 5,
            "drawnRed": 46,
            "reportedRed": 34,
            "inferredRed": 32,
            "playerTrialScore": 0,
            "oppTrialScore": -14,
            "playerTotalScore": -22,
            "oppTotalScore": -125,
            "waitTime": 2387.4851708477263,
            "responseTime": 1678835941325,
            "catchQuestion": "How many <b class=\"r\">red<\/b> marbles did your opponent report drawing? ",
            "catchKey": -1,
            "catchResponse": -1,
            "catchTime": 1678835880009,
            "trialTime": 0
        },
        {
            "exptPart": "trial",
            "trialNumber": 25,
            "roleCurrent": "receiver",
            "marblesSampled": 100,
            "probRed": 0.5,
            "lambda": 5,
            "drawnRed": 67,
            "reportedRed": 69,
            "inferredRed": 66,
            "playerTrialScore": -1,
            "oppTrialScore": 0,
            "playerTotalScore": -23,
            "oppTotalScore": -125,
            "waitTime": 6902.769322656076,
            "responseTime": 1678835952139,
            "catchQuestion": "How many <b class=\"r\">red<\/b> marbles did your opponent report drawing? ",
            "catchKey": -1,
            "catchResponse": -1,
            "catchTime": 1678835952139,
            "trialTime": 0
        },
        {
            "exptPart": "trial",
            "trialNumber": 26,
            "roleCurrent": "sender",
            "marblesSampled": 100,
            "probRed": 0.5,
            "lambda": 5,
            "drawnRed": 39,
            "reportedRed": 35,
            "inferredRed": 29,
            "playerTrialScore": 0,
            "oppTrialScore": -10,
            "playerTotalScore": -23,
            "oppTotalScore": -135,
            "waitTime": 2922.6170372779934,
            "responseTime": 1678835970119,
            "catchQuestion": "How many <b class=\"r\">red<\/b> marbles did you actually draw (before any changes)? ",
            "catchKey": 39,
            "catchResponse": 36,
            "catchTime": 1678835970119,
            "trialTime": 0
        },
        {
            "exptPart": "trial",
            "trialNumber": 27,
            "roleCurrent": "receiver",
            "marblesSampled": 100,
            "probRed": 0.5,
            "lambda": 5,
            "drawnRed": 53,
            "reportedRed": 58,
            "inferredRed": 55,
            "playerTrialScore": -2,
            "oppTrialScore": 2,
            "playerTotalScore": -25,
            "oppTotalScore": -133,
            "waitTime": 6300.258520076773,
            "responseTime": 1678835989482,
            "catchQuestion": "How many <b class=\"r\">red<\/b> marbles did you actually draw (before any changes)? ",
            "catchKey": -1,
            "catchResponse": -1,
            "catchTime": 1678835970119,
            "trialTime": 0
        },
        {
            "exptPart": "trial",
            "trialNumber": 28,
            "roleCurrent": "sender",
            "marblesSampled": 100,
            "probRed": 0.5,
            "lambda": 5,
            "drawnRed": 45,
            "reportedRed": 32,
            "inferredRed": 28,
            "playerTrialScore": 0,
            "oppTrialScore": -17,
            "playerTotalScore": -25,
            "oppTotalScore": -150,
            "waitTime": 2298.848593608025,
            "responseTime": 1678836008375,
            "catchQuestion": "How many <b class=\"r\">red<\/b> marbles did you actually draw (before any changes)? ",
            "catchKey": -1,
            "catchResponse": -1,
            "catchTime": 1678835970119,
            "trialTime": 0
        },
        {
            "exptPart": "trial",
            "trialNumber": 29,
            "roleCurrent": "receiver",
            "marblesSampled": 100,
            "probRed": 0.5,
            "lambda": 5,
            "drawnRed": 16,
            "reportedRed": 23,
            "inferredRed": 20,
            "playerTrialScore": -4,
            "oppTrialScore": 4,
            "playerTotalScore": -29,
            "oppTotalScore": -146,
            "waitTime": 7432.387964976125,
            "responseTime": 1678836019469,
            "catchQuestion": "How many <b class=\"r\">red<\/b> marbles did your opponent report drawing? ",
            "catchKey": 23,
            "catchResponse": 23,
            "catchTime": 1678836019469,
            "trialTime": 0
        },
        {
            "exptPart": "trial",
            "trialNumber": 30,
            "roleCurrent": "sender",
            "marblesSampled": 100,
            "probRed": 0.5,
            "lambda": 5,
            "drawnRed": 33,
            "reportedRed": 25,
            "inferredRed": 21,
            "playerTrialScore": 0,
            "oppTrialScore": -12,
            "playerTotalScore": -29,
            "oppTotalScore": -158,
            "waitTime": 2099.7349534528826,
            "responseTime": 1678836039000,
            "catchQuestion": "How many <b class=\"r\">red<\/b> marbles did your opponent report drawing? ",
            "catchKey": -1,
            "catchResponse": -1,
            "catchTime": 1678836039000,
            "trialTime": 0
        },
        {
            "exptPart": "trial",
            "trialNumber": 31,
            "roleCurrent": "receiver",
            "marblesSampled": 100,
            "probRed": 0.5,
            "lambda": 5,
            "drawnRed": 44,
            "reportedRed": 48,
            "inferredRed": 45,
            "playerTrialScore": -1,
            "oppTrialScore": 1,
            "playerTotalScore": -30,
            "oppTotalScore": -157,
            "waitTime": 7482.994038319405,
            "responseTime": 1678836052929,
            "catchQuestion": "How many <b class=\"r\">red<\/b> marbles did your opponent report drawing? ",
            "catchKey": -1,
            "catchResponse": -1,
            "catchTime": 1678836039000,
            "trialTime": 0
        },
        {
            "exptPart": "trial",
            "trialNumber": 32,
            "roleCurrent": "sender",
            "marblesSampled": 100,
            "probRed": 0.5,
            "lambda": 5,
            "drawnRed": 71,
            "reportedRed": 50,
            "inferredRed": 39,
            "playerTrialScore": 0,
            "oppTrialScore": -32,
            "playerTotalScore": -30,
            "oppTotalScore": -189,
            "waitTime": 3078.821781759634,
            "responseTime": 1678836077159,
            "catchQuestion": "How many <b class=\"r\">red<\/b> marbles did your opponent report drawing? ",
            "catchKey": -1,
            "catchResponse": -1,
            "catchTime": 1678836039000,
            "trialTime": 0
        },
        {
            "exptPart": "trial",
            "trialNumber": 33,
            "roleCurrent": "receiver",
            "marblesSampled": 100,
            "probRed": 0.5,
            "lambda": 5,
            "drawnRed": 46,
            "reportedRed": 52,
            "inferredRed": 49,
            "playerTrialScore": -3,
            "oppTrialScore": 3,
            "playerTotalScore": -33,
            "oppTotalScore": -186,
            "waitTime": 5989.561086157948,
            "responseTime": 1678836087812,
            "catchQuestion": "How many <b class=\"r\">red<\/b> marbles did your opponent report drawing? ",
            "catchKey": -1,
            "catchResponse": -1,
            "catchTime": 1678836039000,
            "trialTime": 0
        },
        {
            "exptPart": "trial",
            "trialNumber": 34,
            "roleCurrent": "sender",
            "marblesSampled": 100,
            "probRed": 0.5,
            "lambda": 5,
            "drawnRed": 22,
            "reportedRed": 15,
            "inferredRed": 13,
            "playerTrialScore": 0,
            "oppTrialScore": -9,
            "playerTotalScore": -33,
            "oppTotalScore": -195,
            "waitTime": 2306.7058457921603,
            "responseTime": 1678836103573,
            "catchQuestion": "How many <b class=\"r\">red<\/b> marbles did your opponent report drawing? ",
            "catchKey": -1,
            "catchResponse": -1,
            "catchTime": 1678836039000,
            "trialTime": 0
        },
        {
            "exptPart": "trial",
            "trialNumber": 35,
            "roleCurrent": "receiver",
            "marblesSampled": 100,
            "probRed": 0.5,
            "lambda": 5,
            "drawnRed": 7,
            "reportedRed": 12,
            "inferredRed": 12,
            "playerTrialScore": -5,
            "oppTrialScore": 5,
            "playerTotalScore": -38,
            "oppTotalScore": -190,
            "waitTime": 6999.052185215788,
            "responseTime": 1678836117806,
            "catchQuestion": "How many <b class=\"r\">red<\/b> marbles did your opponent report drawing? ",
            "catchKey": -1,
            "catchResponse": -1,
            "catchTime": 1678836117806,
            "trialTime": 0
        },
        {
            "exptPart": "trial",
            "trialNumber": 36,
            "roleCurrent": "sender",
            "marblesSampled": 100,
            "probRed": 0.5,
            "lambda": 5,
            "drawnRed": 55,
            "reportedRed": 20,
            "inferredRed": 15,
            "playerTrialScore": 0,
            "oppTrialScore": -40,
            "playerTotalScore": -38,
            "oppTotalScore": -230,
            "waitTime": 2313.2829870276328,
            "responseTime": 1678836149796,
            "catchQuestion": "How many <b class=\"r\">red<\/b> marbles did your opponent report drawing? ",
            "catchKey": -1,
            "catchResponse": -1,
            "catchTime": 1678836117806,
            "trialTime": 0
        },
        {
            "exptPart": "trial",
            "trialNumber": 37,
            "roleCurrent": "receiver",
            "marblesSampled": 100,
            "probRed": 0.5,
            "lambda": 5,
            "drawnRed": 40,
            "reportedRed": 42,
            "inferredRed": 39,
            "playerTrialScore": -1,
            "oppTrialScore": 0,
            "playerTotalScore": -39,
            "oppTotalScore": -230,
            "waitTime": 6318.481064028658,
            "responseTime": 1678836160179,
            "catchQuestion": "How many <b class=\"r\">red<\/b> marbles did your opponent report drawing? ",
            "catchKey": -1,
            "catchResponse": -1,
            "catchTime": 1678836117806,
            "trialTime": 0
        },
        {
            "exptPart": "trial",
            "trialNumber": 38,
            "roleCurrent": "sender",
            "marblesSampled": 100,
            "probRed": 0.5,
            "lambda": 5,
            "drawnRed": 28,
            "reportedRed": 24,
            "inferredRed": 18,
            "playerTrialScore": 0,
            "oppTrialScore": -10,
            "playerTotalScore": -39,
            "oppTotalScore": -240,
            "waitTime": 2287.4450056759033,
            "responseTime": 1678836170728,
            "catchQuestion": "How many <b class=\"r\">red<\/b> marbles did your opponent report drawing? ",
            "catchKey": -1,
            "catchResponse": -1,
            "catchTime": 1678836117806,
            "trialTime": 0
        },
        {
            "exptPart": "trial",
            "trialNumber": 39,
            "roleCurrent": "receiver",
            "marblesSampled": 100,
            "probRed": 0.5,
            "lambda": 5,
            "drawnRed": 66,
            "reportedRed": 75,
            "inferredRed": 70,
            "playerTrialScore": -4,
            "oppTrialScore": 4,
            "playerTotalScore": -43,
            "oppTotalScore": -236,
            "waitTime": 7297.223989857736,
            "responseTime": 1678836181276,
            "catchQuestion": "How many <b class=\"r\">red<\/b> marbles did your opponent report drawing? ",
            "catchKey": 75,
            "catchResponse": 70,
            "catchTime": 1678836181276,
            "trialTime": 0
        },
        {
            "exptPart": "trial",
            "trialNumber": 40,
            "roleCurrent": "sender",
            "marblesSampled": 100,
            "probRed": 0.5,
            "lambda": 5,
            "drawnRed": 53,
            "reportedRed": 43,
            "inferredRed": 38,
            "playerTrialScore": 0,
            "oppTrialScore": -15,
            "playerTotalScore": -43,
            "oppTotalScore": -251,
            "waitTime": 2613.272496931822,
            "responseTime": 1678836209074,
            "catchQuestion": "How many <b class=\"r\">red<\/b> marbles did your opponent report drawing? ",
            "catchKey": -1,
            "catchResponse": -1,
            "catchTime": 1678836209074,
            "trialTime": 0
        },
        {
            "exptPart": "trial",
            "trialNumber": 41,
            "roleCurrent": "receiver",
            "marblesSampled": 100,
            "probRed": 0.5,
            "lambda": 5,
            "drawnRed": 24,
            "reportedRed": 30,
            "inferredRed": 27,
            "playerTrialScore": -3,
            "oppTrialScore": 3,
            "playerTotalScore": -46,
            "oppTotalScore": -248,
            "waitTime": 5698.024448216276,
            "responseTime": 1678836221990,
            "catchQuestion": "How many <b class=\"r\">red<\/b> marbles did your opponent report drawing? ",
            "catchKey": -1,
            "catchResponse": -1,
            "catchTime": 1678836209074,
            "trialTime": 0
        },
        {
            "exptPart": "trial",
            "trialNumber": 42,
            "roleCurrent": "sender",
            "marblesSampled": 100,
            "probRed": 0.5,
            "lambda": 5,
            "drawnRed": 40,
            "reportedRed": 30,
            "inferredRed": 26,
            "playerTrialScore": 0,
            "oppTrialScore": -14,
            "playerTotalScore": -46,
            "oppTotalScore": -262,
            "waitTime": 2543.708750216778,
            "responseTime": 1678836236393,
            "catchQuestion": "How many <b class=\"r\">red<\/b> marbles did your opponent report drawing? ",
            "catchKey": -1,
            "catchResponse": -1,
            "catchTime": 1678836209074,
            "trialTime": 0
        },
        {
            "exptPart": "trial",
            "trialNumber": 43,
            "roleCurrent": "receiver",
            "marblesSampled": 100,
            "probRed": 0.5,
            "lambda": 5,
            "drawnRed": 68,
            "reportedRed": 75,
            "inferredRed": 72,
            "playerTrialScore": -4,
            "oppTrialScore": 4,
            "playerTotalScore": -50,
            "oppTotalScore": -258,
            "waitTime": 5919.626089384107,
            "responseTime": 1678836247412,
            "catchQuestion": "How many <b class=\"r\">red<\/b> marbles did your opponent report drawing? ",
            "catchKey": -1,
            "catchResponse": -1,
            "catchTime": 1678836209074,
            "trialTime": 0
        },
        {
            "exptPart": "trial",
            "trialNumber": 44,
            "roleCurrent": "sender",
            "marblesSampled": 100,
            "probRed": 0.5,
            "lambda": 5,
            "drawnRed": 46,
            "reportedRed": 30,
            "inferredRed": 25,
            "playerTrialScore": 0,
            "oppTrialScore": -21,
            "playerTotalScore": -50,
            "oppTotalScore": -279,
            "waitTime": 2792.112371340273,
            "responseTime": 1678836266496,
            "catchQuestion": "How many <b class=\"r\">red<\/b> marbles did your opponent report drawing? ",
            "catchKey": -1,
            "catchResponse": -1,
            "catchTime": 1678836209074,
            "trialTime": 0
        },
        {
            "exptPart": "trial",
            "trialNumber": 45,
            "roleCurrent": "receiver",
            "marblesSampled": 100,
            "probRed": 0.5,
            "lambda": 5,
            "drawnRed": 49,
            "reportedRed": 61,
            "inferredRed": 57,
            "playerTrialScore": -8,
            "oppTrialScore": 8,
            "playerTotalScore": -58,
            "oppTotalScore": -271,
            "waitTime": 5404.695433588325,
            "responseTime": 1678836275753,
            "catchQuestion": "How many <b class=\"r\">red<\/b> marbles did your opponent report drawing? ",
            "catchKey": 61,
            "catchResponse": 61,
            "catchTime": 1678836275753,
            "trialTime": 0
        },
        {
            "exptPart": "trial",
            "trialNumber": 46,
            "roleCurrent": "sender",
            "marblesSampled": 100,
            "probRed": 0.5,
            "lambda": 5,
            "drawnRed": 72,
            "reportedRed": 52,
            "inferredRed": 46,
            "playerTrialScore": 0,
            "oppTrialScore": -26,
            "playerTotalScore": -58,
            "oppTotalScore": -297,
            "waitTime": 2708.541008761127,
            "responseTime": 1678836305256,
            "catchQuestion": "How many <b class=\"r\">red<\/b> marbles did your opponent report drawing? ",
            "catchKey": -1,
            "catchResponse": -1,
            "catchTime": 1678836275753,
            "trialTime": 0
        },
        {
            "exptPart": "trial",
            "trialNumber": 47,
            "roleCurrent": "receiver",
            "marblesSampled": 100,
            "probRed": 0.5,
            "lambda": 5,
            "drawnRed": 63,
            "reportedRed": 66,
            "inferredRed": 60,
            "playerTrialScore": -3,
            "oppTrialScore": 0,
            "playerTotalScore": -61,
            "oppTotalScore": -297,
            "waitTime": 5638.015749313674,
            "responseTime": 1678836315687,
            "catchQuestion": "How many <b class=\"r\">red<\/b> marbles did your opponent report drawing? ",
            "catchKey": -1,
            "catchResponse": -1,
            "catchTime": 1678836275753,
            "trialTime": 0
        },
        {
            "exptPart": "trial",
            "trialNumber": 48,
            "roleCurrent": "sender",
            "marblesSampled": 100,
            "probRed": 0.5,
            "lambda": 5,
            "drawnRed": 39,
            "reportedRed": 32,
            "inferredRed": 25,
            "playerTrialScore": 0,
            "oppTrialScore": -14,
            "playerTotalScore": -61,
            "oppTotalScore": -311,
            "waitTime": 2156.0197135381904,
            "responseTime": 1678836340319,
            "catchQuestion": "How many <b class=\"r\">red<\/b> marbles did your opponent report drawing? ",
            "catchKey": -1,
            "catchResponse": -1,
            "catchTime": 1678836275753,
            "trialTime": 0
        },
        {
            "exptPart": "trial",
            "trialNumber": 49,
            "roleCurrent": "receiver",
            "marblesSampled": 100,
            "probRed": 0.5,
            "lambda": 5,
            "drawnRed": 30,
            "reportedRed": 35,
            "inferredRed": 30,
            "playerTrialScore": 0,
            "oppTrialScore": 0,
            "playerTotalScore": -61,
            "oppTotalScore": -311,
            "waitTime": 6826.135337401072,
            "responseTime": 1678836357702,
            "catchQuestion": "How many <b class=\"r\">red<\/b> marbles did your opponent report drawing? ",
            "catchKey": -1,
            "catchResponse": -1,
            "catchTime": 1678836275753,
            "trialTime": 0
        },
        {
            "exptPart": "trial",
            "trialNumber": 50,
            "roleCurrent": "sender",
            "marblesSampled": 100,
            "probRed": 0.5,
            "lambda": 5,
            "drawnRed": 45,
            "reportedRed": 38,
            "inferredRed": 36,
            "playerTrialScore": 0,
            "oppTrialScore": -9,
            "playerTotalScore": -61,
            "oppTotalScore": -320,
            "waitTime": 2560.428659330209,
            "responseTime": 1678836414594,
            "catchQuestion": "How many <b class=\"r\">red<\/b> marbles did your opponent report drawing? ",
            "catchKey": -1,
            "catchResponse": -1,
            "catchTime": 1678836414594,
            "trialTime": 0
        },
        {
            "exptPart": "trial",
            "trialNumber": 51,
            "roleCurrent": "receiver",
            "marblesSampled": 100,
            "probRed": 0.5,
            "lambda": 5,
            "drawnRed": 51,
            "reportedRed": 51,
            "inferredRed": 48,
            "playerTrialScore": -3,
            "oppTrialScore": 0,
            "playerTotalScore": -64,
            "oppTotalScore": -320,
            "waitTime": 6200.5316799517,
            "responseTime": 1678836431539,
            "catchQuestion": "How many <b class=\"r\">red<\/b> marbles did your opponent report drawing? ",
            "catchKey": -1,
            "catchResponse": -1,
            "catchTime": 1678836414594,
            "trialTime": 0
        },
        {
            "exptPart": "trial",
            "trialNumber": 52,
            "roleCurrent": "sender",
            "marblesSampled": 100,
            "probRed": 0.5,
            "lambda": 5,
            "drawnRed": 64,
            "reportedRed": 55,
            "inferredRed": 51,
            "playerTrialScore": 0,
            "oppTrialScore": -13,
            "playerTotalScore": -64,
            "oppTotalScore": -333,
            "waitTime": 2069.335195446658,
            "responseTime": 1678836446327,
            "catchQuestion": "How many <b class=\"r\">red<\/b> marbles did your opponent report drawing? ",
            "catchKey": -1,
            "catchResponse": -1,
            "catchTime": 1678836414594,
            "trialTime": 0
        },
        {
            "exptPart": "trial",
            "trialNumber": 53,
            "roleCurrent": "receiver",
            "marblesSampled": 100,
            "probRed": 0.5,
            "lambda": 5,
            "drawnRed": 63,
            "reportedRed": 70,
            "inferredRed": 65,
            "playerTrialScore": -2,
            "oppTrialScore": 2,
            "playerTotalScore": -66,
            "oppTotalScore": -331,
            "waitTime": 6169.832135349685,
            "responseTime": 1678836467458,
            "catchQuestion": "How many <b class=\"r\">red<\/b> marbles did your opponent report drawing? ",
            "catchKey": -1,
            "catchResponse": -1,
            "catchTime": 1678836414594,
            "trialTime": 0
        },
        {
            "exptPart": "trial",
            "trialNumber": 54,
            "roleCurrent": "sender",
            "marblesSampled": 100,
            "probRed": 0.5,
            "lambda": 5,
            "drawnRed": 24,
            "reportedRed": 20,
            "inferredRed": 16,
            "playerTrialScore": 0,
            "oppTrialScore": -8,
            "playerTotalScore": -66,
            "oppTotalScore": -339,
            "waitTime": 2940.412690069289,
            "responseTime": 1678836480344,
            "catchQuestion": "How many <b class=\"r\">red<\/b> marbles did your opponent report drawing? ",
            "catchKey": -1,
            "catchResponse": -1,
            "catchTime": 1678836414594,
            "trialTime": 0
        },
        {
            "exptPart": "trial",
            "trialNumber": 55,
            "roleCurrent": "receiver",
            "marblesSampled": 100,
            "probRed": 0.5,
            "lambda": 5,
            "drawnRed": 34,
            "reportedRed": 40,
            "inferredRed": 36,
            "playerTrialScore": -2,
            "oppTrialScore": 2,
            "playerTotalScore": -68,
            "oppTotalScore": -337,
            "waitTime": 5419.562907605457,
            "responseTime": 1678836489772,
            "catchQuestion": "How many <b class=\"r\">red<\/b> marbles did your opponent report drawing? ",
            "catchKey": -1,
            "catchResponse": -1,
            "catchTime": 1678836489772,
            "trialTime": 0
        },
        {
            "exptPart": "trial",
            "trialNumber": 56,
            "roleCurrent": "sender",
            "marblesSampled": 100,
            "probRed": 0.5,
            "lambda": 5,
            "drawnRed": 80,
            "reportedRed": 86,
            "inferredRed": 80,
            "playerTrialScore": 0,
            "oppTrialScore": 0,
            "playerTotalScore": -68,
            "oppTotalScore": -337,
            "waitTime": 3191.93259157064,
            "responseTime": 1678836513877,
            "catchQuestion": "How many <b class=\"r\">red<\/b> marbles did your opponent report drawing? ",
            "catchKey": -1,
            "catchResponse": -1,
            "catchTime": 1678836489772,
            "trialTime": 0
        },
        {
            "exptPart": "trial",
            "trialNumber": 57,
            "roleCurrent": "receiver",
            "marblesSampled": 100,
            "probRed": 0.5,
            "lambda": 5,
            "drawnRed": 65,
            "reportedRed": 68,
            "inferredRed": 65,
            "playerTrialScore": 0,
            "oppTrialScore": 0,
            "playerTotalScore": -68,
            "oppTotalScore": -337,
            "waitTime": 7431.214386452317,
            "responseTime": 1678836527140,
            "catchQuestion": "How many <b class=\"r\">red<\/b> marbles did your opponent report drawing? ",
            "catchKey": -1,
            "catchResponse": -1,
            "catchTime": 1678836489772,
            "trialTime": 0
        },
        {
            "exptPart": "trial",
            "trialNumber": 58,
            "roleCurrent": "sender",
            "marblesSampled": 100,
            "probRed": 0.5,
            "lambda": 5,
            "drawnRed": 66,
            "reportedRed": 81,
            "inferredRed": 78,
            "playerTrialScore": 12,
            "oppTrialScore": -12,
            "playerTotalScore": -56,
            "oppTotalScore": -349,
            "waitTime": 2313.814943997202,
            "responseTime": 1678836548625,
            "catchQuestion": "How many <b class=\"r\">red<\/b> marbles did your opponent report drawing? ",
            "catchKey": -1,
            "catchResponse": -1,
            "catchTime": 1678836489772,
            "trialTime": 0
        },
        {
            "exptPart": "trial",
            "trialNumber": 59,
            "roleCurrent": "receiver",
            "marblesSampled": 100,
            "probRed": 0.5,
            "lambda": 5,
            "drawnRed": 25,
            "reportedRed": 31,
            "inferredRed": 27,
            "playerTrialScore": -2,
            "oppTrialScore": 2,
            "playerTotalScore": -58,
            "oppTotalScore": -347,
            "waitTime": 7444.686045477153,
            "responseTime": 1678836559494,
            "catchQuestion": "How many <b class=\"r\">red<\/b> marbles did your opponent report drawing? ",
            "catchKey": -1,
            "catchResponse": -1,
            "catchTime": 1678836489772,
            "trialTime": 0
        },
        {
            "exptPart": "trial",
            "trialNumber": 60,
            "roleCurrent": "sender",
            "marblesSampled": 100,
            "probRed": 0.5,
            "lambda": 5,
            "drawnRed": 42,
            "reportedRed": 47,
            "inferredRed": 43,
            "playerTrialScore": 1,
            "oppTrialScore": -1,
            "playerTotalScore": -57,
            "oppTotalScore": -348,
            "waitTime": 2560.1327462585914,
            "responseTime": 1678836578349,
            "catchQuestion": "How many <b class=\"r\">red<\/b> marbles did your opponent report drawing? ",
            "catchKey": -1,
            "catchResponse": -1,
            "catchTime": 1678836578349,
            "trialTime": 0
        },
        {
            "exptPart": "trial",
            "trialNumber": 61,
            "roleCurrent": "receiver",
            "marblesSampled": 100,
            "probRed": 0.5,
            "lambda": 5,
            "drawnRed": 62,
            "reportedRed": 67,
            "inferredRed": 64,
            "playerTrialScore": -2,
            "oppTrialScore": 2,
            "playerTotalScore": -59,
            "oppTotalScore": -346,
            "waitTime": 5299.217299366249,
            "responseTime": 1678836596456,
            "catchQuestion": "How many <b class=\"r\">red<\/b> marbles did your opponent report drawing? ",
            "catchKey": -1,
            "catchResponse": -1,
            "catchTime": 1678836578349,
            "trialTime": 0
        },
        {
            "exptPart": "trial",
            "trialNumber": 62,
            "roleCurrent": "sender",
            "marblesSampled": 100,
            "probRed": 0.5,
            "lambda": 5,
            "drawnRed": 45,
            "reportedRed": 53,
            "inferredRed": 47,
            "playerTrialScore": 2,
            "oppTrialScore": -2,
            "playerTotalScore": -57,
            "oppTotalScore": -348,
            "waitTime": 2543.3291619712127,
            "responseTime": 1678836611488,
            "catchQuestion": "How many <b class=\"r\">red<\/b> marbles did your opponent report drawing? ",
            "catchKey": -1,
            "catchResponse": -1,
            "catchTime": 1678836578349,
            "trialTime": 0
        },
        {
            "exptPart": "trial",
            "trialNumber": 63,
            "roleCurrent": "receiver",
            "marblesSampled": 100,
            "probRed": 0.5,
            "lambda": 5,
            "drawnRed": 13,
            "reportedRed": 15,
            "inferredRed": 12,
            "playerTrialScore": -1,
            "oppTrialScore": 0,
            "playerTotalScore": -58,
            "oppTotalScore": -348,
            "waitTime": 6602.163560440658,
            "responseTime": 1678836620978,
            "catchQuestion": "How many <b class=\"r\">red<\/b> marbles did your opponent report drawing? ",
            "catchKey": -1,
            "catchResponse": -1,
            "catchTime": 1678836578349,
            "trialTime": 0
        },
        {
            "exptPart": "trial",
            "trialNumber": 64,
            "roleCurrent": "sender",
            "marblesSampled": 100,
            "probRed": 0.5,
            "lambda": 5,
            "drawnRed": 44,
            "reportedRed": 52,
            "inferredRed": 44,
            "playerTrialScore": 0,
            "oppTrialScore": 0,
            "playerTotalScore": -58,
            "oppTotalScore": -348,
            "waitTime": 2129.3413655482836,
            "responseTime": 1678836634886,
            "catchQuestion": "How many <b class=\"r\">red<\/b> marbles did your opponent report drawing? ",
            "catchKey": -1,
            "catchResponse": -1,
            "catchTime": 1678836578349,
            "trialTime": 0
        },
        {
            "exptPart": "trial",
            "trialNumber": 65,
            "roleCurrent": "receiver",
            "marblesSampled": 100,
            "probRed": 0.5,
            "lambda": 5,
            "drawnRed": 46,
            "reportedRed": 46,
            "inferredRed": 43,
            "playerTrialScore": -3,
            "oppTrialScore": 0,
            "playerTotalScore": -61,
            "oppTotalScore": -348,
            "waitTime": 5857.1207858419,
            "responseTime": 1678836644702,
            "catchQuestion": "How many <b class=\"r\">red<\/b> marbles did your opponent report drawing? ",
            "catchKey": -1,
            "catchResponse": -1,
            "catchTime": 1678836644702,
            "trialTime": 0
        },
        {
            "exptPart": "trial",
            "trialNumber": 66,
            "roleCurrent": "sender",
            "marblesSampled": 100,
            "probRed": 0.5,
            "lambda": 5,
            "drawnRed": 65,
            "reportedRed": 57,
            "inferredRed": 54,
            "playerTrialScore": 0,
            "oppTrialScore": -11,
            "playerTotalScore": -61,
            "oppTotalScore": -359,
            "waitTime": 2311.1009690032633,
            "responseTime": 1678836673224,
            "catchQuestion": "How many <b class=\"r\">red<\/b> marbles did your opponent report drawing? ",
            "catchKey": -1,
            "catchResponse": -1,
            "catchTime": 1678836644702,
            "trialTime": 0
        },
        {
            "exptPart": "trial",
            "trialNumber": 67,
            "roleCurrent": "receiver",
            "marblesSampled": 100,
            "probRed": 0.5,
            "lambda": 5,
            "drawnRed": 49,
            "reportedRed": 51,
            "inferredRed": 46,
            "playerTrialScore": -3,
            "oppTrialScore": 0,
            "playerTotalScore": -64,
            "oppTotalScore": -359,
            "waitTime": 5444.450752787254,
            "responseTime": 1678836684286,
            "catchQuestion": "How many <b class=\"r\">red<\/b> marbles did your opponent report drawing? ",
            "catchKey": -1,
            "catchResponse": -1,
            "catchTime": 1678836644702,
            "trialTime": 0
        },
        {
            "exptPart": "trial",
            "trialNumber": 68,
            "roleCurrent": "sender",
            "marblesSampled": 100,
            "probRed": 0.5,
            "lambda": 5,
            "drawnRed": 64,
            "reportedRed": 56,
            "inferredRed": 48,
            "playerTrialScore": 0,
            "oppTrialScore": -16,
            "playerTotalScore": -64,
            "oppTotalScore": -375,
            "waitTime": 2758.451299107655,
            "responseTime": 1678836698235,
            "catchQuestion": "How many <b class=\"r\">red<\/b> marbles did your opponent report drawing? ",
            "catchKey": -1,
            "catchResponse": -1,
            "catchTime": 1678836644702,
            "trialTime": 0
        },
        {
            "exptPart": "trial",
            "trialNumber": 69,
            "roleCurrent": "receiver",
            "marblesSampled": 100,
            "probRed": 0.5,
            "lambda": 5,
            "drawnRed": 63,
            "reportedRed": 64,
            "inferredRed": 59,
            "playerTrialScore": -4,
            "oppTrialScore": 0,
            "playerTotalScore": -68,
            "oppTotalScore": -375,
            "waitTime": 5856.364623491423,
            "responseTime": 1678836707862,
            "catchQuestion": "How many <b class=\"r\">red<\/b> marbles did your opponent report drawing? ",
            "catchKey": -1,
            "catchResponse": -1,
            "catchTime": 1678836644702,
            "trialTime": 0
        },
        {
            "exptPart": "trial",
            "trialNumber": 70,
            "roleCurrent": "sender",
            "marblesSampled": 100,
            "probRed": 0.5,
            "lambda": 5,
            "drawnRed": 71,
            "reportedRed": 63,
            "inferredRed": 56,
            "playerTrialScore": 0,
            "oppTrialScore": -15,
            "playerTotalScore": -68,
            "oppTotalScore": -390,
            "waitTime": 2733.964173775933,
            "responseTime": 1678836722223,
            "catchQuestion": "How many <b class=\"r\">red<\/b> marbles did your opponent report drawing? ",
            "catchKey": -1,
            "catchResponse": -1,
            "catchTime": 1678836722223,
            "trialTime": 0
        },
        {
            "exptPart": "trial",
            "trialNumber": 71,
            "roleCurrent": "receiver",
            "marblesSampled": 100,
            "probRed": 0.5,
            "lambda": 5,
            "drawnRed": 44,
            "reportedRed": 50,
            "inferredRed": 46,
            "playerTrialScore": -2,
            "oppTrialScore": 2,
            "playerTotalScore": -70,
            "oppTotalScore": -388,
            "waitTime": 6900.520661171558,
            "responseTime": 1678836734342,
            "catchQuestion": "How many <b class=\"r\">red<\/b> marbles did your opponent report drawing? ",
            "catchKey": -1,
            "catchResponse": -1,
            "catchTime": 1678836722223,
            "trialTime": 0
        },
        {
            "exptPart": "trial",
            "trialNumber": 72,
            "roleCurrent": "sender",
            "marblesSampled": 100,
            "probRed": 0.5,
            "lambda": 5,
            "drawnRed": 55,
            "reportedRed": 47,
            "inferredRed": 43,
            "playerTrialScore": 0,
            "oppTrialScore": -12,
            "playerTotalScore": -70,
            "oppTotalScore": -400,
            "waitTime": 2127.512123599621,
            "responseTime": 1678836750021,
            "catchQuestion": "How many <b class=\"r\">red<\/b> marbles did you actually draw (before any changes)? ",
            "catchKey": 55,
            "catchResponse": 81,
            "catchTime": 1678836750021,
            "trialTime": 0
        },
        {
            "exptPart": "trial",
            "trialNumber": 73,
            "roleCurrent": "receiver",
            "marblesSampled": 100,
            "probRed": 0.5,
            "lambda": 5,
            "drawnRed": 40,
            "reportedRed": 45,
            "inferredRed": 41,
            "playerTrialScore": -1,
            "oppTrialScore": 1,
            "playerTotalScore": -71,
            "oppTotalScore": -399,
            "waitTime": 5841.266818552323,
            "responseTime": 1678836772419,
            "catchQuestion": "How many <b class=\"r\">red<\/b> marbles did you actually draw (before any changes)? ",
            "catchKey": -1,
            "catchResponse": -1,
            "catchTime": 1678836750021,
            "trialTime": 0
        },
        {
            "exptPart": "trial",
            "trialNumber": 74,
            "roleCurrent": "sender",
            "marblesSampled": 100,
            "probRed": 0.5,
            "lambda": 5,
            "drawnRed": 66,
            "reportedRed": 58,
            "inferredRed": 54,
            "playerTrialScore": 0,
            "oppTrialScore": -12,
            "playerTotalScore": -71,
            "oppTotalScore": -411,
            "waitTime": 2723.7098014910794,
            "responseTime": 1678836788887,
            "catchQuestion": "How many <b class=\"r\">red<\/b> marbles did you actually draw (before any changes)? ",
            "catchKey": -1,
            "catchResponse": -1,
            "catchTime": 1678836750021,
            "trialTime": 0
        },
        {
            "exptPart": "trial",
            "trialNumber": 75,
            "roleCurrent": "receiver",
            "marblesSampled": 100,
            "probRed": 0.5,
            "lambda": 5,
            "drawnRed": 71,
            "reportedRed": 76,
            "inferredRed": 71,
            "playerTrialScore": 0,
            "oppTrialScore": 0,
            "playerTotalScore": -71,
            "oppTotalScore": -411,
            "waitTime": 5596.605690889181,
            "responseTime": 1678836798937,
            "catchQuestion": "How many <b class=\"r\">red<\/b> marbles did you actually draw (before any changes)? ",
            "catchKey": -1,
            "catchResponse": -1,
            "catchTime": 1678836798937,
            "trialTime": 0
        },
        {
            "exptPart": "trial",
            "trialNumber": 76,
            "roleCurrent": "sender",
            "marblesSampled": 100,
            "probRed": 0.5,
            "lambda": 5,
            "drawnRed": 26,
            "reportedRed": 25,
            "inferredRed": 20,
            "playerTrialScore": 0,
            "oppTrialScore": -6,
            "playerTotalScore": -71,
            "oppTotalScore": -417,
            "waitTime": 2830.7479238490505,
            "responseTime": 1678836824652,
            "catchQuestion": "How many <b class=\"r\">red<\/b> marbles did you actually draw (before any changes)? ",
            "catchKey": -1,
            "catchResponse": -1,
            "catchTime": 1678836798937,
            "trialTime": 0
        },
        {
            "exptPart": "trial",
            "trialNumber": 77,
            "roleCurrent": "receiver",
            "marblesSampled": 100,
            "probRed": 0.5,
            "lambda": 5,
            "drawnRed": 52,
            "reportedRed": 53,
            "inferredRed": 50,
            "playerTrialScore": -2,
            "oppTrialScore": 0,
            "playerTotalScore": -73,
            "oppTotalScore": -417,
            "waitTime": 6764.541266466298,
            "responseTime": 1678836835122,
            "catchQuestion": "How many <b class=\"r\">red<\/b> marbles did you actually draw (before any changes)? ",
            "catchKey": -1,
            "catchResponse": -1,
            "catchTime": 1678836798937,
            "trialTime": 0
        },
        {
            "exptPart": "trial",
            "trialNumber": 78,
            "roleCurrent": "sender",
            "marblesSampled": 100,
            "probRed": 0.5,
            "lambda": 5,
            "drawnRed": 48,
            "reportedRed": 48,
            "inferredRed": 40,
            "playerTrialScore": 0,
            "oppTrialScore": -8,
            "playerTotalScore": -73,
            "oppTotalScore": -425,
            "waitTime": 3239.702057457744,
            "responseTime": 1678836846040,
            "catchQuestion": "How many <b class=\"r\">red<\/b> marbles did you actually draw (before any changes)? ",
            "catchKey": -1,
            "catchResponse": -1,
            "catchTime": 1678836798937,
            "trialTime": 0
        },
        {
            "exptPart": "trial",
            "trialNumber": 79,
            "roleCurrent": "receiver",
            "marblesSampled": 100,
            "probRed": 0.5,
            "lambda": 5,
            "drawnRed": 64,
            "reportedRed": 74,
            "inferredRed": 70,
            "playerTrialScore": -6,
            "oppTrialScore": 6,
            "playerTotalScore": -79,
            "oppTotalScore": -419,
            "waitTime": 5183.01351482779,
            "responseTime": 1678836856531,
            "catchQuestion": "How many <b class=\"r\">red<\/b> marbles did you actually draw (before any changes)? ",
            "catchKey": -1,
            "catchResponse": -1,
            "catchTime": 1678836798937,
            "trialTime": 0
        },
        {
            "exptPart": "trial",
            "trialNumber": 80,
            "roleCurrent": "sender",
            "marblesSampled": 100,
            "probRed": 0.5,
            "lambda": 5,
            "drawnRed": 39,
            "reportedRed": 39,
            "inferredRed": 34,
            "playerTrialScore": 0,
            "oppTrialScore": -5,
            "playerTotalScore": -79,
            "oppTotalScore": -424,
            "waitTime": 2494.2686174043147,
            "responseTime": 1678836866229,
            "catchQuestion": "How many <b class=\"r\">red<\/b> marbles did you actually draw (before any changes)? ",
            "catchKey": -1,
            "catchResponse": -1,
            "catchTime": 1678836866229,
            "trialTime": 0
        },
        {
            "exptPart": "trial",
            "trialNumber": 81,
            "roleCurrent": "receiver",
            "marblesSampled": 100,
            "probRed": 0.5,
            "lambda": 5,
            "drawnRed": 76,
            "reportedRed": 82,
            "inferredRed": 80,
            "playerTrialScore": -4,
            "oppTrialScore": 4,
            "playerTotalScore": -83,
            "oppTotalScore": -420,
            "waitTime": 5684.003768341658,
            "responseTime": 1678836878087,
            "catchQuestion": "How many <b class=\"r\">red<\/b> marbles did you actually draw (before any changes)? ",
            "catchKey": -1,
            "catchResponse": -1,
            "catchTime": 1678836866229,
            "trialTime": 0
        },
        {
            "exptPart": "trial",
            "trialNumber": 82,
            "roleCurrent": "sender",
            "marblesSampled": 100,
            "probRed": 0.5,
            "lambda": 5,
            "drawnRed": 85,
            "reportedRed": 85,
            "inferredRed": 83,
            "playerTrialScore": 0,
            "oppTrialScore": -2,
            "playerTotalScore": -83,
            "oppTotalScore": -422,
            "waitTime": 2890.1770610031863,
            "responseTime": 1678836886902,
            "catchQuestion": "How many <b class=\"r\">red<\/b> marbles did you actually draw (before any changes)? ",
            "catchKey": -1,
            "catchResponse": -1,
            "catchTime": 1678836866229,
            "trialTime": 0
        },
        {
            "exptPart": "trial",
            "trialNumber": 83,
            "roleCurrent": "receiver",
            "marblesSampled": 100,
            "probRed": 0.5,
            "lambda": 5,
            "drawnRed": 48,
            "reportedRed": 51,
            "inferredRed": 50,
            "playerTrialScore": -2,
            "oppTrialScore": 2,
            "playerTotalScore": -85,
            "oppTotalScore": -420,
            "waitTime": 6331.398759628206,
            "responseTime": 1678836896669,
            "catchQuestion": "How many <b class=\"r\">red<\/b> marbles did you actually draw (before any changes)? ",
            "catchKey": -1,
            "catchResponse": -1,
            "catchTime": 1678836866229,
            "trialTime": 0
        },
        {
            "exptPart": "trial",
            "trialNumber": 84,
            "roleCurrent": "sender",
            "marblesSampled": 100,
            "probRed": 0.5,
            "lambda": 5,
            "drawnRed": 60,
            "reportedRed": 60,
            "inferredRed": 51,
            "playerTrialScore": 0,
            "oppTrialScore": -9,
            "playerTotalScore": -85,
            "oppTotalScore": -429,
            "waitTime": 2701.350341935648,
            "responseTime": 1678836910272,
            "catchQuestion": "How many <b class=\"r\">red<\/b> marbles did you actually draw (before any changes)? ",
            "catchKey": 60,
            "catchResponse": 64,
            "catchTime": 1678836910273,
            "trialTime": 0
        },
        {
            "exptPart": "trial",
            "trialNumber": 85,
            "roleCurrent": "receiver",
            "marblesSampled": 100,
            "probRed": 0.5,
            "lambda": 5,
            "drawnRed": 92,
            "reportedRed": 97,
            "inferredRed": 95,
            "playerTrialScore": -3,
            "oppTrialScore": 3,
            "playerTotalScore": -88,
            "oppTotalScore": -426,
            "waitTime": 6732.479800331164,
            "responseTime": 1678836935786,
            "catchQuestion": "How many <b class=\"r\">red<\/b> marbles did your opponent report drawing? ",
            "catchKey": 97,
            "catchResponse": 97,
            "catchTime": 1678836935786,
            "trialTime": 0
        },
        {
            "exptPart": "trial",
            "trialNumber": 86,
            "roleCurrent": "sender",
            "marblesSampled": 100,
            "probRed": 0.5,
            "lambda": 5,
            "drawnRed": 54,
            "reportedRed": 51,
            "inferredRed": 44,
            "playerTrialScore": 0,
            "oppTrialScore": -10,
            "playerTotalScore": -88,
            "oppTotalScore": -436,
            "waitTime": 2825.1483788350615,
            "responseTime": 1678836962807,
            "catchQuestion": "How many <b class=\"r\">red<\/b> marbles did you actually draw (before any changes)? ",
            "catchKey": 54,
            "catchResponse": 54,
            "catchTime": 1678836962808,
            "trialTime": 0
        },
        {
            "exptPart": "trial",
            "trialNumber": 87,
            "roleCurrent": "receiver",
            "marblesSampled": 100,
            "probRed": 0.5,
            "lambda": 5,
            "drawnRed": 18,
            "reportedRed": 22,
            "inferredRed": 20,
            "playerTrialScore": -2,
            "oppTrialScore": 2,
            "playerTotalScore": -90,
            "oppTotalScore": -434,
            "waitTime": 6186.1462197035,
            "responseTime": 1678836978326,
            "catchQuestion": "How many <b class=\"r\">red<\/b> marbles did you actually draw (before any changes)? ",
            "catchKey": -1,
            "catchResponse": -1,
            "catchTime": 1678836962808,
            "trialTime": 0
        },
        {
            "exptPart": "trial",
            "trialNumber": 88,
            "roleCurrent": "sender",
            "marblesSampled": 100,
            "probRed": 0.5,
            "lambda": 5,
            "drawnRed": 53,
            "reportedRed": 46,
            "inferredRed": 40,
            "playerTrialScore": 0,
            "oppTrialScore": -13,
            "playerTotalScore": -90,
            "oppTotalScore": -447,
            "waitTime": 2186.080667742582,
            "responseTime": 1678836992321,
            "catchQuestion": "How many <b class=\"r\">red<\/b> marbles did you actually draw (before any changes)? ",
            "catchKey": -1,
            "catchResponse": -1,
            "catchTime": 1678836962808,
            "trialTime": 0
        },
        {
            "exptPart": "trial",
            "trialNumber": 89,
            "roleCurrent": "receiver",
            "marblesSampled": 100,
            "probRed": 0.5,
            "lambda": 5,
            "drawnRed": 44,
            "reportedRed": 48,
            "inferredRed": 45,
            "playerTrialScore": -1,
            "oppTrialScore": 1,
            "playerTotalScore": -91,
            "oppTotalScore": -446,
            "waitTime": 7493.740155748894,
            "responseTime": 1678837003012,
            "catchQuestion": "How many <b class=\"r\">red<\/b> marbles did your opponent report drawing? ",
            "catchKey": 48,
            "catchResponse": 48,
            "catchTime": 1678837003012,
            "trialTime": 0
        },
        {
            "exptPart": "trial",
            "trialNumber": 90,
            "roleCurrent": "sender",
            "marblesSampled": 100,
            "probRed": 0.5,
            "lambda": 5,
            "drawnRed": 26,
            "reportedRed": 25,
            "inferredRed": 18,
            "playerTrialScore": 0,
            "oppTrialScore": -8,
            "playerTotalScore": -91,
            "oppTotalScore": -454,
            "waitTime": 3183.3956304697344,
            "responseTime": 1678837017080,
            "catchQuestion": "How many <b class=\"r\">red<\/b> marbles did your opponent report drawing? ",
            "catchKey": -1,
            "catchResponse": -1,
            "catchTime": 1678837017080,
            "trialTime": 0
        },
        {
            "exptPart": "trial",
            "trialNumber": 91,
            "roleCurrent": "receiver",
            "marblesSampled": 100,
            "probRed": 0.5,
            "lambda": 5,
            "drawnRed": 80,
            "reportedRed": 86,
            "inferredRed": 80,
            "playerTrialScore": 0,
            "oppTrialScore": 0,
            "playerTotalScore": -91,
            "oppTotalScore": -454,
            "waitTime": 5812.348683134489,
            "responseTime": 1678837028873,
            "catchQuestion": "How many <b class=\"r\">red<\/b> marbles did your opponent report drawing? ",
            "catchKey": -1,
            "catchResponse": -1,
            "catchTime": 1678837017080,
            "trialTime": 0
        },
        {
            "exptPart": "trial",
            "trialNumber": 92,
            "roleCurrent": "sender",
            "marblesSampled": 100,
            "probRed": 0.5,
            "lambda": 5,
            "drawnRed": 31,
            "reportedRed": 25,
            "inferredRed": 21,
            "playerTrialScore": 0,
            "oppTrialScore": -10,
            "playerTotalScore": -91,
            "oppTotalScore": -464,
            "waitTime": 2324.4367329270844,
            "responseTime": 1678837042611,
            "catchQuestion": "How many <b class=\"r\">red<\/b> marbles did your opponent report drawing? ",
            "catchKey": -1,
            "catchResponse": -1,
            "catchTime": 1678837017080,
            "trialTime": 0
        },
        {
            "exptPart": "trial",
            "trialNumber": 93,
            "roleCurrent": "receiver",
            "marblesSampled": 100,
            "probRed": 0.5,
            "lambda": 5,
            "drawnRed": 47,
            "reportedRed": 53,
            "inferredRed": 49,
            "playerTrialScore": -2,
            "oppTrialScore": 2,
            "playerTotalScore": -93,
            "oppTotalScore": -462,
            "waitTime": 5264.963339278436,
            "responseTime": 1678837051717,
            "catchQuestion": "How many <b class=\"r\">red<\/b> marbles did your opponent report drawing? ",
            "catchKey": -1,
            "catchResponse": -1,
            "catchTime": 1678837017080,
            "trialTime": 0
        },
        {
            "exptPart": "trial",
            "trialNumber": 94,
            "roleCurrent": "sender",
            "marblesSampled": 100,
            "probRed": 0.5,
            "lambda": 5,
            "drawnRed": 33,
            "reportedRed": 27,
            "inferredRed": 26,
            "playerTrialScore": 0,
            "oppTrialScore": -7,
            "playerTotalScore": -93,
            "oppTotalScore": -469,
            "waitTime": 3020.3298995616615,
            "responseTime": 1678837065601,
            "catchQuestion": "How many <b class=\"r\">red<\/b> marbles did your opponent report drawing? ",
            "catchKey": -1,
            "catchResponse": -1,
            "catchTime": 1678837017080,
            "trialTime": 0
        },
        {
            "exptPart": "trial",
            "trialNumber": 95,
            "roleCurrent": "receiver",
            "marblesSampled": 100,
            "probRed": 0.5,
            "lambda": 5,
            "drawnRed": 44,
            "reportedRed": 48,
            "inferredRed": 43,
            "playerTrialScore": -1,
            "oppTrialScore": 0,
            "playerTotalScore": -94,
            "oppTotalScore": -469,
            "waitTime": 5345.864179015607,
            "responseTime": 1678837079922,
            "catchQuestion": "How many <b class=\"r\">red<\/b> marbles did your opponent report drawing? ",
            "catchKey": -1,
            "catchResponse": -1,
            "catchTime": 1678837079922,
            "trialTime": 0
        },
        {
            "exptPart": "trial",
            "trialNumber": 96,
            "roleCurrent": "sender",
            "marblesSampled": 100,
            "probRed": 0.5,
            "lambda": 5,
            "drawnRed": 42,
            "reportedRed": 38,
            "inferredRed": 31,
            "playerTrialScore": 0,
            "oppTrialScore": -11,
            "playerTotalScore": -94,
            "oppTotalScore": -480,
            "waitTime": 2082.8498691376417,
            "responseTime": 1678837092160,
            "catchQuestion": "How many <b class=\"r\">red<\/b> marbles did you actually draw (before any changes)? ",
            "catchKey": 42,
            "catchResponse": 42,
            "catchTime": 1678837092160,
            "trialTime": 0
        },
        {
            "exptPart": "trial",
            "trialNumber": 97,
            "roleCurrent": "receiver",
            "marblesSampled": 100,
            "probRed": 0.5,
            "lambda": 5,
            "drawnRed": 20,
            "reportedRed": 29,
            "inferredRed": 25,
            "playerTrialScore": -5,
            "oppTrialScore": 5,
            "playerTotalScore": -99,
            "oppTotalScore": -475,
            "waitTime": 5238.075254105184,
            "responseTime": 1678837108353,
            "catchQuestion": "How many <b class=\"r\">red<\/b> marbles did you actually draw (before any changes)? ",
            "catchKey": -1,
            "catchResponse": -1,
            "catchTime": 1678837092160,
            "trialTime": 0
        },
        {
            "exptPart": "trial",
            "trialNumber": 98,
            "roleCurrent": "sender",
            "marblesSampled": 100,
            "probRed": 0.5,
            "lambda": 5,
            "drawnRed": 87,
            "reportedRed": 87,
            "inferredRed": 84,
            "playerTrialScore": 0,
            "oppTrialScore": -3,
            "playerTotalScore": -99,
            "oppTotalScore": -478,
            "waitTime": 2067.2423560926545,
            "responseTime": 1678837117061,
            "catchQuestion": "How many <b class=\"r\">red<\/b> marbles did you actually draw (before any changes)? ",
            "catchKey": -1,
            "catchResponse": -1,
            "catchTime": 1678837092160,
            "trialTime": 0
        },
        {
            "exptPart": "trial",
            "trialNumber": 99,
            "roleCurrent": "receiver",
            "marblesSampled": 100,
            "probRed": 0.5,
            "lambda": 5,
            "drawnRed": 49,
            "reportedRed": 50,
            "inferredRed": 45,
            "playerTrialScore": -4,
            "oppTrialScore": 0,
            "playerTotalScore": -103,
            "oppTotalScore": -478,
            "waitTime": 6539.286753616495,
            "responseTime": 1678837128387,
            "catchQuestion": "How many <b class=\"r\">red<\/b> marbles did you actually draw (before any changes)? ",
            "catchKey": -1,
            "catchResponse": -1,
            "catchTime": 1678837092160,
            "trialTime": 0
        },
        {
            "exptPart": "trial",
            "trialNumber": 100,
            "roleCurrent": "sender",
            "marblesSampled": 100,
            "probRed": 0.5,
            "lambda": 5,
            "drawnRed": 48,
            "reportedRed": 42,
            "inferredRed": 37,
            "playerTrialScore": 0,
            "oppTrialScore": -11,
            "playerTotalScore": -103,
            "oppTotalScore": -489,
            "waitTime": 2543.961416779369,
            "responseTime": 1678837140565,
            "catchQuestion": "How many <b class=\"r\">red<\/b> marbles did you actually draw (before any changes)? ",
            "catchKey": -1,
            "catchResponse": -1,
            "catchTime": 1678837140565,
            "trialTime": 0
        }
    ]
}