{
    "client": {
        "type": "sona",
        "experiment_id": 2228,
        "credit_token": "b315147ae43241ea9c65086cb510cfb7",
        "survey_code": "40718",
        "sid": "sona-40718",
        "window": {
            "width": 1440,
            "height": 663
        },
        "screen": {
            "width": 1440,
            "height": 900
        },
        "userAgent": "Mozilla\/5.0 (Macintosh; Intel Mac OS X 10_15_7) AppleWebKit\/537.36 (KHTML, like Gecko) Chrome\/110.0.0.0 Safari\/537.36",
        "score": 0,
        "bonus": 0
    },
    "expt": {
        "saveURL": "submit.simple.php",
        "trials": 100,
        "practiceTrials": 2,
        "marblesSampled": 100,
        "probRed": 0.5,
        "lambdaAI": 5,
        "roleFirst": "receiver",
        "roles": [
            "sender",
            "receiver"
        ],
        "cost": "unif",
        "goal": "over",
        "goalInstructTxt": "below",
        "catchTrials": [
            79,
            64,
            63,
            40,
            86,
            47,
            73,
            67,
            1,
            46
        ],
        "scoreTotal": {
            "player": -298,
            "opp": -1732
        },
        "sona": {
            "experiment_id": 2228,
            "credit_token": "b315147ae43241ea9c65086cb510cfb7"
        },
        "pilot": false,
        "debug": false
    },
    "trials": [
        {
            "exptPart": "practice",
            "trialNumber": 1,
            "roleCurrent": "sender",
            "marblesSampled": 100,
            "probRed": 0.5,
            "lambda": 5,
            "drawnRed": 45,
            "reportedRed": 49,
            "inferredRed": 45,
            "playerTrialScore": 0,
            "oppTrialScore": 0,
            "playerTotalScore": 0,
            "oppTotalScore": 0,
            "waitTime": 2274.4856779905053,
            "responseTime": 1678833327433,
            "catchQuestion": "How many <b class=\"r\">red<\/b> marbles did you actually draw (before any changes)? ",
            "catchKey": 45,
            "catchResponse": 48,
            "catchTime": 1678833327434,
            "trialTime": 0
        },
        {
            "exptPart": "practice",
            "trialNumber": 2,
            "roleCurrent": "receiver",
            "marblesSampled": 100,
            "probRed": 0.5,
            "lambda": 5,
            "drawnRed": 86,
            "reportedRed": 92,
            "inferredRed": 39,
            "playerTrialScore": -47,
            "oppTrialScore": 0,
            "playerTotalScore": -47,
            "oppTotalScore": 0,
            "waitTime": 5160.602990518503,
            "responseTime": 1678833370049,
            "catchQuestion": "How many <b class=\"r\">red<\/b> marbles did your opponent report drawing? ",
            "catchKey": 92,
            "catchResponse": 97,
            "catchTime": 1678833370050,
            "trialTime": 0
        },
        {
            "exptPart": "trial",
            "trialNumber": 1,
            "roleCurrent": "receiver",
            "marblesSampled": 100,
            "probRed": 0.5,
            "lambda": 5,
            "drawnRed": 73,
            "reportedRed": 79,
            "inferredRed": 37,
            "playerTrialScore": -36,
            "oppTrialScore": 0,
            "playerTotalScore": -36,
            "oppTotalScore": 0,
            "waitTime": 5270.648866137429,
            "responseTime": 1678833407866,
            "catchQuestion": "How many <b class=\"r\">red<\/b> marbles did your opponent report drawing? ",
            "catchKey": -1,
            "catchResponse": -1,
            "catchTime": 1678833370050,
            "trialTime": 0
        },
        {
            "exptPart": "trial",
            "trialNumber": 2,
            "roleCurrent": "sender",
            "marblesSampled": 100,
            "probRed": 0.5,
            "lambda": 5,
            "drawnRed": 65,
            "reportedRed": 40,
            "inferredRed": 33,
            "playerTrialScore": 0,
            "oppTrialScore": -32,
            "playerTotalScore": -36,
            "oppTotalScore": -32,
            "waitTime": 3242.174452384777,
            "responseTime": 1678833468565,
            "catchQuestion": "How many <b class=\"r\">red<\/b> marbles did you actually draw (before any changes)? ",
            "catchKey": 65,
            "catchResponse": 65,
            "catchTime": 1678833468565,
            "trialTime": 0
        },
        {
            "exptPart": "trial",
            "trialNumber": 3,
            "roleCurrent": "receiver",
            "marblesSampled": 100,
            "probRed": 0.5,
            "lambda": 5,
            "drawnRed": 69,
            "reportedRed": 74,
            "inferredRed": 48,
            "playerTrialScore": -21,
            "oppTrialScore": 0,
            "playerTotalScore": -57,
            "oppTotalScore": -32,
            "waitTime": 6456.0411138295785,
            "responseTime": 1678833493316,
            "catchQuestion": "How many <b class=\"r\">red<\/b> marbles did you actually draw (before any changes)? ",
            "catchKey": -1,
            "catchResponse": -1,
            "catchTime": 1678833468565,
            "trialTime": 0
        },
        {
            "exptPart": "trial",
            "trialNumber": 4,
            "roleCurrent": "sender",
            "marblesSampled": 100,
            "probRed": 0.5,
            "lambda": 5,
            "drawnRed": 61,
            "reportedRed": 50,
            "inferredRed": 46,
            "playerTrialScore": 0,
            "oppTrialScore": -15,
            "playerTotalScore": -57,
            "oppTotalScore": -47,
            "waitTime": 3134.6957025353195,
            "responseTime": 1678833523299,
            "catchQuestion": "How many <b class=\"r\">red<\/b> marbles did you actually draw (before any changes)? ",
            "catchKey": -1,
            "catchResponse": -1,
            "catchTime": 1678833468565,
            "trialTime": 0
        },
        {
            "exptPart": "trial",
            "trialNumber": 5,
            "roleCurrent": "receiver",
            "marblesSampled": 100,
            "probRed": 0.5,
            "lambda": 5,
            "drawnRed": 55,
            "reportedRed": 63,
            "inferredRed": 50,
            "playerTrialScore": -5,
            "oppTrialScore": 0,
            "playerTotalScore": -62,
            "oppTotalScore": -47,
            "waitTime": 5223.142307707592,
            "responseTime": 1678833552482,
            "catchQuestion": "How many <b class=\"r\">red<\/b> marbles did you actually draw (before any changes)? ",
            "catchKey": -1,
            "catchResponse": -1,
            "catchTime": 1678833552482,
            "trialTime": 0
        },
        {
            "exptPart": "trial",
            "trialNumber": 6,
            "roleCurrent": "sender",
            "marblesSampled": 100,
            "probRed": 0.5,
            "lambda": 5,
            "drawnRed": 44,
            "reportedRed": 12,
            "inferredRed": 6,
            "playerTrialScore": 0,
            "oppTrialScore": -38,
            "playerTotalScore": -62,
            "oppTotalScore": -85,
            "waitTime": 2469.118083196361,
            "responseTime": 1678833583532,
            "catchQuestion": "How many <b class=\"r\">red<\/b> marbles did you actually draw (before any changes)? ",
            "catchKey": -1,
            "catchResponse": -1,
            "catchTime": 1678833552482,
            "trialTime": 0
        },
        {
            "exptPart": "trial",
            "trialNumber": 7,
            "roleCurrent": "receiver",
            "marblesSampled": 100,
            "probRed": 0.5,
            "lambda": 5,
            "drawnRed": 34,
            "reportedRed": 39,
            "inferredRed": 18,
            "playerTrialScore": -16,
            "oppTrialScore": 0,
            "playerTotalScore": -78,
            "oppTotalScore": -85,
            "waitTime": 6432.823205696404,
            "responseTime": 1678833598033,
            "catchQuestion": "How many <b class=\"r\">red<\/b> marbles did you actually draw (before any changes)? ",
            "catchKey": -1,
            "catchResponse": -1,
            "catchTime": 1678833552482,
            "trialTime": 0
        },
        {
            "exptPart": "trial",
            "trialNumber": 8,
            "roleCurrent": "sender",
            "marblesSampled": 100,
            "probRed": 0.5,
            "lambda": 5,
            "drawnRed": 61,
            "reportedRed": 23,
            "inferredRed": 15,
            "playerTrialScore": 0,
            "oppTrialScore": -46,
            "playerTotalScore": -78,
            "oppTotalScore": -131,
            "waitTime": 2493.1796765879412,
            "responseTime": 1678833625115,
            "catchQuestion": "How many <b class=\"r\">red<\/b> marbles did you actually draw (before any changes)? ",
            "catchKey": -1,
            "catchResponse": -1,
            "catchTime": 1678833552482,
            "trialTime": 0
        },
        {
            "exptPart": "trial",
            "trialNumber": 9,
            "roleCurrent": "receiver",
            "marblesSampled": 100,
            "probRed": 0.5,
            "lambda": 5,
            "drawnRed": 78,
            "reportedRed": 84,
            "inferredRed": 30,
            "playerTrialScore": -48,
            "oppTrialScore": 0,
            "playerTotalScore": -126,
            "oppTotalScore": -131,
            "waitTime": 6324.739015280998,
            "responseTime": 1678833638199,
            "catchQuestion": "How many <b class=\"r\">red<\/b> marbles did you actually draw (before any changes)? ",
            "catchKey": -1,
            "catchResponse": -1,
            "catchTime": 1678833552482,
            "trialTime": 0
        },
        {
            "exptPart": "trial",
            "trialNumber": 10,
            "roleCurrent": "sender",
            "marblesSampled": 100,
            "probRed": 0.5,
            "lambda": 5,
            "drawnRed": 54,
            "reportedRed": 54,
            "inferredRed": 49,
            "playerTrialScore": 0,
            "oppTrialScore": -5,
            "playerTotalScore": -126,
            "oppTotalScore": -136,
            "waitTime": 3001.7895056797056,
            "responseTime": 1678833658133,
            "catchQuestion": "How many <b class=\"r\">red<\/b> marbles did you actually draw (before any changes)? ",
            "catchKey": -1,
            "catchResponse": -1,
            "catchTime": 1678833658133,
            "trialTime": 0
        },
        {
            "exptPart": "trial",
            "trialNumber": 11,
            "roleCurrent": "receiver",
            "marblesSampled": 100,
            "probRed": 0.5,
            "lambda": 5,
            "drawnRed": 58,
            "reportedRed": 59,
            "inferredRed": 38,
            "playerTrialScore": -20,
            "oppTrialScore": 0,
            "playerTotalScore": -146,
            "oppTotalScore": -136,
            "waitTime": 6963.495481855969,
            "responseTime": 1678833675815,
            "catchQuestion": "How many <b class=\"r\">red<\/b> marbles did you actually draw (before any changes)? ",
            "catchKey": -1,
            "catchResponse": -1,
            "catchTime": 1678833658133,
            "trialTime": 0
        },
        {
            "exptPart": "trial",
            "trialNumber": 12,
            "roleCurrent": "sender",
            "marblesSampled": 100,
            "probRed": 0.5,
            "lambda": 5,
            "drawnRed": 73,
            "reportedRed": 97,
            "inferredRed": 86,
            "playerTrialScore": 13,
            "oppTrialScore": -13,
            "playerTotalScore": -133,
            "oppTotalScore": -149,
            "waitTime": 3009.7464985883003,
            "responseTime": 1678833730383,
            "catchQuestion": "How many <b class=\"r\">red<\/b> marbles did you actually draw (before any changes)? ",
            "catchKey": -1,
            "catchResponse": -1,
            "catchTime": 1678833658133,
            "trialTime": 0
        },
        {
            "exptPart": "trial",
            "trialNumber": 13,
            "roleCurrent": "receiver",
            "marblesSampled": 100,
            "probRed": 0.5,
            "lambda": 5,
            "drawnRed": 66,
            "reportedRed": 69,
            "inferredRed": 20,
            "playerTrialScore": -46,
            "oppTrialScore": 0,
            "playerTotalScore": -179,
            "oppTotalScore": -149,
            "waitTime": 6021.753988714166,
            "responseTime": 1678833748733,
            "catchQuestion": "How many <b class=\"r\">red<\/b> marbles did you actually draw (before any changes)? ",
            "catchKey": -1,
            "catchResponse": -1,
            "catchTime": 1678833658133,
            "trialTime": 0
        },
        {
            "exptPart": "trial",
            "trialNumber": 14,
            "roleCurrent": "sender",
            "marblesSampled": 100,
            "probRed": 0.5,
            "lambda": 5,
            "drawnRed": 24,
            "reportedRed": 69,
            "inferredRed": 65,
            "playerTrialScore": 41,
            "oppTrialScore": -41,
            "playerTotalScore": -138,
            "oppTotalScore": -190,
            "waitTime": 2422.4202977571413,
            "responseTime": 1678833777832,
            "catchQuestion": "How many <b class=\"r\">red<\/b> marbles did you actually draw (before any changes)? ",
            "catchKey": -1,
            "catchResponse": -1,
            "catchTime": 1678833658133,
            "trialTime": 0
        },
        {
            "exptPart": "trial",
            "trialNumber": 15,
            "roleCurrent": "receiver",
            "marblesSampled": 100,
            "probRed": 0.5,
            "lambda": 5,
            "drawnRed": 41,
            "reportedRed": 52,
            "inferredRed": 23,
            "playerTrialScore": -18,
            "oppTrialScore": 0,
            "playerTotalScore": -156,
            "oppTotalScore": -190,
            "waitTime": 6924.966019044203,
            "responseTime": 1678833789365,
            "catchQuestion": "How many <b class=\"r\">red<\/b> marbles did you actually draw (before any changes)? ",
            "catchKey": -1,
            "catchResponse": -1,
            "catchTime": 1678833789365,
            "trialTime": 0
        },
        {
            "exptPart": "trial",
            "trialNumber": 16,
            "roleCurrent": "sender",
            "marblesSampled": 100,
            "probRed": 0.5,
            "lambda": 5,
            "drawnRed": 44,
            "reportedRed": 74,
            "inferredRed": 71,
            "playerTrialScore": 27,
            "oppTrialScore": -27,
            "playerTotalScore": -129,
            "oppTotalScore": -217,
            "waitTime": 2245.6305876092556,
            "responseTime": 1678833810782,
            "catchQuestion": "How many <b class=\"r\">red<\/b> marbles did you actually draw (before any changes)? ",
            "catchKey": -1,
            "catchResponse": -1,
            "catchTime": 1678833789365,
            "trialTime": 0
        },
        {
            "exptPart": "trial",
            "trialNumber": 17,
            "roleCurrent": "receiver",
            "marblesSampled": 100,
            "probRed": 0.5,
            "lambda": 5,
            "drawnRed": 69,
            "reportedRed": 75,
            "inferredRed": 35,
            "playerTrialScore": -34,
            "oppTrialScore": 0,
            "playerTotalScore": -163,
            "oppTotalScore": -217,
            "waitTime": 7246.050215895252,
            "responseTime": 1678833825632,
            "catchQuestion": "How many <b class=\"r\">red<\/b> marbles did you actually draw (before any changes)? ",
            "catchKey": -1,
            "catchResponse": -1,
            "catchTime": 1678833789365,
            "trialTime": 0
        },
        {
            "exptPart": "trial",
            "trialNumber": 18,
            "roleCurrent": "sender",
            "marblesSampled": 100,
            "probRed": 0.5,
            "lambda": 5,
            "drawnRed": 62,
            "reportedRed": 86,
            "inferredRed": 85,
            "playerTrialScore": 23,
            "oppTrialScore": -23,
            "playerTotalScore": -140,
            "oppTotalScore": -240,
            "waitTime": 2179.8778827548535,
            "responseTime": 1678833853815,
            "catchQuestion": "How many <b class=\"r\">red<\/b> marbles did you actually draw (before any changes)? ",
            "catchKey": -1,
            "catchResponse": -1,
            "catchTime": 1678833789365,
            "trialTime": 0
        },
        {
            "exptPart": "trial",
            "trialNumber": 19,
            "roleCurrent": "receiver",
            "marblesSampled": 100,
            "probRed": 0.5,
            "lambda": 5,
            "drawnRed": 32,
            "reportedRed": 41,
            "inferredRed": 12,
            "playerTrialScore": -20,
            "oppTrialScore": 0,
            "playerTotalScore": -160,
            "oppTotalScore": -240,
            "waitTime": 6347.693823833661,
            "responseTime": 1678833870765,
            "catchQuestion": "How many <b class=\"r\">red<\/b> marbles did you actually draw (before any changes)? ",
            "catchKey": -1,
            "catchResponse": -1,
            "catchTime": 1678833789365,
            "trialTime": 0
        },
        {
            "exptPart": "trial",
            "trialNumber": 20,
            "roleCurrent": "sender",
            "marblesSampled": 100,
            "probRed": 0.5,
            "lambda": 5,
            "drawnRed": 33,
            "reportedRed": 66,
            "inferredRed": 62,
            "playerTrialScore": 29,
            "oppTrialScore": -29,
            "playerTotalScore": -131,
            "oppTotalScore": -269,
            "waitTime": 3091.5117150939927,
            "responseTime": 1678833894083,
            "catchQuestion": "How many <b class=\"r\">red<\/b> marbles did you actually draw (before any changes)? ",
            "catchKey": -1,
            "catchResponse": -1,
            "catchTime": 1678833894083,
            "trialTime": 0
        },
        {
            "exptPart": "trial",
            "trialNumber": 21,
            "roleCurrent": "receiver",
            "marblesSampled": 100,
            "probRed": 0.5,
            "lambda": 5,
            "drawnRed": 16,
            "reportedRed": 23,
            "inferredRed": 10,
            "playerTrialScore": -6,
            "oppTrialScore": 0,
            "playerTotalScore": -137,
            "oppTotalScore": -269,
            "waitTime": 7278.744052440747,
            "responseTime": 1678833913164,
            "catchQuestion": "How many <b class=\"r\">red<\/b> marbles did you actually draw (before any changes)? ",
            "catchKey": -1,
            "catchResponse": -1,
            "catchTime": 1678833894083,
            "trialTime": 0
        },
        {
            "exptPart": "trial",
            "trialNumber": 22,
            "roleCurrent": "sender",
            "marblesSampled": 100,
            "probRed": 0.5,
            "lambda": 5,
            "drawnRed": 29,
            "reportedRed": 64,
            "inferredRed": 58,
            "playerTrialScore": 29,
            "oppTrialScore": -29,
            "playerTotalScore": -108,
            "oppTotalScore": -298,
            "waitTime": 2489.7897819803,
            "responseTime": 1678833940174,
            "catchQuestion": "How many <b class=\"r\">red<\/b> marbles did you actually draw (before any changes)? ",
            "catchKey": -1,
            "catchResponse": -1,
            "catchTime": 1678833894083,
            "trialTime": 0
        },
        {
            "exptPart": "trial",
            "trialNumber": 23,
            "roleCurrent": "receiver",
            "marblesSampled": 100,
            "probRed": 0.5,
            "lambda": 5,
            "drawnRed": 58,
            "reportedRed": 65,
            "inferredRed": 24,
            "playerTrialScore": -34,
            "oppTrialScore": 0,
            "playerTotalScore": -142,
            "oppTotalScore": -298,
            "waitTime": 5441.403724572969,
            "responseTime": 1678833949161,
            "catchQuestion": "How many <b class=\"r\">red<\/b> marbles did you actually draw (before any changes)? ",
            "catchKey": -1,
            "catchResponse": -1,
            "catchTime": 1678833894083,
            "trialTime": 0
        },
        {
            "exptPart": "trial",
            "trialNumber": 24,
            "roleCurrent": "sender",
            "marblesSampled": 100,
            "probRed": 0.5,
            "lambda": 5,
            "drawnRed": 74,
            "reportedRed": 99,
            "inferredRed": 93,
            "playerTrialScore": 19,
            "oppTrialScore": -19,
            "playerTotalScore": -123,
            "oppTotalScore": -317,
            "waitTime": 3078.5494002801092,
            "responseTime": 1678833973445,
            "catchQuestion": "How many <b class=\"r\">red<\/b> marbles did you actually draw (before any changes)? ",
            "catchKey": -1,
            "catchResponse": -1,
            "catchTime": 1678833894083,
            "trialTime": 0
        },
        {
            "exptPart": "trial",
            "trialNumber": 25,
            "roleCurrent": "receiver",
            "marblesSampled": 100,
            "probRed": 0.5,
            "lambda": 5,
            "drawnRed": 53,
            "reportedRed": 58,
            "inferredRed": 15,
            "playerTrialScore": -38,
            "oppTrialScore": 0,
            "playerTotalScore": -161,
            "oppTotalScore": -317,
            "waitTime": 5209.761224912752,
            "responseTime": 1678833989346,
            "catchQuestion": "How many <b class=\"r\">red<\/b> marbles did you actually draw (before any changes)? ",
            "catchKey": -1,
            "catchResponse": -1,
            "catchTime": 1678833989346,
            "trialTime": 0
        },
        {
            "exptPart": "trial",
            "trialNumber": 26,
            "roleCurrent": "sender",
            "marblesSampled": 100,
            "probRed": 0.5,
            "lambda": 5,
            "drawnRed": 61,
            "reportedRed": 95,
            "inferredRed": 89,
            "playerTrialScore": 28,
            "oppTrialScore": -28,
            "playerTotalScore": -133,
            "oppTotalScore": -345,
            "waitTime": 2098.242870095836,
            "responseTime": 1678834016197,
            "catchQuestion": "How many <b class=\"r\">red<\/b> marbles did you actually draw (before any changes)? ",
            "catchKey": -1,
            "catchResponse": -1,
            "catchTime": 1678833989346,
            "trialTime": 0
        },
        {
            "exptPart": "trial",
            "trialNumber": 27,
            "roleCurrent": "receiver",
            "marblesSampled": 100,
            "probRed": 0.5,
            "lambda": 5,
            "drawnRed": 30,
            "reportedRed": 37,
            "inferredRed": 5,
            "playerTrialScore": -25,
            "oppTrialScore": 0,
            "playerTotalScore": -158,
            "oppTotalScore": -345,
            "waitTime": 5394.812263242686,
            "responseTime": 1678834026030,
            "catchQuestion": "How many <b class=\"r\">red<\/b> marbles did you actually draw (before any changes)? ",
            "catchKey": -1,
            "catchResponse": -1,
            "catchTime": 1678833989346,
            "trialTime": 0
        },
        {
            "exptPart": "trial",
            "trialNumber": 28,
            "roleCurrent": "sender",
            "marblesSampled": 100,
            "probRed": 0.5,
            "lambda": 5,
            "drawnRed": 40,
            "reportedRed": 93,
            "inferredRed": 84,
            "playerTrialScore": 44,
            "oppTrialScore": -44,
            "playerTotalScore": -114,
            "oppTotalScore": -389,
            "waitTime": 3158.7146268366146,
            "responseTime": 1678834068646,
            "catchQuestion": "How many <b class=\"r\">red<\/b> marbles did you actually draw (before any changes)? ",
            "catchKey": -1,
            "catchResponse": -1,
            "catchTime": 1678833989346,
            "trialTime": 0
        },
        {
            "exptPart": "trial",
            "trialNumber": 29,
            "roleCurrent": "receiver",
            "marblesSampled": 100,
            "probRed": 0.5,
            "lambda": 5,
            "drawnRed": 24,
            "reportedRed": 31,
            "inferredRed": 8,
            "playerTrialScore": -16,
            "oppTrialScore": 0,
            "playerTotalScore": -130,
            "oppTotalScore": -389,
            "waitTime": 5705.918950510348,
            "responseTime": 1678834081196,
            "catchQuestion": "How many <b class=\"r\">red<\/b> marbles did you actually draw (before any changes)? ",
            "catchKey": -1,
            "catchResponse": -1,
            "catchTime": 1678833989346,
            "trialTime": 0
        },
        {
            "exptPart": "trial",
            "trialNumber": 30,
            "roleCurrent": "sender",
            "marblesSampled": 100,
            "probRed": 0.5,
            "lambda": 5,
            "drawnRed": 21,
            "reportedRed": 74,
            "inferredRed": 69,
            "playerTrialScore": 48,
            "oppTrialScore": -48,
            "playerTotalScore": -82,
            "oppTotalScore": -437,
            "waitTime": 2075.714576743966,
            "responseTime": 1678834113712,
            "catchQuestion": "How many <b class=\"r\">red<\/b> marbles did you actually draw (before any changes)? ",
            "catchKey": -1,
            "catchResponse": -1,
            "catchTime": 1678834113713,
            "trialTime": 0
        },
        {
            "exptPart": "trial",
            "trialNumber": 31,
            "roleCurrent": "receiver",
            "marblesSampled": 100,
            "probRed": 0.5,
            "lambda": 5,
            "drawnRed": 41,
            "reportedRed": 50,
            "inferredRed": 12,
            "playerTrialScore": -29,
            "oppTrialScore": 0,
            "playerTotalScore": -111,
            "oppTotalScore": -437,
            "waitTime": 6316.4298397362845,
            "responseTime": 1678834124547,
            "catchQuestion": "How many <b class=\"r\">red<\/b> marbles did you actually draw (before any changes)? ",
            "catchKey": -1,
            "catchResponse": -1,
            "catchTime": 1678834113713,
            "trialTime": 0
        },
        {
            "exptPart": "trial",
            "trialNumber": 32,
            "roleCurrent": "sender",
            "marblesSampled": 100,
            "probRed": 0.5,
            "lambda": 5,
            "drawnRed": 39,
            "reportedRed": 93,
            "inferredRed": 89,
            "playerTrialScore": 50,
            "oppTrialScore": -50,
            "playerTotalScore": -61,
            "oppTotalScore": -487,
            "waitTime": 2445.1217790246546,
            "responseTime": 1678834164913,
            "catchQuestion": "How many <b class=\"r\">red<\/b> marbles did you actually draw (before any changes)? ",
            "catchKey": -1,
            "catchResponse": -1,
            "catchTime": 1678834113713,
            "trialTime": 0
        },
        {
            "exptPart": "trial",
            "trialNumber": 33,
            "roleCurrent": "receiver",
            "marblesSampled": 100,
            "probRed": 0.5,
            "lambda": 5,
            "drawnRed": 59,
            "reportedRed": 62,
            "inferredRed": 23,
            "playerTrialScore": -36,
            "oppTrialScore": 0,
            "playerTotalScore": -97,
            "oppTotalScore": -487,
            "waitTime": 5190.871201066595,
            "responseTime": 1678834173080,
            "catchQuestion": "How many <b class=\"r\">red<\/b> marbles did you actually draw (before any changes)? ",
            "catchKey": -1,
            "catchResponse": -1,
            "catchTime": 1678834113713,
            "trialTime": 0
        },
        {
            "exptPart": "trial",
            "trialNumber": 34,
            "roleCurrent": "sender",
            "marblesSampled": 100,
            "probRed": 0.5,
            "lambda": 5,
            "drawnRed": 43,
            "reportedRed": 78,
            "inferredRed": 72,
            "playerTrialScore": 29,
            "oppTrialScore": -29,
            "playerTotalScore": -68,
            "oppTotalScore": -516,
            "waitTime": 3084.3632291005556,
            "responseTime": 1678834203314,
            "catchQuestion": "How many <b class=\"r\">red<\/b> marbles did you actually draw (before any changes)? ",
            "catchKey": -1,
            "catchResponse": -1,
            "catchTime": 1678834113713,
            "trialTime": 0
        },
        {
            "exptPart": "trial",
            "trialNumber": 35,
            "roleCurrent": "receiver",
            "marblesSampled": 100,
            "probRed": 0.5,
            "lambda": 5,
            "drawnRed": 34,
            "reportedRed": 36,
            "inferredRed": 6,
            "playerTrialScore": -28,
            "oppTrialScore": 0,
            "playerTotalScore": -96,
            "oppTotalScore": -516,
            "waitTime": 5514.32388637117,
            "responseTime": 1678834217081,
            "catchQuestion": "How many <b class=\"r\">red<\/b> marbles did you actually draw (before any changes)? ",
            "catchKey": -1,
            "catchResponse": -1,
            "catchTime": 1678834217081,
            "trialTime": 0
        },
        {
            "exptPart": "trial",
            "trialNumber": 36,
            "roleCurrent": "sender",
            "marblesSampled": 100,
            "probRed": 0.5,
            "lambda": 5,
            "drawnRed": 70,
            "reportedRed": 87,
            "inferredRed": 83,
            "playerTrialScore": 13,
            "oppTrialScore": -13,
            "playerTotalScore": -83,
            "oppTotalScore": -529,
            "waitTime": 2588.3596837012446,
            "responseTime": 1678834240897,
            "catchQuestion": "How many <b class=\"r\">red<\/b> marbles did you actually draw (before any changes)? ",
            "catchKey": -1,
            "catchResponse": -1,
            "catchTime": 1678834217081,
            "trialTime": 0
        },
        {
            "exptPart": "trial",
            "trialNumber": 37,
            "roleCurrent": "receiver",
            "marblesSampled": 100,
            "probRed": 0.5,
            "lambda": 5,
            "drawnRed": 62,
            "reportedRed": 68,
            "inferredRed": 20,
            "playerTrialScore": -42,
            "oppTrialScore": 0,
            "playerTotalScore": -125,
            "oppTotalScore": -529,
            "waitTime": 5408.095453615405,
            "responseTime": 1678834251713,
            "catchQuestion": "How many <b class=\"r\">red<\/b> marbles did you actually draw (before any changes)? ",
            "catchKey": -1,
            "catchResponse": -1,
            "catchTime": 1678834217081,
            "trialTime": 0
        },
        {
            "exptPart": "trial",
            "trialNumber": 38,
            "roleCurrent": "sender",
            "marblesSampled": 100,
            "probRed": 0.5,
            "lambda": 5,
            "drawnRed": 77,
            "reportedRed": 100,
            "inferredRed": 95,
            "playerTrialScore": 18,
            "oppTrialScore": -18,
            "playerTotalScore": -107,
            "oppTotalScore": -547,
            "waitTime": 2649.55793761358,
            "responseTime": 1678834277497,
            "catchQuestion": "How many <b class=\"r\">red<\/b> marbles did you actually draw (before any changes)? ",
            "catchKey": -1,
            "catchResponse": -1,
            "catchTime": 1678834217081,
            "trialTime": 0
        },
        {
            "exptPart": "trial",
            "trialNumber": 39,
            "roleCurrent": "receiver",
            "marblesSampled": 100,
            "probRed": 0.5,
            "lambda": 5,
            "drawnRed": 46,
            "reportedRed": 49,
            "inferredRed": 10,
            "playerTrialScore": -36,
            "oppTrialScore": 0,
            "playerTotalScore": -143,
            "oppTotalScore": -547,
            "waitTime": 5227.997363443976,
            "responseTime": 1678834287847,
            "catchQuestion": "How many <b class=\"r\">red<\/b> marbles did you actually draw (before any changes)? ",
            "catchKey": -1,
            "catchResponse": -1,
            "catchTime": 1678834217081,
            "trialTime": 0
        },
        {
            "exptPart": "trial",
            "trialNumber": 40,
            "roleCurrent": "sender",
            "marblesSampled": 100,
            "probRed": 0.5,
            "lambda": 5,
            "drawnRed": 78,
            "reportedRed": 7,
            "inferredRed": 0,
            "playerTrialScore": 0,
            "oppTrialScore": -78,
            "playerTotalScore": -143,
            "oppTotalScore": -625,
            "waitTime": 2281.308480482603,
            "responseTime": 1678834337014,
            "catchQuestion": "How many <b class=\"r\">red<\/b> marbles did you actually draw (before any changes)? ",
            "catchKey": -1,
            "catchResponse": -1,
            "catchTime": 1678834337014,
            "trialTime": 0
        },
        {
            "exptPart": "trial",
            "trialNumber": 41,
            "roleCurrent": "receiver",
            "marblesSampled": 100,
            "probRed": 0.5,
            "lambda": 5,
            "drawnRed": 81,
            "reportedRed": 86,
            "inferredRed": 25,
            "playerTrialScore": -56,
            "oppTrialScore": 0,
            "playerTotalScore": -199,
            "oppTotalScore": -625,
            "waitTime": 6876.522285183923,
            "responseTime": 1678834348630,
            "catchQuestion": "How many <b class=\"r\">red<\/b> marbles did your opponent report drawing? ",
            "catchKey": 86,
            "catchResponse": 85,
            "catchTime": 1678834348630,
            "trialTime": 0
        },
        {
            "exptPart": "trial",
            "trialNumber": 42,
            "roleCurrent": "sender",
            "marblesSampled": 100,
            "probRed": 0.5,
            "lambda": 5,
            "drawnRed": 77,
            "reportedRed": 99,
            "inferredRed": 97,
            "playerTrialScore": 20,
            "oppTrialScore": -20,
            "playerTotalScore": -179,
            "oppTotalScore": -645,
            "waitTime": 2408.009084959789,
            "responseTime": 1678834379297,
            "catchQuestion": "How many <b class=\"r\">red<\/b> marbles did your opponent report drawing? ",
            "catchKey": -1,
            "catchResponse": -1,
            "catchTime": 1678834348630,
            "trialTime": 0
        },
        {
            "exptPart": "trial",
            "trialNumber": 43,
            "roleCurrent": "receiver",
            "marblesSampled": 100,
            "probRed": 0.5,
            "lambda": 5,
            "drawnRed": 17,
            "reportedRed": 23,
            "inferredRed": 2,
            "playerTrialScore": -15,
            "oppTrialScore": 0,
            "playerTotalScore": -194,
            "oppTotalScore": -645,
            "waitTime": 5442.763886141147,
            "responseTime": 1678834390930,
            "catchQuestion": "How many <b class=\"r\">red<\/b> marbles did your opponent report drawing? ",
            "catchKey": -1,
            "catchResponse": -1,
            "catchTime": 1678834348630,
            "trialTime": 0
        },
        {
            "exptPart": "trial",
            "trialNumber": 44,
            "roleCurrent": "sender",
            "marblesSampled": 100,
            "probRed": 0.5,
            "lambda": 5,
            "drawnRed": 58,
            "reportedRed": 80,
            "inferredRed": 74,
            "playerTrialScore": 16,
            "oppTrialScore": -16,
            "playerTotalScore": -178,
            "oppTotalScore": -661,
            "waitTime": 2677.8497831109703,
            "responseTime": 1678834414980,
            "catchQuestion": "How many <b class=\"r\">red<\/b> marbles did your opponent report drawing? ",
            "catchKey": -1,
            "catchResponse": -1,
            "catchTime": 1678834348630,
            "trialTime": 0
        },
        {
            "exptPart": "trial",
            "trialNumber": 45,
            "roleCurrent": "receiver",
            "marblesSampled": 100,
            "probRed": 0.5,
            "lambda": 5,
            "drawnRed": 56,
            "reportedRed": 61,
            "inferredRed": 35,
            "playerTrialScore": -21,
            "oppTrialScore": 0,
            "playerTotalScore": -199,
            "oppTotalScore": -661,
            "waitTime": 5270.512013447535,
            "responseTime": 1678834422780,
            "catchQuestion": "How many <b class=\"r\">red<\/b> marbles did your opponent report drawing? ",
            "catchKey": -1,
            "catchResponse": -1,
            "catchTime": 1678834422780,
            "trialTime": 0
        },
        {
            "exptPart": "trial",
            "trialNumber": 46,
            "roleCurrent": "sender",
            "marblesSampled": 100,
            "probRed": 0.5,
            "lambda": 5,
            "drawnRed": 16,
            "reportedRed": 63,
            "inferredRed": 58,
            "playerTrialScore": 42,
            "oppTrialScore": -42,
            "playerTotalScore": -157,
            "oppTotalScore": -703,
            "waitTime": 2167.607629535988,
            "responseTime": 1678834460564,
            "catchQuestion": "How many <b class=\"r\">red<\/b> marbles did your opponent report drawing? ",
            "catchKey": -1,
            "catchResponse": -1,
            "catchTime": 1678834422780,
            "trialTime": 0
        },
        {
            "exptPart": "trial",
            "trialNumber": 47,
            "roleCurrent": "receiver",
            "marblesSampled": 100,
            "probRed": 0.5,
            "lambda": 5,
            "drawnRed": 32,
            "reportedRed": 35,
            "inferredRed": 4,
            "playerTrialScore": -28,
            "oppTrialScore": 0,
            "playerTotalScore": -185,
            "oppTotalScore": -703,
            "waitTime": 5862.536618852093,
            "responseTime": 1678834469097,
            "catchQuestion": "How many <b class=\"r\">red<\/b> marbles did your opponent report drawing? ",
            "catchKey": 35,
            "catchResponse": 35,
            "catchTime": 1678834469097,
            "trialTime": 0
        },
        {
            "exptPart": "trial",
            "trialNumber": 48,
            "roleCurrent": "sender",
            "marblesSampled": 100,
            "probRed": 0.5,
            "lambda": 5,
            "drawnRed": 87,
            "reportedRed": 100,
            "inferredRed": 97,
            "playerTrialScore": 10,
            "oppTrialScore": -10,
            "playerTotalScore": -175,
            "oppTotalScore": -713,
            "waitTime": 2239.8167339363163,
            "responseTime": 1678834496864,
            "catchQuestion": "How many <b class=\"r\">red<\/b> marbles did you actually draw (before any changes)? ",
            "catchKey": 87,
            "catchResponse": 87,
            "catchTime": 1678834496864,
            "trialTime": 0
        },
        {
            "exptPart": "trial",
            "trialNumber": 49,
            "roleCurrent": "receiver",
            "marblesSampled": 100,
            "probRed": 0.5,
            "lambda": 5,
            "drawnRed": 56,
            "reportedRed": 63,
            "inferredRed": 12,
            "playerTrialScore": -44,
            "oppTrialScore": 0,
            "playerTotalScore": -219,
            "oppTotalScore": -713,
            "waitTime": 6524.960612075289,
            "responseTime": 1678834514532,
            "catchQuestion": "How many <b class=\"r\">red<\/b> marbles did you actually draw (before any changes)? ",
            "catchKey": -1,
            "catchResponse": -1,
            "catchTime": 1678834496864,
            "trialTime": 0
        },
        {
            "exptPart": "trial",
            "trialNumber": 50,
            "roleCurrent": "sender",
            "marblesSampled": 100,
            "probRed": 0.5,
            "lambda": 5,
            "drawnRed": 32,
            "reportedRed": 77,
            "inferredRed": 70,
            "playerTrialScore": 38,
            "oppTrialScore": -38,
            "playerTotalScore": -181,
            "oppTotalScore": -751,
            "waitTime": 2222.2730640508335,
            "responseTime": 1678834547180,
            "catchQuestion": "How many <b class=\"r\">red<\/b> marbles did you actually draw (before any changes)? ",
            "catchKey": -1,
            "catchResponse": -1,
            "catchTime": 1678834547181,
            "trialTime": 0
        },
        {
            "exptPart": "trial",
            "trialNumber": 51,
            "roleCurrent": "receiver",
            "marblesSampled": 100,
            "probRed": 0.5,
            "lambda": 5,
            "drawnRed": 32,
            "reportedRed": 39,
            "inferredRed": 4,
            "playerTrialScore": -28,
            "oppTrialScore": 0,
            "playerTotalScore": -209,
            "oppTotalScore": -751,
            "waitTime": 5203.347868116543,
            "responseTime": 1678834556264,
            "catchQuestion": "How many <b class=\"r\">red<\/b> marbles did you actually draw (before any changes)? ",
            "catchKey": -1,
            "catchResponse": -1,
            "catchTime": 1678834547181,
            "trialTime": 0
        },
        {
            "exptPart": "trial",
            "trialNumber": 52,
            "roleCurrent": "sender",
            "marblesSampled": 100,
            "probRed": 0.5,
            "lambda": 5,
            "drawnRed": 39,
            "reportedRed": 91,
            "inferredRed": 88,
            "playerTrialScore": 49,
            "oppTrialScore": -49,
            "playerTotalScore": -160,
            "oppTotalScore": -800,
            "waitTime": 2313.244657231643,
            "responseTime": 1678834599247,
            "catchQuestion": "How many <b class=\"r\">red<\/b> marbles did you actually draw (before any changes)? ",
            "catchKey": -1,
            "catchResponse": -1,
            "catchTime": 1678834547181,
            "trialTime": 0
        },
        {
            "exptPart": "trial",
            "trialNumber": 53,
            "roleCurrent": "receiver",
            "marblesSampled": 100,
            "probRed": 0.5,
            "lambda": 5,
            "drawnRed": 21,
            "reportedRed": 28,
            "inferredRed": 3,
            "playerTrialScore": -18,
            "oppTrialScore": 0,
            "playerTotalScore": -178,
            "oppTotalScore": -800,
            "waitTime": 5475.598291542674,
            "responseTime": 1678834609047,
            "catchQuestion": "How many <b class=\"r\">red<\/b> marbles did you actually draw (before any changes)? ",
            "catchKey": -1,
            "catchResponse": -1,
            "catchTime": 1678834547181,
            "trialTime": 0
        },
        {
            "exptPart": "trial",
            "trialNumber": 54,
            "roleCurrent": "sender",
            "marblesSampled": 100,
            "probRed": 0.5,
            "lambda": 5,
            "drawnRed": 7,
            "reportedRed": 69,
            "inferredRed": 66,
            "playerTrialScore": 59,
            "oppTrialScore": -59,
            "playerTotalScore": -119,
            "oppTotalScore": -859,
            "waitTime": 2063.0466224222628,
            "responseTime": 1678834642930,
            "catchQuestion": "How many <b class=\"r\">red<\/b> marbles did you actually draw (before any changes)? ",
            "catchKey": -1,
            "catchResponse": -1,
            "catchTime": 1678834547181,
            "trialTime": 0
        },
        {
            "exptPart": "trial",
            "trialNumber": 55,
            "roleCurrent": "receiver",
            "marblesSampled": 100,
            "probRed": 0.5,
            "lambda": 5,
            "drawnRed": 78,
            "reportedRed": 86,
            "inferredRed": 13,
            "playerTrialScore": -65,
            "oppTrialScore": 0,
            "playerTotalScore": -184,
            "oppTotalScore": -859,
            "waitTime": 5338.48445945883,
            "responseTime": 1678834654882,
            "catchQuestion": "How many <b class=\"r\">red<\/b> marbles did you actually draw (before any changes)? ",
            "catchKey": -1,
            "catchResponse": -1,
            "catchTime": 1678834654882,
            "trialTime": 0
        },
        {
            "exptPart": "trial",
            "trialNumber": 56,
            "roleCurrent": "sender",
            "marblesSampled": 100,
            "probRed": 0.5,
            "lambda": 5,
            "drawnRed": 67,
            "reportedRed": 80,
            "inferredRed": 79,
            "playerTrialScore": 12,
            "oppTrialScore": -12,
            "playerTotalScore": -172,
            "oppTotalScore": -871,
            "waitTime": 2664.6544561587725,
            "responseTime": 1678834672865,
            "catchQuestion": "How many <b class=\"r\">red<\/b> marbles did you actually draw (before any changes)? ",
            "catchKey": -1,
            "catchResponse": -1,
            "catchTime": 1678834654882,
            "trialTime": 0
        },
        {
            "exptPart": "trial",
            "trialNumber": 57,
            "roleCurrent": "receiver",
            "marblesSampled": 100,
            "probRed": 0.5,
            "lambda": 5,
            "drawnRed": 55,
            "reportedRed": 61,
            "inferredRed": 12,
            "playerTrialScore": -43,
            "oppTrialScore": 0,
            "playerTotalScore": -215,
            "oppTotalScore": -871,
            "waitTime": 5546.249681370112,
            "responseTime": 1678834682232,
            "catchQuestion": "How many <b class=\"r\">red<\/b> marbles did you actually draw (before any changes)? ",
            "catchKey": -1,
            "catchResponse": -1,
            "catchTime": 1678834654882,
            "trialTime": 0
        },
        {
            "exptPart": "trial",
            "trialNumber": 58,
            "roleCurrent": "sender",
            "marblesSampled": 100,
            "probRed": 0.5,
            "lambda": 5,
            "drawnRed": 38,
            "reportedRed": 86,
            "inferredRed": 85,
            "playerTrialScore": 47,
            "oppTrialScore": -47,
            "playerTotalScore": -168,
            "oppTotalScore": -918,
            "waitTime": 2620.462110877178,
            "responseTime": 1678834718065,
            "catchQuestion": "How many <b class=\"r\">red<\/b> marbles did you actually draw (before any changes)? ",
            "catchKey": -1,
            "catchResponse": -1,
            "catchTime": 1678834654882,
            "trialTime": 0
        },
        {
            "exptPart": "trial",
            "trialNumber": 59,
            "roleCurrent": "receiver",
            "marblesSampled": 100,
            "probRed": 0.5,
            "lambda": 5,
            "drawnRed": 11,
            "reportedRed": 16,
            "inferredRed": 2,
            "playerTrialScore": -9,
            "oppTrialScore": 0,
            "playerTotalScore": -177,
            "oppTotalScore": -918,
            "waitTime": 7210.436621228559,
            "responseTime": 1678834732782,
            "catchQuestion": "How many <b class=\"r\">red<\/b> marbles did you actually draw (before any changes)? ",
            "catchKey": -1,
            "catchResponse": -1,
            "catchTime": 1678834654882,
            "trialTime": 0
        },
        {
            "exptPart": "trial",
            "trialNumber": 60,
            "roleCurrent": "sender",
            "marblesSampled": 100,
            "probRed": 0.5,
            "lambda": 5,
            "drawnRed": 51,
            "reportedRed": 88,
            "inferredRed": 82,
            "playerTrialScore": 31,
            "oppTrialScore": -31,
            "playerTotalScore": -146,
            "oppTotalScore": -949,
            "waitTime": 2211.565178776503,
            "responseTime": 1678834759482,
            "catchQuestion": "How many <b class=\"r\">red<\/b> marbles did you actually draw (before any changes)? ",
            "catchKey": -1,
            "catchResponse": -1,
            "catchTime": 1678834759482,
            "trialTime": 0
        },
        {
            "exptPart": "trial",
            "trialNumber": 61,
            "roleCurrent": "receiver",
            "marblesSampled": 100,
            "probRed": 0.5,
            "lambda": 5,
            "drawnRed": 34,
            "reportedRed": 39,
            "inferredRed": 10,
            "playerTrialScore": -24,
            "oppTrialScore": 0,
            "playerTotalScore": -170,
            "oppTotalScore": -949,
            "waitTime": 5836.3610081413335,
            "responseTime": 1678834771782,
            "catchQuestion": "How many <b class=\"r\">red<\/b> marbles did you actually draw (before any changes)? ",
            "catchKey": -1,
            "catchResponse": -1,
            "catchTime": 1678834759482,
            "trialTime": 0
        },
        {
            "exptPart": "trial",
            "trialNumber": 62,
            "roleCurrent": "sender",
            "marblesSampled": 100,
            "probRed": 0.5,
            "lambda": 5,
            "drawnRed": 46,
            "reportedRed": 81,
            "inferredRed": 76,
            "playerTrialScore": 30,
            "oppTrialScore": -30,
            "playerTotalScore": -140,
            "oppTotalScore": -979,
            "waitTime": 3155.7938418321196,
            "responseTime": 1678834805048,
            "catchQuestion": "How many <b class=\"r\">red<\/b> marbles did you actually draw (before any changes)? ",
            "catchKey": -1,
            "catchResponse": -1,
            "catchTime": 1678834759482,
            "trialTime": 0
        },
        {
            "exptPart": "trial",
            "trialNumber": 63,
            "roleCurrent": "receiver",
            "marblesSampled": 100,
            "probRed": 0.5,
            "lambda": 5,
            "drawnRed": 52,
            "reportedRed": 58,
            "inferredRed": 12,
            "playerTrialScore": -40,
            "oppTrialScore": 0,
            "playerTotalScore": -180,
            "oppTotalScore": -979,
            "waitTime": 5734.81622466808,
            "responseTime": 1678834815516,
            "catchQuestion": "How many <b class=\"r\">red<\/b> marbles did you actually draw (before any changes)? ",
            "catchKey": -1,
            "catchResponse": -1,
            "catchTime": 1678834759482,
            "trialTime": 0
        },
        {
            "exptPart": "trial",
            "trialNumber": 64,
            "roleCurrent": "sender",
            "marblesSampled": 100,
            "probRed": 0.5,
            "lambda": 5,
            "drawnRed": 59,
            "reportedRed": 100,
            "inferredRed": 97,
            "playerTrialScore": 38,
            "oppTrialScore": -38,
            "playerTotalScore": -142,
            "oppTotalScore": -1017,
            "waitTime": 3180.751311046973,
            "responseTime": 1678834847332,
            "catchQuestion": "How many <b class=\"r\">red<\/b> marbles did you actually draw (before any changes)? ",
            "catchKey": 59,
            "catchResponse": 59,
            "catchTime": 1678834847332,
            "trialTime": 0
        },
        {
            "exptPart": "trial",
            "trialNumber": 65,
            "roleCurrent": "receiver",
            "marblesSampled": 100,
            "probRed": 0.5,
            "lambda": 5,
            "drawnRed": 72,
            "reportedRed": 77,
            "inferredRed": 22,
            "playerTrialScore": -50,
            "oppTrialScore": 0,
            "playerTotalScore": -192,
            "oppTotalScore": -1017,
            "waitTime": 6226.194297727482,
            "responseTime": 1678834860231,
            "catchQuestion": "How many <b class=\"r\">red<\/b> marbles did your opponent report drawing? ",
            "catchKey": 77,
            "catchResponse": 77,
            "catchTime": 1678834860231,
            "trialTime": 0
        },
        {
            "exptPart": "trial",
            "trialNumber": 66,
            "roleCurrent": "sender",
            "marblesSampled": 100,
            "probRed": 0.5,
            "lambda": 5,
            "drawnRed": 64,
            "reportedRed": 94,
            "inferredRed": 91,
            "playerTrialScore": 27,
            "oppTrialScore": -27,
            "playerTotalScore": -165,
            "oppTotalScore": -1044,
            "waitTime": 2232.573590050305,
            "responseTime": 1678834890432,
            "catchQuestion": "How many <b class=\"r\">red<\/b> marbles did your opponent report drawing? ",
            "catchKey": -1,
            "catchResponse": -1,
            "catchTime": 1678834860231,
            "trialTime": 0
        },
        {
            "exptPart": "trial",
            "trialNumber": 67,
            "roleCurrent": "receiver",
            "marblesSampled": 100,
            "probRed": 0.5,
            "lambda": 5,
            "drawnRed": 74,
            "reportedRed": 80,
            "inferredRed": 32,
            "playerTrialScore": -42,
            "oppTrialScore": 0,
            "playerTotalScore": -207,
            "oppTotalScore": -1044,
            "waitTime": 6833.421896730213,
            "responseTime": 1678834901682,
            "catchQuestion": "How many <b class=\"r\">red<\/b> marbles did your opponent report drawing? ",
            "catchKey": -1,
            "catchResponse": -1,
            "catchTime": 1678834860231,
            "trialTime": 0
        },
        {
            "exptPart": "trial",
            "trialNumber": 68,
            "roleCurrent": "sender",
            "marblesSampled": 100,
            "probRed": 0.5,
            "lambda": 5,
            "drawnRed": 47,
            "reportedRed": 98,
            "inferredRed": 94,
            "playerTrialScore": 47,
            "oppTrialScore": -47,
            "playerTotalScore": -160,
            "oppTotalScore": -1091,
            "waitTime": 2300.0156474372307,
            "responseTime": 1678834936832,
            "catchQuestion": "How many <b class=\"r\">red<\/b> marbles did you actually draw (before any changes)? ",
            "catchKey": 47,
            "catchResponse": 58,
            "catchTime": 1678834936833,
            "trialTime": 0
        },
        {
            "exptPart": "trial",
            "trialNumber": 69,
            "roleCurrent": "receiver",
            "marblesSampled": 100,
            "probRed": 0.5,
            "lambda": 5,
            "drawnRed": 65,
            "reportedRed": 72,
            "inferredRed": 24,
            "playerTrialScore": -41,
            "oppTrialScore": 0,
            "playerTotalScore": -201,
            "oppTotalScore": -1091,
            "waitTime": 6065.095506772395,
            "responseTime": 1678834962098,
            "catchQuestion": "How many <b class=\"r\">red<\/b> marbles did you actually draw (before any changes)? ",
            "catchKey": -1,
            "catchResponse": -1,
            "catchTime": 1678834936833,
            "trialTime": 0
        },
        {
            "exptPart": "trial",
            "trialNumber": 70,
            "roleCurrent": "sender",
            "marblesSampled": 100,
            "probRed": 0.5,
            "lambda": 5,
            "drawnRed": 44,
            "reportedRed": 85,
            "inferredRed": 78,
            "playerTrialScore": 34,
            "oppTrialScore": -34,
            "playerTotalScore": -167,
            "oppTotalScore": -1125,
            "waitTime": 2397.993243128171,
            "responseTime": 1678834989633,
            "catchQuestion": "How many <b class=\"r\">red<\/b> marbles did you actually draw (before any changes)? ",
            "catchKey": -1,
            "catchResponse": -1,
            "catchTime": 1678834989633,
            "trialTime": 0
        },
        {
            "exptPart": "trial",
            "trialNumber": 71,
            "roleCurrent": "receiver",
            "marblesSampled": 100,
            "probRed": 0.5,
            "lambda": 5,
            "drawnRed": 58,
            "reportedRed": 66,
            "inferredRed": 15,
            "playerTrialScore": -43,
            "oppTrialScore": 0,
            "playerTotalScore": -210,
            "oppTotalScore": -1125,
            "waitTime": 6060.152081435905,
            "responseTime": 1678835001466,
            "catchQuestion": "How many <b class=\"r\">red<\/b> marbles did you actually draw (before any changes)? ",
            "catchKey": -1,
            "catchResponse": -1,
            "catchTime": 1678834989633,
            "trialTime": 0
        },
        {
            "exptPart": "trial",
            "trialNumber": 72,
            "roleCurrent": "sender",
            "marblesSampled": 100,
            "probRed": 0.5,
            "lambda": 5,
            "drawnRed": 39,
            "reportedRed": 96,
            "inferredRed": 92,
            "playerTrialScore": 53,
            "oppTrialScore": -53,
            "playerTotalScore": -157,
            "oppTotalScore": -1178,
            "waitTime": 3058.5554939754857,
            "responseTime": 1678835038982,
            "catchQuestion": "How many <b class=\"r\">red<\/b> marbles did you actually draw (before any changes)? ",
            "catchKey": -1,
            "catchResponse": -1,
            "catchTime": 1678834989633,
            "trialTime": 0
        },
        {
            "exptPart": "trial",
            "trialNumber": 73,
            "roleCurrent": "receiver",
            "marblesSampled": 100,
            "probRed": 0.5,
            "lambda": 5,
            "drawnRed": 69,
            "reportedRed": 73,
            "inferredRed": 20,
            "playerTrialScore": -49,
            "oppTrialScore": 0,
            "playerTotalScore": -206,
            "oppTotalScore": -1178,
            "waitTime": 5937.470330734798,
            "responseTime": 1678835047631,
            "catchQuestion": "How many <b class=\"r\">red<\/b> marbles did you actually draw (before any changes)? ",
            "catchKey": -1,
            "catchResponse": -1,
            "catchTime": 1678834989633,
            "trialTime": 0
        },
        {
            "exptPart": "trial",
            "trialNumber": 74,
            "roleCurrent": "sender",
            "marblesSampled": 100,
            "probRed": 0.5,
            "lambda": 5,
            "drawnRed": 38,
            "reportedRed": 102,
            "inferredRed": 98,
            "playerTrialScore": 60,
            "oppTrialScore": -60,
            "playerTotalScore": -146,
            "oppTotalScore": -1238,
            "waitTime": 2449.7921592344846,
            "responseTime": 1678835087466,
            "catchQuestion": "How many <b class=\"r\">red<\/b> marbles did you actually draw (before any changes)? ",
            "catchKey": 38,
            "catchResponse": 28,
            "catchTime": 1678835087466,
            "trialTime": 0
        },
        {
            "exptPart": "trial",
            "trialNumber": 75,
            "roleCurrent": "receiver",
            "marblesSampled": 100,
            "probRed": 0.5,
            "lambda": 5,
            "drawnRed": 16,
            "reportedRed": 19,
            "inferredRed": 2,
            "playerTrialScore": -14,
            "oppTrialScore": 0,
            "playerTotalScore": -160,
            "oppTotalScore": -1238,
            "waitTime": 6739.717189877447,
            "responseTime": 1678835120683,
            "catchQuestion": "How many <b class=\"r\">red<\/b> marbles did you actually draw (before any changes)? ",
            "catchKey": -1,
            "catchResponse": -1,
            "catchTime": 1678835120683,
            "trialTime": 0
        },
        {
            "exptPart": "trial",
            "trialNumber": 76,
            "roleCurrent": "sender",
            "marblesSampled": 100,
            "probRed": 0.5,
            "lambda": 5,
            "drawnRed": 60,
            "reportedRed": 97,
            "inferredRed": 94,
            "playerTrialScore": 34,
            "oppTrialScore": -34,
            "playerTotalScore": -126,
            "oppTotalScore": -1272,
            "waitTime": 3155.891420496221,
            "responseTime": 1678835157549,
            "catchQuestion": "How many <b class=\"r\">red<\/b> marbles did you actually draw (before any changes)? ",
            "catchKey": -1,
            "catchResponse": -1,
            "catchTime": 1678835120683,
            "trialTime": 0
        },
        {
            "exptPart": "trial",
            "trialNumber": 77,
            "roleCurrent": "receiver",
            "marblesSampled": 100,
            "probRed": 0.5,
            "lambda": 5,
            "drawnRed": 40,
            "reportedRed": 42,
            "inferredRed": 12,
            "playerTrialScore": -28,
            "oppTrialScore": 0,
            "playerTotalScore": -154,
            "oppTotalScore": -1272,
            "waitTime": 7160.496364219366,
            "responseTime": 1678835169149,
            "catchQuestion": "How many <b class=\"r\">red<\/b> marbles did you actually draw (before any changes)? ",
            "catchKey": -1,
            "catchResponse": -1,
            "catchTime": 1678835120683,
            "trialTime": 0
        },
        {
            "exptPart": "trial",
            "trialNumber": 78,
            "roleCurrent": "sender",
            "marblesSampled": 100,
            "probRed": 0.5,
            "lambda": 5,
            "drawnRed": 28,
            "reportedRed": 83,
            "inferredRed": 76,
            "playerTrialScore": 48,
            "oppTrialScore": -48,
            "playerTotalScore": -106,
            "oppTotalScore": -1320,
            "waitTime": 2976.0266660930874,
            "responseTime": 1678835207399,
            "catchQuestion": "How many <b class=\"r\">red<\/b> marbles did you actually draw (before any changes)? ",
            "catchKey": -1,
            "catchResponse": -1,
            "catchTime": 1678835120683,
            "trialTime": 0
        },
        {
            "exptPart": "trial",
            "trialNumber": 79,
            "roleCurrent": "receiver",
            "marblesSampled": 100,
            "probRed": 0.5,
            "lambda": 5,
            "drawnRed": 62,
            "reportedRed": 67,
            "inferredRed": 23,
            "playerTrialScore": -39,
            "oppTrialScore": 0,
            "playerTotalScore": -145,
            "oppTotalScore": -1320,
            "waitTime": 6877.403829493344,
            "responseTime": 1678835217366,
            "catchQuestion": "How many <b class=\"r\">red<\/b> marbles did you actually draw (before any changes)? ",
            "catchKey": -1,
            "catchResponse": -1,
            "catchTime": 1678835120683,
            "trialTime": 0
        },
        {
            "exptPart": "trial",
            "trialNumber": 80,
            "roleCurrent": "sender",
            "marblesSampled": 100,
            "probRed": 0.5,
            "lambda": 5,
            "drawnRed": 59,
            "reportedRed": 94,
            "inferredRed": 87,
            "playerTrialScore": 28,
            "oppTrialScore": -28,
            "playerTotalScore": -117,
            "oppTotalScore": -1348,
            "waitTime": 2436.6391208306177,
            "responseTime": 1678835245783,
            "catchQuestion": "How many <b class=\"r\">red<\/b> marbles did you actually draw (before any changes)? ",
            "catchKey": 59,
            "catchResponse": 59,
            "catchTime": 1678835245783,
            "trialTime": 0
        },
        {
            "exptPart": "trial",
            "trialNumber": 81,
            "roleCurrent": "receiver",
            "marblesSampled": 100,
            "probRed": 0.5,
            "lambda": 5,
            "drawnRed": 76,
            "reportedRed": 84,
            "inferredRed": 24,
            "playerTrialScore": -52,
            "oppTrialScore": 0,
            "playerTotalScore": -169,
            "oppTotalScore": -1348,
            "waitTime": 5295.6073634068425,
            "responseTime": 1678835260016,
            "catchQuestion": "How many <b class=\"r\">red<\/b> marbles did you actually draw (before any changes)? ",
            "catchKey": -1,
            "catchResponse": -1,
            "catchTime": 1678835245783,
            "trialTime": 0
        },
        {
            "exptPart": "trial",
            "trialNumber": 82,
            "roleCurrent": "sender",
            "marblesSampled": 100,
            "probRed": 0.5,
            "lambda": 5,
            "drawnRed": 67,
            "reportedRed": 99,
            "inferredRed": 97,
            "playerTrialScore": 30,
            "oppTrialScore": -30,
            "playerTotalScore": -139,
            "oppTotalScore": -1378,
            "waitTime": 2192.8266977631492,
            "responseTime": 1678835286450,
            "catchQuestion": "How many <b class=\"r\">red<\/b> marbles did you actually draw (before any changes)? ",
            "catchKey": -1,
            "catchResponse": -1,
            "catchTime": 1678835245783,
            "trialTime": 0
        },
        {
            "exptPart": "trial",
            "trialNumber": 83,
            "roleCurrent": "receiver",
            "marblesSampled": 100,
            "probRed": 0.5,
            "lambda": 5,
            "drawnRed": 73,
            "reportedRed": 78,
            "inferredRed": 12,
            "playerTrialScore": -61,
            "oppTrialScore": 0,
            "playerTotalScore": -200,
            "oppTotalScore": -1378,
            "waitTime": 5410.903246633606,
            "responseTime": 1678835294949,
            "catchQuestion": "How many <b class=\"r\">red<\/b> marbles did you actually draw (before any changes)? ",
            "catchKey": -1,
            "catchResponse": -1,
            "catchTime": 1678835245783,
            "trialTime": 0
        },
        {
            "exptPart": "trial",
            "trialNumber": 84,
            "roleCurrent": "sender",
            "marblesSampled": 100,
            "probRed": 0.5,
            "lambda": 5,
            "drawnRed": 80,
            "reportedRed": 100,
            "inferredRed": 96,
            "playerTrialScore": 16,
            "oppTrialScore": -16,
            "playerTotalScore": -184,
            "oppTotalScore": -1394,
            "waitTime": 2092.6509232767066,
            "responseTime": 1678835320650,
            "catchQuestion": "How many <b class=\"r\">red<\/b> marbles did you actually draw (before any changes)? ",
            "catchKey": -1,
            "catchResponse": -1,
            "catchTime": 1678835245783,
            "trialTime": 0
        },
        {
            "exptPart": "trial",
            "trialNumber": 85,
            "roleCurrent": "receiver",
            "marblesSampled": 100,
            "probRed": 0.5,
            "lambda": 5,
            "drawnRed": 82,
            "reportedRed": 86,
            "inferredRed": 20,
            "playerTrialScore": -62,
            "oppTrialScore": 0,
            "playerTotalScore": -246,
            "oppTotalScore": -1394,
            "waitTime": 7258.458966269176,
            "responseTime": 1678835333148,
            "catchQuestion": "How many <b class=\"r\">red<\/b> marbles did you actually draw (before any changes)? ",
            "catchKey": -1,
            "catchResponse": -1,
            "catchTime": 1678835333148,
            "trialTime": 0
        },
        {
            "exptPart": "trial",
            "trialNumber": 86,
            "roleCurrent": "sender",
            "marblesSampled": 100,
            "probRed": 0.5,
            "lambda": 5,
            "drawnRed": 92,
            "reportedRed": 0,
            "inferredRed": 0,
            "playerTrialScore": 0,
            "oppTrialScore": -92,
            "playerTotalScore": -246,
            "oppTotalScore": -1486,
            "waitTime": 3212.518363696496,
            "responseTime": 1678835390350,
            "catchQuestion": "How many <b class=\"r\">red<\/b> marbles did you actually draw (before any changes)? ",
            "catchKey": -1,
            "catchResponse": -1,
            "catchTime": 1678835333148,
            "trialTime": 0
        },
        {
            "exptPart": "trial",
            "trialNumber": 87,
            "roleCurrent": "receiver",
            "marblesSampled": 100,
            "probRed": 0.5,
            "lambda": 5,
            "drawnRed": 44,
            "reportedRed": 50,
            "inferredRed": 12,
            "playerTrialScore": -32,
            "oppTrialScore": 0,
            "playerTotalScore": -278,
            "oppTotalScore": -1486,
            "waitTime": 5580.417958075656,
            "responseTime": 1678835400599,
            "catchQuestion": "How many <b class=\"r\">red<\/b> marbles did your opponent report drawing? ",
            "catchKey": 50,
            "catchResponse": 50,
            "catchTime": 1678835400599,
            "trialTime": 0
        },
        {
            "exptPart": "trial",
            "trialNumber": 88,
            "roleCurrent": "sender",
            "marblesSampled": 100,
            "probRed": 0.5,
            "lambda": 5,
            "drawnRed": 63,
            "reportedRed": 4,
            "inferredRed": 1,
            "playerTrialScore": 0,
            "oppTrialScore": -62,
            "playerTotalScore": -278,
            "oppTotalScore": -1548,
            "waitTime": 2926.617507750469,
            "responseTime": 1678835450216,
            "catchQuestion": "How many <b class=\"r\">red<\/b> marbles did your opponent report drawing? ",
            "catchKey": -1,
            "catchResponse": -1,
            "catchTime": 1678835400599,
            "trialTime": 0
        },
        {
            "exptPart": "trial",
            "trialNumber": 89,
            "roleCurrent": "receiver",
            "marblesSampled": 100,
            "probRed": 0.5,
            "lambda": 5,
            "drawnRed": 33,
            "reportedRed": 39,
            "inferredRed": 9,
            "playerTrialScore": -24,
            "oppTrialScore": 0,
            "playerTotalScore": -302,
            "oppTotalScore": -1548,
            "waitTime": 5859.373883398705,
            "responseTime": 1678835463016,
            "catchQuestion": "How many <b class=\"r\">red<\/b> marbles did your opponent report drawing? ",
            "catchKey": -1,
            "catchResponse": -1,
            "catchTime": 1678835400599,
            "trialTime": 0
        },
        {
            "exptPart": "trial",
            "trialNumber": 90,
            "roleCurrent": "sender",
            "marblesSampled": 100,
            "probRed": 0.5,
            "lambda": 5,
            "drawnRed": 41,
            "reportedRed": 93,
            "inferredRed": 91,
            "playerTrialScore": 50,
            "oppTrialScore": -50,
            "playerTotalScore": -252,
            "oppTotalScore": -1598,
            "waitTime": 2096.2156813611914,
            "responseTime": 1678835499550,
            "catchQuestion": "How many <b class=\"r\">red<\/b> marbles did your opponent report drawing? ",
            "catchKey": -1,
            "catchResponse": -1,
            "catchTime": 1678835499550,
            "trialTime": 0
        },
        {
            "exptPart": "trial",
            "trialNumber": 91,
            "roleCurrent": "receiver",
            "marblesSampled": 100,
            "probRed": 0.5,
            "lambda": 5,
            "drawnRed": 52,
            "reportedRed": 58,
            "inferredRed": 21,
            "playerTrialScore": -31,
            "oppTrialScore": 0,
            "playerTotalScore": -283,
            "oppTotalScore": -1598,
            "waitTime": 5221.021400542193,
            "responseTime": 1678835511300,
            "catchQuestion": "How many <b class=\"r\">red<\/b> marbles did your opponent report drawing? ",
            "catchKey": -1,
            "catchResponse": -1,
            "catchTime": 1678835499550,
            "trialTime": 0
        },
        {
            "exptPart": "trial",
            "trialNumber": 92,
            "roleCurrent": "sender",
            "marblesSampled": 100,
            "probRed": 0.5,
            "lambda": 5,
            "drawnRed": 25,
            "reportedRed": 101,
            "inferredRed": 92,
            "playerTrialScore": 67,
            "oppTrialScore": -67,
            "playerTotalScore": -216,
            "oppTotalScore": -1665,
            "waitTime": 2644.0706678106817,
            "responseTime": 1678835558117,
            "catchQuestion": "How many <b class=\"r\">red<\/b> marbles did your opponent report drawing? ",
            "catchKey": -1,
            "catchResponse": -1,
            "catchTime": 1678835499550,
            "trialTime": 0
        },
        {
            "exptPart": "trial",
            "trialNumber": 93,
            "roleCurrent": "receiver",
            "marblesSampled": 100,
            "probRed": 0.5,
            "lambda": 5,
            "drawnRed": 61,
            "reportedRed": 68,
            "inferredRed": 32,
            "playerTrialScore": -29,
            "oppTrialScore": 0,
            "playerTotalScore": -245,
            "oppTotalScore": -1665,
            "waitTime": 6837.748314049172,
            "responseTime": 1678835572217,
            "catchQuestion": "How many <b class=\"r\">red<\/b> marbles did your opponent report drawing? ",
            "catchKey": -1,
            "catchResponse": -1,
            "catchTime": 1678835499550,
            "trialTime": 0
        },
        {
            "exptPart": "trial",
            "trialNumber": 94,
            "roleCurrent": "sender",
            "marblesSampled": 100,
            "probRed": 0.5,
            "lambda": 5,
            "drawnRed": 63,
            "reportedRed": 63,
            "inferredRed": 60,
            "playerTrialScore": 0,
            "oppTrialScore": -3,
            "playerTotalScore": -245,
            "oppTotalScore": -1668,
            "waitTime": 3056.390267652623,
            "responseTime": 1678835582817,
            "catchQuestion": "How many <b class=\"r\">red<\/b> marbles did your opponent report drawing? ",
            "catchKey": -1,
            "catchResponse": -1,
            "catchTime": 1678835499550,
            "trialTime": 0
        },
        {
            "exptPart": "trial",
            "trialNumber": 95,
            "roleCurrent": "receiver",
            "marblesSampled": 100,
            "probRed": 0.5,
            "lambda": 5,
            "drawnRed": 27,
            "reportedRed": 30,
            "inferredRed": 3,
            "playerTrialScore": -24,
            "oppTrialScore": 0,
            "playerTotalScore": -269,
            "oppTotalScore": -1668,
            "waitTime": 5681.7562431312,
            "responseTime": 1678835591567,
            "catchQuestion": "How many <b class=\"r\">red<\/b> marbles did your opponent report drawing? ",
            "catchKey": -1,
            "catchResponse": -1,
            "catchTime": 1678835591567,
            "trialTime": 0
        },
        {
            "exptPart": "trial",
            "trialNumber": 96,
            "roleCurrent": "sender",
            "marblesSampled": 100,
            "probRed": 0.5,
            "lambda": 5,
            "drawnRed": 72,
            "reportedRed": 72,
            "inferredRed": 69,
            "playerTrialScore": 0,
            "oppTrialScore": -3,
            "playerTotalScore": -269,
            "oppTotalScore": -1671,
            "waitTime": 2878.145423310142,
            "responseTime": 1678835602583,
            "catchQuestion": "How many <b class=\"r\">red<\/b> marbles did your opponent report drawing? ",
            "catchKey": -1,
            "catchResponse": -1,
            "catchTime": 1678835591567,
            "trialTime": 0
        },
        {
            "exptPart": "trial",
            "trialNumber": 97,
            "roleCurrent": "receiver",
            "marblesSampled": 100,
            "probRed": 0.5,
            "lambda": 5,
            "drawnRed": 59,
            "reportedRed": 63,
            "inferredRed": 12,
            "playerTrialScore": -47,
            "oppTrialScore": 0,
            "playerTotalScore": -316,
            "oppTotalScore": -1671,
            "waitTime": 5176.7754620164105,
            "responseTime": 1678835612600,
            "catchQuestion": "How many <b class=\"r\">red<\/b> marbles did your opponent report drawing? ",
            "catchKey": -1,
            "catchResponse": -1,
            "catchTime": 1678835591567,
            "trialTime": 0
        },
        {
            "exptPart": "trial",
            "trialNumber": 98,
            "roleCurrent": "sender",
            "marblesSampled": 100,
            "probRed": 0.5,
            "lambda": 5,
            "drawnRed": 34,
            "reportedRed": 94,
            "inferredRed": 88,
            "playerTrialScore": 54,
            "oppTrialScore": -54,
            "playerTotalScore": -262,
            "oppTotalScore": -1725,
            "waitTime": 2348.7538131465963,
            "responseTime": 1678835661467,
            "catchQuestion": "How many <b class=\"r\">red<\/b> marbles did your opponent report drawing? ",
            "catchKey": -1,
            "catchResponse": -1,
            "catchTime": 1678835591567,
            "trialTime": 0
        },
        {
            "exptPart": "trial",
            "trialNumber": 99,
            "roleCurrent": "receiver",
            "marblesSampled": 100,
            "probRed": 0.5,
            "lambda": 5,
            "drawnRed": 68,
            "reportedRed": 70,
            "inferredRed": 25,
            "playerTrialScore": -43,
            "oppTrialScore": 0,
            "playerTotalScore": -305,
            "oppTotalScore": -1725,
            "waitTime": 6810.878116821819,
            "responseTime": 1678835671368,
            "catchQuestion": "How many <b class=\"r\">red<\/b> marbles did your opponent report drawing? ",
            "catchKey": -1,
            "catchResponse": -1,
            "catchTime": 1678835591567,
            "trialTime": 0
        },
        {
            "exptPart": "trial",
            "trialNumber": 100,
            "roleCurrent": "sender",
            "marblesSampled": 100,
            "probRed": 0.5,
            "lambda": 5,
            "drawnRed": 89,
            "reportedRed": 100,
            "inferredRed": 96,
            "playerTrialScore": 7,
            "oppTrialScore": -7,
            "playerTotalScore": -298,
            "oppTotalScore": -1732,
            "waitTime": 2816.2110981567466,
            "responseTime": 1678835688083,
            "catchQuestion": "How many <b class=\"r\">red<\/b> marbles did your opponent report drawing? ",
            "catchKey": -1,
            "catchResponse": -1,
            "catchTime": 1678835688083,
            "trialTime": 0
        }
    ]
}