{
    "client": {
        "type": "sona",
        "experiment_id": 2228,
        "credit_token": "b315147ae43241ea9c65086cb510cfb7",
        "survey_code": "47358",
        "sid": "sona-47358",
        "window": {
            "width": 1368,
            "height": 769
        },
        "screen": {
            "width": 1368,
            "height": 912
        },
        "userAgent": "Mozilla\/5.0 (Windows NT 10.0; Win64; x64) AppleWebKit\/537.36 (KHTML, like Gecko) Chrome\/111.0.0.0 Safari\/537.36",
        "score": 0,
        "bonus": 0
    },
    "expt": {
        "saveURL": "submit.simple.php",
        "trials": 100,
        "practiceTrials": 2,
        "marblesSampled": 100,
        "probRed": 0.5,
        "lambdaAI": 5,
        "roleFirst": "receiver",
        "roles": [
            "sender",
            "receiver"
        ],
        "cost": "unif",
        "goal": "over",
        "goalInstructTxt": "below",
        "catchTrials": [
            12,
            43,
            40,
            21,
            69,
            16,
            95,
            55,
            67,
            60
        ],
        "scoreTotal": {
            "player": 972,
            "opp": -1174
        },
        "sona": {
            "experiment_id": 2228,
            "credit_token": "b315147ae43241ea9c65086cb510cfb7"
        },
        "pilot": false,
        "debug": false
    },
    "trials": [
        {
            "exptPart": "practice",
            "trialNumber": 1,
            "roleCurrent": "sender",
            "marblesSampled": 100,
            "probRed": 0.5,
            "lambda": 5,
            "drawnRed": 49,
            "reportedRed": 48,
            "inferredRed": 45,
            "playerTrialScore": 0,
            "oppTrialScore": -4,
            "playerTotalScore": 0,
            "oppTotalScore": -4,
            "waitTime": 2398.90964974448,
            "responseTime": 1678905902860,
            "catchQuestion": "How many <b class=\"r\">red<\/b> marbles did you actually draw (before any changes)? ",
            "catchKey": 49,
            "catchResponse": 49,
            "catchTime": 1678905902860,
            "trialTime": 0
        },
        {
            "exptPart": "practice",
            "trialNumber": 2,
            "roleCurrent": "receiver",
            "marblesSampled": 100,
            "probRed": 0.5,
            "lambda": 5,
            "drawnRed": 65,
            "reportedRed": 70,
            "inferredRed": 50,
            "playerTrialScore": -15,
            "oppTrialScore": 0,
            "playerTotalScore": -15,
            "oppTotalScore": -4,
            "waitTime": 6482.031394754644,
            "responseTime": 1678905948908,
            "catchQuestion": "How many <b class=\"r\">red<\/b> marbles did your opponent report drawing? ",
            "catchKey": 70,
            "catchResponse": 70,
            "catchTime": 1678905948908,
            "trialTime": 0
        },
        {
            "exptPart": "trial",
            "trialNumber": 1,
            "roleCurrent": "receiver",
            "marblesSampled": 100,
            "probRed": 0.5,
            "lambda": 5,
            "drawnRed": 74,
            "reportedRed": 82,
            "inferredRed": 80,
            "playerTrialScore": -6,
            "oppTrialScore": 6,
            "playerTotalScore": -6,
            "oppTotalScore": 6,
            "waitTime": 6461.4878022728535,
            "responseTime": 1678906026650,
            "catchQuestion": "How many <b class=\"r\">red<\/b> marbles did your opponent report drawing? ",
            "catchKey": -1,
            "catchResponse": -1,
            "catchTime": 1678905948908,
            "trialTime": 0
        },
        {
            "exptPart": "trial",
            "trialNumber": 2,
            "roleCurrent": "sender",
            "marblesSampled": 100,
            "probRed": 0.5,
            "lambda": 5,
            "drawnRed": 47,
            "reportedRed": 40,
            "inferredRed": 34,
            "playerTrialScore": 0,
            "oppTrialScore": -13,
            "playerTotalScore": -6,
            "oppTotalScore": -7,
            "waitTime": 2472.1135509824876,
            "responseTime": 1678906059837,
            "catchQuestion": "How many <b class=\"r\">red<\/b> marbles did your opponent report drawing? ",
            "catchKey": -1,
            "catchResponse": -1,
            "catchTime": 1678905948908,
            "trialTime": 0
        },
        {
            "exptPart": "trial",
            "trialNumber": 3,
            "roleCurrent": "receiver",
            "marblesSampled": 100,
            "probRed": 0.5,
            "lambda": 5,
            "drawnRed": 43,
            "reportedRed": 45,
            "inferredRed": 47,
            "playerTrialScore": -4,
            "oppTrialScore": 4,
            "playerTotalScore": -10,
            "oppTotalScore": -3,
            "waitTime": 5239.63758498065,
            "responseTime": 1678906075711,
            "catchQuestion": "How many <b class=\"r\">red<\/b> marbles did your opponent report drawing? ",
            "catchKey": -1,
            "catchResponse": -1,
            "catchTime": 1678905948908,
            "trialTime": 0
        },
        {
            "exptPart": "trial",
            "trialNumber": 4,
            "roleCurrent": "sender",
            "marblesSampled": 100,
            "probRed": 0.5,
            "lambda": 5,
            "drawnRed": 60,
            "reportedRed": 60,
            "inferredRed": 54,
            "playerTrialScore": 0,
            "oppTrialScore": -6,
            "playerTotalScore": -10,
            "oppTotalScore": -9,
            "waitTime": 3074.17378722713,
            "responseTime": 1678906106590,
            "catchQuestion": "How many <b class=\"r\">red<\/b> marbles did your opponent report drawing? ",
            "catchKey": -1,
            "catchResponse": -1,
            "catchTime": 1678905948908,
            "trialTime": 0
        },
        {
            "exptPart": "trial",
            "trialNumber": 5,
            "roleCurrent": "receiver",
            "marblesSampled": 100,
            "probRed": 0.5,
            "lambda": 5,
            "drawnRed": 79,
            "reportedRed": 84,
            "inferredRed": 79,
            "playerTrialScore": 0,
            "oppTrialScore": 0,
            "playerTotalScore": -10,
            "oppTotalScore": -9,
            "waitTime": 7281.599115366806,
            "responseTime": 1678906123982,
            "catchQuestion": "How many <b class=\"r\">red<\/b> marbles did your opponent report drawing? ",
            "catchKey": -1,
            "catchResponse": -1,
            "catchTime": 1678906123982,
            "trialTime": 0
        },
        {
            "exptPart": "trial",
            "trialNumber": 6,
            "roleCurrent": "sender",
            "marblesSampled": 100,
            "probRed": 0.5,
            "lambda": 5,
            "drawnRed": 52,
            "reportedRed": 55,
            "inferredRed": 54,
            "playerTrialScore": 2,
            "oppTrialScore": -2,
            "playerTotalScore": -8,
            "oppTotalScore": -11,
            "waitTime": 2875.245967684854,
            "responseTime": 1678906175436,
            "catchQuestion": "How many <b class=\"r\">red<\/b> marbles did your opponent report drawing? ",
            "catchKey": -1,
            "catchResponse": -1,
            "catchTime": 1678906123982,
            "trialTime": 0
        },
        {
            "exptPart": "trial",
            "trialNumber": 7,
            "roleCurrent": "receiver",
            "marblesSampled": 100,
            "probRed": 0.5,
            "lambda": 5,
            "drawnRed": 44,
            "reportedRed": 47,
            "inferredRed": 45,
            "playerTrialScore": -1,
            "oppTrialScore": 1,
            "playerTotalScore": -9,
            "oppTotalScore": -10,
            "waitTime": 5147.007079586711,
            "responseTime": 1678906189211,
            "catchQuestion": "How many <b class=\"r\">red<\/b> marbles did your opponent report drawing? ",
            "catchKey": -1,
            "catchResponse": -1,
            "catchTime": 1678906123982,
            "trialTime": 0
        },
        {
            "exptPart": "trial",
            "trialNumber": 8,
            "roleCurrent": "sender",
            "marblesSampled": 100,
            "probRed": 0.5,
            "lambda": 5,
            "drawnRed": 55,
            "reportedRed": 58,
            "inferredRed": 53,
            "playerTrialScore": 0,
            "oppTrialScore": -2,
            "playerTotalScore": -9,
            "oppTotalScore": -12,
            "waitTime": 2216.6601871816665,
            "responseTime": 1678906216713,
            "catchQuestion": "How many <b class=\"r\">red<\/b> marbles did your opponent report drawing? ",
            "catchKey": -1,
            "catchResponse": -1,
            "catchTime": 1678906123982,
            "trialTime": 0
        },
        {
            "exptPart": "trial",
            "trialNumber": 9,
            "roleCurrent": "receiver",
            "marblesSampled": 100,
            "probRed": 0.5,
            "lambda": 5,
            "drawnRed": 32,
            "reportedRed": 39,
            "inferredRed": 41,
            "playerTrialScore": -9,
            "oppTrialScore": 9,
            "playerTotalScore": -18,
            "oppTotalScore": -3,
            "waitTime": 5233.431799925427,
            "responseTime": 1678906238006,
            "catchQuestion": "How many <b class=\"r\">red<\/b> marbles did your opponent report drawing? ",
            "catchKey": -1,
            "catchResponse": -1,
            "catchTime": 1678906123982,
            "trialTime": 0
        },
        {
            "exptPart": "trial",
            "trialNumber": 10,
            "roleCurrent": "sender",
            "marblesSampled": 100,
            "probRed": 0.5,
            "lambda": 5,
            "drawnRed": 5,
            "reportedRed": 10,
            "inferredRed": 6,
            "playerTrialScore": 1,
            "oppTrialScore": -1,
            "playerTotalScore": -17,
            "oppTotalScore": -4,
            "waitTime": 3184.8824435874517,
            "responseTime": 1678906263938,
            "catchQuestion": "How many <b class=\"r\">red<\/b> marbles did your opponent report drawing? ",
            "catchKey": -1,
            "catchResponse": -1,
            "catchTime": 1678906263938,
            "trialTime": 0
        },
        {
            "exptPart": "trial",
            "trialNumber": 11,
            "roleCurrent": "receiver",
            "marblesSampled": 100,
            "probRed": 0.5,
            "lambda": 5,
            "drawnRed": 34,
            "reportedRed": 41,
            "inferredRed": 41,
            "playerTrialScore": -7,
            "oppTrialScore": 7,
            "playerTotalScore": -24,
            "oppTotalScore": 3,
            "waitTime": 5884.516838178213,
            "responseTime": 1678906304455,
            "catchQuestion": "How many <b class=\"r\">red<\/b> marbles did your opponent report drawing? ",
            "catchKey": -1,
            "catchResponse": -1,
            "catchTime": 1678906263938,
            "trialTime": 0
        },
        {
            "exptPart": "trial",
            "trialNumber": 12,
            "roleCurrent": "sender",
            "marblesSampled": 100,
            "probRed": 0.5,
            "lambda": 5,
            "drawnRed": 63,
            "reportedRed": 62,
            "inferredRed": 58,
            "playerTrialScore": 0,
            "oppTrialScore": -5,
            "playerTotalScore": -24,
            "oppTotalScore": -2,
            "waitTime": 2411.1309222532163,
            "responseTime": 1678906327939,
            "catchQuestion": "How many <b class=\"r\">red<\/b> marbles did your opponent report drawing? ",
            "catchKey": -1,
            "catchResponse": -1,
            "catchTime": 1678906263938,
            "trialTime": 0
        },
        {
            "exptPart": "trial",
            "trialNumber": 13,
            "roleCurrent": "receiver",
            "marblesSampled": 100,
            "probRed": 0.5,
            "lambda": 5,
            "drawnRed": 76,
            "reportedRed": 87,
            "inferredRed": 90,
            "playerTrialScore": -14,
            "oppTrialScore": 14,
            "playerTotalScore": -38,
            "oppTotalScore": 12,
            "waitTime": 5204.30818512381,
            "responseTime": 1678906342807,
            "catchQuestion": "How many <b class=\"r\">red<\/b> marbles did your opponent report drawing? ",
            "catchKey": 87,
            "catchResponse": 87,
            "catchTime": 1678906342807,
            "trialTime": 0
        },
        {
            "exptPart": "trial",
            "trialNumber": 14,
            "roleCurrent": "sender",
            "marblesSampled": 100,
            "probRed": 0.5,
            "lambda": 5,
            "drawnRed": 20,
            "reportedRed": 15,
            "inferredRed": 10,
            "playerTrialScore": 0,
            "oppTrialScore": -10,
            "playerTotalScore": -38,
            "oppTotalScore": 2,
            "waitTime": 2339.7431139260593,
            "responseTime": 1678906374548,
            "catchQuestion": "How many <b class=\"r\">red<\/b> marbles did your opponent report drawing? ",
            "catchKey": -1,
            "catchResponse": -1,
            "catchTime": 1678906342807,
            "trialTime": 0
        },
        {
            "exptPart": "trial",
            "trialNumber": 15,
            "roleCurrent": "receiver",
            "marblesSampled": 100,
            "probRed": 0.5,
            "lambda": 5,
            "drawnRed": 16,
            "reportedRed": 21,
            "inferredRed": 20,
            "playerTrialScore": -4,
            "oppTrialScore": 4,
            "playerTotalScore": -42,
            "oppTotalScore": 6,
            "waitTime": 6923.769874976346,
            "responseTime": 1678906394029,
            "catchQuestion": "How many <b class=\"r\">red<\/b> marbles did your opponent report drawing? ",
            "catchKey": -1,
            "catchResponse": -1,
            "catchTime": 1678906394029,
            "trialTime": 0
        },
        {
            "exptPart": "trial",
            "trialNumber": 16,
            "roleCurrent": "sender",
            "marblesSampled": 100,
            "probRed": 0.5,
            "lambda": 5,
            "drawnRed": 21,
            "reportedRed": 17,
            "inferredRed": 6,
            "playerTrialScore": 0,
            "oppTrialScore": -15,
            "playerTotalScore": -42,
            "oppTotalScore": -9,
            "waitTime": 3106.7318783016653,
            "responseTime": 1678906424704,
            "catchQuestion": "How many <b class=\"r\">red<\/b> marbles did your opponent report drawing? ",
            "catchKey": -1,
            "catchResponse": -1,
            "catchTime": 1678906394029,
            "trialTime": 0
        },
        {
            "exptPart": "trial",
            "trialNumber": 17,
            "roleCurrent": "receiver",
            "marblesSampled": 100,
            "probRed": 0.5,
            "lambda": 5,
            "drawnRed": 57,
            "reportedRed": 66,
            "inferredRed": 67,
            "playerTrialScore": -10,
            "oppTrialScore": 10,
            "playerTotalScore": -52,
            "oppTotalScore": 1,
            "waitTime": 5367.244420576255,
            "responseTime": 1678906447947,
            "catchQuestion": "How many <b class=\"r\">red<\/b> marbles did your opponent report drawing? ",
            "catchKey": 66,
            "catchResponse": 66,
            "catchTime": 1678906447947,
            "trialTime": 0
        },
        {
            "exptPart": "trial",
            "trialNumber": 18,
            "roleCurrent": "sender",
            "marblesSampled": 100,
            "probRed": 0.5,
            "lambda": 5,
            "drawnRed": 16,
            "reportedRed": 45,
            "inferredRed": 40,
            "playerTrialScore": 24,
            "oppTrialScore": -24,
            "playerTotalScore": -28,
            "oppTotalScore": -23,
            "waitTime": 2298.0125845416687,
            "responseTime": 1678906484937,
            "catchQuestion": "How many <b class=\"r\">red<\/b> marbles did your opponent report drawing? ",
            "catchKey": -1,
            "catchResponse": -1,
            "catchTime": 1678906447947,
            "trialTime": 0
        },
        {
            "exptPart": "trial",
            "trialNumber": 19,
            "roleCurrent": "receiver",
            "marblesSampled": 100,
            "probRed": 0.5,
            "lambda": 5,
            "drawnRed": 35,
            "reportedRed": 39,
            "inferredRed": 30,
            "playerTrialScore": -5,
            "oppTrialScore": 0,
            "playerTotalScore": -33,
            "oppTotalScore": -23,
            "waitTime": 5958.256796193247,
            "responseTime": 1678906508433,
            "catchQuestion": "How many <b class=\"r\">red<\/b> marbles did your opponent report drawing? ",
            "catchKey": -1,
            "catchResponse": -1,
            "catchTime": 1678906447947,
            "trialTime": 0
        },
        {
            "exptPart": "trial",
            "trialNumber": 20,
            "roleCurrent": "sender",
            "marblesSampled": 100,
            "probRed": 0.5,
            "lambda": 5,
            "drawnRed": 40,
            "reportedRed": 52,
            "inferredRed": 47,
            "playerTrialScore": 7,
            "oppTrialScore": -7,
            "playerTotalScore": -26,
            "oppTotalScore": -30,
            "waitTime": 3091.90450874978,
            "responseTime": 1678906524309,
            "catchQuestion": "How many <b class=\"r\">red<\/b> marbles did your opponent report drawing? ",
            "catchKey": -1,
            "catchResponse": -1,
            "catchTime": 1678906524309,
            "trialTime": 0
        },
        {
            "exptPart": "trial",
            "trialNumber": 21,
            "roleCurrent": "receiver",
            "marblesSampled": 100,
            "probRed": 0.5,
            "lambda": 5,
            "drawnRed": 61,
            "reportedRed": 65,
            "inferredRed": 50,
            "playerTrialScore": -11,
            "oppTrialScore": 0,
            "playerTotalScore": -37,
            "oppTotalScore": -30,
            "waitTime": 6924.707164529178,
            "responseTime": 1678906541829,
            "catchQuestion": "How many <b class=\"r\">red<\/b> marbles did your opponent report drawing? ",
            "catchKey": -1,
            "catchResponse": -1,
            "catchTime": 1678906524309,
            "trialTime": 0
        },
        {
            "exptPart": "trial",
            "trialNumber": 22,
            "roleCurrent": "sender",
            "marblesSampled": 100,
            "probRed": 0.5,
            "lambda": 5,
            "drawnRed": 91,
            "reportedRed": 95,
            "inferredRed": 88,
            "playerTrialScore": 0,
            "oppTrialScore": -3,
            "playerTotalScore": -37,
            "oppTotalScore": -33,
            "waitTime": 2435.89664767035,
            "responseTime": 1678906586656,
            "catchQuestion": "How many <b class=\"r\">red<\/b> marbles did you actually draw (before any changes)? ",
            "catchKey": 91,
            "catchResponse": 95,
            "catchTime": 1678906586656,
            "trialTime": 0
        },
        {
            "exptPart": "trial",
            "trialNumber": 23,
            "roleCurrent": "receiver",
            "marblesSampled": 100,
            "probRed": 0.5,
            "lambda": 5,
            "drawnRed": 67,
            "reportedRed": 77,
            "inferredRed": 72,
            "playerTrialScore": -5,
            "oppTrialScore": 5,
            "playerTotalScore": -42,
            "oppTotalScore": -28,
            "waitTime": 5858.804885777583,
            "responseTime": 1678906617755,
            "catchQuestion": "How many <b class=\"r\">red<\/b> marbles did you actually draw (before any changes)? ",
            "catchKey": -1,
            "catchResponse": -1,
            "catchTime": 1678906586656,
            "trialTime": 0
        },
        {
            "exptPart": "trial",
            "trialNumber": 24,
            "roleCurrent": "sender",
            "marblesSampled": 100,
            "probRed": 0.5,
            "lambda": 5,
            "drawnRed": 36,
            "reportedRed": 49,
            "inferredRed": 44,
            "playerTrialScore": 8,
            "oppTrialScore": -8,
            "playerTotalScore": -34,
            "oppTotalScore": -36,
            "waitTime": 2176.257959390376,
            "responseTime": 1678906636644,
            "catchQuestion": "How many <b class=\"r\">red<\/b> marbles did you actually draw (before any changes)? ",
            "catchKey": -1,
            "catchResponse": -1,
            "catchTime": 1678906586656,
            "trialTime": 0
        },
        {
            "exptPart": "trial",
            "trialNumber": 25,
            "roleCurrent": "receiver",
            "marblesSampled": 100,
            "probRed": 0.5,
            "lambda": 5,
            "drawnRed": 67,
            "reportedRed": 70,
            "inferredRed": 60,
            "playerTrialScore": -7,
            "oppTrialScore": 0,
            "playerTotalScore": -41,
            "oppTotalScore": -36,
            "waitTime": 5800.652892821393,
            "responseTime": 1678906652155,
            "catchQuestion": "How many <b class=\"r\">red<\/b> marbles did you actually draw (before any changes)? ",
            "catchKey": -1,
            "catchResponse": -1,
            "catchTime": 1678906652155,
            "trialTime": 0
        },
        {
            "exptPart": "trial",
            "trialNumber": 26,
            "roleCurrent": "sender",
            "marblesSampled": 100,
            "probRed": 0.5,
            "lambda": 5,
            "drawnRed": 55,
            "reportedRed": 72,
            "inferredRed": 66,
            "playerTrialScore": 11,
            "oppTrialScore": -11,
            "playerTotalScore": -30,
            "oppTotalScore": -47,
            "waitTime": 3163.044862596078,
            "responseTime": 1678906677494,
            "catchQuestion": "How many <b class=\"r\">red<\/b> marbles did you actually draw (before any changes)? ",
            "catchKey": -1,
            "catchResponse": -1,
            "catchTime": 1678906652155,
            "trialTime": 0
        },
        {
            "exptPart": "trial",
            "trialNumber": 27,
            "roleCurrent": "receiver",
            "marblesSampled": 100,
            "probRed": 0.5,
            "lambda": 5,
            "drawnRed": 62,
            "reportedRed": 68,
            "inferredRed": 68,
            "playerTrialScore": -6,
            "oppTrialScore": 6,
            "playerTotalScore": -36,
            "oppTotalScore": -41,
            "waitTime": 5459.87752860296,
            "responseTime": 1678906693739,
            "catchQuestion": "How many <b class=\"r\">red<\/b> marbles did you actually draw (before any changes)? ",
            "catchKey": -1,
            "catchResponse": -1,
            "catchTime": 1678906652155,
            "trialTime": 0
        },
        {
            "exptPart": "trial",
            "trialNumber": 28,
            "roleCurrent": "sender",
            "marblesSampled": 100,
            "probRed": 0.5,
            "lambda": 5,
            "drawnRed": 72,
            "reportedRed": 87,
            "inferredRed": 81,
            "playerTrialScore": 9,
            "oppTrialScore": -9,
            "playerTotalScore": -27,
            "oppTotalScore": -50,
            "waitTime": 2191.449411854539,
            "responseTime": 1678906711261,
            "catchQuestion": "How many <b class=\"r\">red<\/b> marbles did you actually draw (before any changes)? ",
            "catchKey": -1,
            "catchResponse": -1,
            "catchTime": 1678906652155,
            "trialTime": 0
        },
        {
            "exptPart": "trial",
            "trialNumber": 29,
            "roleCurrent": "receiver",
            "marblesSampled": 100,
            "probRed": 0.5,
            "lambda": 5,
            "drawnRed": 30,
            "reportedRed": 32,
            "inferredRed": 24,
            "playerTrialScore": -6,
            "oppTrialScore": 0,
            "playerTotalScore": -33,
            "oppTotalScore": -50,
            "waitTime": 5554.958810393127,
            "responseTime": 1678906726925,
            "catchQuestion": "How many <b class=\"r\">red<\/b> marbles did you actually draw (before any changes)? ",
            "catchKey": -1,
            "catchResponse": -1,
            "catchTime": 1678906652155,
            "trialTime": 0
        },
        {
            "exptPart": "trial",
            "trialNumber": 30,
            "roleCurrent": "sender",
            "marblesSampled": 100,
            "probRed": 0.5,
            "lambda": 5,
            "drawnRed": 37,
            "reportedRed": 78,
            "inferredRed": 73,
            "playerTrialScore": 36,
            "oppTrialScore": -36,
            "playerTotalScore": 3,
            "oppTotalScore": -86,
            "waitTime": 2402.0963665375775,
            "responseTime": 1678906754150,
            "catchQuestion": "How many <b class=\"r\">red<\/b> marbles did you actually draw (before any changes)? ",
            "catchKey": -1,
            "catchResponse": -1,
            "catchTime": 1678906754150,
            "trialTime": 0
        },
        {
            "exptPart": "trial",
            "trialNumber": 31,
            "roleCurrent": "receiver",
            "marblesSampled": 100,
            "probRed": 0.5,
            "lambda": 5,
            "drawnRed": 70,
            "reportedRed": 74,
            "inferredRed": 62,
            "playerTrialScore": -8,
            "oppTrialScore": 0,
            "playerTotalScore": -5,
            "oppTotalScore": -86,
            "waitTime": 5939.24980504399,
            "responseTime": 1678906774861,
            "catchQuestion": "How many <b class=\"r\">red<\/b> marbles did you actually draw (before any changes)? ",
            "catchKey": -1,
            "catchResponse": -1,
            "catchTime": 1678906754150,
            "trialTime": 0
        },
        {
            "exptPart": "trial",
            "trialNumber": 32,
            "roleCurrent": "sender",
            "marblesSampled": 100,
            "probRed": 0.5,
            "lambda": 5,
            "drawnRed": 53,
            "reportedRed": 84,
            "inferredRed": 81,
            "playerTrialScore": 28,
            "oppTrialScore": -28,
            "playerTotalScore": 23,
            "oppTotalScore": -114,
            "waitTime": 2713.0830721381376,
            "responseTime": 1678906800339,
            "catchQuestion": "How many <b class=\"r\">red<\/b> marbles did you actually draw (before any changes)? ",
            "catchKey": -1,
            "catchResponse": -1,
            "catchTime": 1678906754150,
            "trialTime": 0
        },
        {
            "exptPart": "trial",
            "trialNumber": 33,
            "roleCurrent": "receiver",
            "marblesSampled": 100,
            "probRed": 0.5,
            "lambda": 5,
            "drawnRed": 60,
            "reportedRed": 68,
            "inferredRed": 60,
            "playerTrialScore": 0,
            "oppTrialScore": 0,
            "playerTotalScore": 23,
            "oppTotalScore": -114,
            "waitTime": 6993.870173770274,
            "responseTime": 1678906814743,
            "catchQuestion": "How many <b class=\"r\">red<\/b> marbles did you actually draw (before any changes)? ",
            "catchKey": -1,
            "catchResponse": -1,
            "catchTime": 1678906754150,
            "trialTime": 0
        },
        {
            "exptPart": "trial",
            "trialNumber": 34,
            "roleCurrent": "sender",
            "marblesSampled": 100,
            "probRed": 0.5,
            "lambda": 5,
            "drawnRed": 44,
            "reportedRed": 82,
            "inferredRed": 72,
            "playerTrialScore": 28,
            "oppTrialScore": -28,
            "playerTotalScore": 51,
            "oppTotalScore": -142,
            "waitTime": 2313.948534854672,
            "responseTime": 1678906840771,
            "catchQuestion": "How many <b class=\"r\">red<\/b> marbles did you actually draw (before any changes)? ",
            "catchKey": -1,
            "catchResponse": -1,
            "catchTime": 1678906754150,
            "trialTime": 0
        },
        {
            "exptPart": "trial",
            "trialNumber": 35,
            "roleCurrent": "receiver",
            "marblesSampled": 100,
            "probRed": 0.5,
            "lambda": 5,
            "drawnRed": 90,
            "reportedRed": 96,
            "inferredRed": 72,
            "playerTrialScore": -18,
            "oppTrialScore": 0,
            "playerTotalScore": 33,
            "oppTotalScore": -142,
            "waitTime": 5658.714995582324,
            "responseTime": 1678906851919,
            "catchQuestion": "How many <b class=\"r\">red<\/b> marbles did you actually draw (before any changes)? ",
            "catchKey": -1,
            "catchResponse": -1,
            "catchTime": 1678906851920,
            "trialTime": 0
        },
        {
            "exptPart": "trial",
            "trialNumber": 36,
            "roleCurrent": "sender",
            "marblesSampled": 100,
            "probRed": 0.5,
            "lambda": 5,
            "drawnRed": 60,
            "reportedRed": 92,
            "inferredRed": 88,
            "playerTrialScore": 28,
            "oppTrialScore": -28,
            "playerTotalScore": 61,
            "oppTotalScore": -170,
            "waitTime": 2437.864692085711,
            "responseTime": 1678906889842,
            "catchQuestion": "How many <b class=\"r\">red<\/b> marbles did you actually draw (before any changes)? ",
            "catchKey": -1,
            "catchResponse": -1,
            "catchTime": 1678906851920,
            "trialTime": 0
        },
        {
            "exptPart": "trial",
            "trialNumber": 37,
            "roleCurrent": "receiver",
            "marblesSampled": 100,
            "probRed": 0.5,
            "lambda": 5,
            "drawnRed": 21,
            "reportedRed": 24,
            "inferredRed": 18,
            "playerTrialScore": -3,
            "oppTrialScore": 0,
            "playerTotalScore": 58,
            "oppTotalScore": -170,
            "waitTime": 5626.307903530338,
            "responseTime": 1678906904799,
            "catchQuestion": "How many <b class=\"r\">red<\/b> marbles did you actually draw (before any changes)? ",
            "catchKey": -1,
            "catchResponse": -1,
            "catchTime": 1678906851920,
            "trialTime": 0
        },
        {
            "exptPart": "trial",
            "trialNumber": 38,
            "roleCurrent": "sender",
            "marblesSampled": 100,
            "probRed": 0.5,
            "lambda": 5,
            "drawnRed": 63,
            "reportedRed": 89,
            "inferredRed": 86,
            "playerTrialScore": 23,
            "oppTrialScore": -23,
            "playerTotalScore": 81,
            "oppTotalScore": -193,
            "waitTime": 2444.93622863961,
            "responseTime": 1678906938535,
            "catchQuestion": "How many <b class=\"r\">red<\/b> marbles did you actually draw (before any changes)? ",
            "catchKey": -1,
            "catchResponse": -1,
            "catchTime": 1678906851920,
            "trialTime": 0
        },
        {
            "exptPart": "trial",
            "trialNumber": 39,
            "roleCurrent": "receiver",
            "marblesSampled": 100,
            "probRed": 0.5,
            "lambda": 5,
            "drawnRed": 22,
            "reportedRed": 31,
            "inferredRed": 30,
            "playerTrialScore": -8,
            "oppTrialScore": 8,
            "playerTotalScore": 73,
            "oppTotalScore": -185,
            "waitTime": 6462.264509099683,
            "responseTime": 1678906952916,
            "catchQuestion": "How many <b class=\"r\">red<\/b> marbles did you actually draw (before any changes)? ",
            "catchKey": -1,
            "catchResponse": -1,
            "catchTime": 1678906851920,
            "trialTime": 0
        },
        {
            "exptPart": "trial",
            "trialNumber": 40,
            "roleCurrent": "sender",
            "marblesSampled": 100,
            "probRed": 0.5,
            "lambda": 5,
            "drawnRed": 21,
            "reportedRed": 86,
            "inferredRed": 84,
            "playerTrialScore": 63,
            "oppTrialScore": -63,
            "playerTotalScore": 136,
            "oppTotalScore": -248,
            "waitTime": 3092.543377682654,
            "responseTime": 1678907001315,
            "catchQuestion": "How many <b class=\"r\">red<\/b> marbles did you actually draw (before any changes)? ",
            "catchKey": -1,
            "catchResponse": -1,
            "catchTime": 1678907001315,
            "trialTime": 0
        },
        {
            "exptPart": "trial",
            "trialNumber": 41,
            "roleCurrent": "receiver",
            "marblesSampled": 100,
            "probRed": 0.5,
            "lambda": 5,
            "drawnRed": 19,
            "reportedRed": 25,
            "inferredRed": 18,
            "playerTrialScore": -1,
            "oppTrialScore": 0,
            "playerTotalScore": 135,
            "oppTotalScore": -248,
            "waitTime": 5773.846772334476,
            "responseTime": 1678907018372,
            "catchQuestion": "How many <b class=\"r\">red<\/b> marbles did your opponent report drawing? ",
            "catchKey": 25,
            "catchResponse": 25,
            "catchTime": 1678907018372,
            "trialTime": 0
        },
        {
            "exptPart": "trial",
            "trialNumber": 42,
            "roleCurrent": "sender",
            "marblesSampled": 100,
            "probRed": 0.5,
            "lambda": 5,
            "drawnRed": 93,
            "reportedRed": 93,
            "inferredRed": 86,
            "playerTrialScore": 0,
            "oppTrialScore": -7,
            "playerTotalScore": 135,
            "oppTotalScore": -255,
            "waitTime": 2460.430458466894,
            "responseTime": 1678907041752,
            "catchQuestion": "How many <b class=\"r\">red<\/b> marbles did your opponent report drawing? ",
            "catchKey": -1,
            "catchResponse": -1,
            "catchTime": 1678907018372,
            "trialTime": 0
        },
        {
            "exptPart": "trial",
            "trialNumber": 43,
            "roleCurrent": "receiver",
            "marblesSampled": 100,
            "probRed": 0.5,
            "lambda": 5,
            "drawnRed": 46,
            "reportedRed": 51,
            "inferredRed": 45,
            "playerTrialScore": -1,
            "oppTrialScore": 0,
            "playerTotalScore": 134,
            "oppTotalScore": -255,
            "waitTime": 6583.803375699017,
            "responseTime": 1678907057216,
            "catchQuestion": "How many <b class=\"r\">red<\/b> marbles did your opponent report drawing? ",
            "catchKey": -1,
            "catchResponse": -1,
            "catchTime": 1678907018372,
            "trialTime": 0
        },
        {
            "exptPart": "trial",
            "trialNumber": 44,
            "roleCurrent": "sender",
            "marblesSampled": 100,
            "probRed": 0.5,
            "lambda": 5,
            "drawnRed": 71,
            "reportedRed": 82,
            "inferredRed": 73,
            "playerTrialScore": 2,
            "oppTrialScore": -2,
            "playerTotalScore": 136,
            "oppTotalScore": -257,
            "waitTime": 2222.146056833487,
            "responseTime": 1678907073025,
            "catchQuestion": "How many <b class=\"r\">red<\/b> marbles did you actually draw (before any changes)? ",
            "catchKey": 71,
            "catchResponse": 75,
            "catchTime": 1678907073026,
            "trialTime": 0
        },
        {
            "exptPart": "trial",
            "trialNumber": 45,
            "roleCurrent": "receiver",
            "marblesSampled": 100,
            "probRed": 0.5,
            "lambda": 5,
            "drawnRed": 71,
            "reportedRed": 75,
            "inferredRed": 60,
            "playerTrialScore": -11,
            "oppTrialScore": 0,
            "playerTotalScore": 125,
            "oppTotalScore": -257,
            "waitTime": 7079.357414317015,
            "responseTime": 1678907093569,
            "catchQuestion": "How many <b class=\"r\">red<\/b> marbles did you actually draw (before any changes)? ",
            "catchKey": -1,
            "catchResponse": -1,
            "catchTime": 1678907093569,
            "trialTime": 0
        },
        {
            "exptPart": "trial",
            "trialNumber": 46,
            "roleCurrent": "sender",
            "marblesSampled": 100,
            "probRed": 0.5,
            "lambda": 5,
            "drawnRed": 29,
            "reportedRed": 72,
            "inferredRed": 64,
            "playerTrialScore": 35,
            "oppTrialScore": -35,
            "playerTotalScore": 160,
            "oppTotalScore": -292,
            "waitTime": 2188.589528648486,
            "responseTime": 1678907127940,
            "catchQuestion": "How many <b class=\"r\">red<\/b> marbles did you actually draw (before any changes)? ",
            "catchKey": -1,
            "catchResponse": -1,
            "catchTime": 1678907093569,
            "trialTime": 0
        },
        {
            "exptPart": "trial",
            "trialNumber": 47,
            "roleCurrent": "receiver",
            "marblesSampled": 100,
            "probRed": 0.5,
            "lambda": 5,
            "drawnRed": 14,
            "reportedRed": 20,
            "inferredRed": 12,
            "playerTrialScore": -2,
            "oppTrialScore": 0,
            "playerTotalScore": 158,
            "oppTotalScore": -292,
            "waitTime": 5382.35102978733,
            "responseTime": 1678907166714,
            "catchQuestion": "How many <b class=\"r\">red<\/b> marbles did you actually draw (before any changes)? ",
            "catchKey": -1,
            "catchResponse": -1,
            "catchTime": 1678907093569,
            "trialTime": 0
        },
        {
            "exptPart": "trial",
            "trialNumber": 48,
            "roleCurrent": "sender",
            "marblesSampled": 100,
            "probRed": 0.5,
            "lambda": 5,
            "drawnRed": 33,
            "reportedRed": 86,
            "inferredRed": 80,
            "playerTrialScore": 47,
            "oppTrialScore": -47,
            "playerTotalScore": 205,
            "oppTotalScore": -339,
            "waitTime": 2164.290101904955,
            "responseTime": 1678907203210,
            "catchQuestion": "How many <b class=\"r\">red<\/b> marbles did you actually draw (before any changes)? ",
            "catchKey": -1,
            "catchResponse": -1,
            "catchTime": 1678907093569,
            "trialTime": 0
        },
        {
            "exptPart": "trial",
            "trialNumber": 49,
            "roleCurrent": "receiver",
            "marblesSampled": 100,
            "probRed": 0.5,
            "lambda": 5,
            "drawnRed": 35,
            "reportedRed": 48,
            "inferredRed": 40,
            "playerTrialScore": -5,
            "oppTrialScore": 5,
            "playerTotalScore": 200,
            "oppTotalScore": -334,
            "waitTime": 5215.455057603337,
            "responseTime": 1678907216989,
            "catchQuestion": "How many <b class=\"r\">red<\/b> marbles did you actually draw (before any changes)? ",
            "catchKey": -1,
            "catchResponse": -1,
            "catchTime": 1678907093569,
            "trialTime": 0
        },
        {
            "exptPart": "trial",
            "trialNumber": 50,
            "roleCurrent": "sender",
            "marblesSampled": 100,
            "probRed": 0.5,
            "lambda": 5,
            "drawnRed": 40,
            "reportedRed": 95,
            "inferredRed": 93,
            "playerTrialScore": 53,
            "oppTrialScore": -53,
            "playerTotalScore": 253,
            "oppTotalScore": -387,
            "waitTime": 2466.8302112706224,
            "responseTime": 1678907246637,
            "catchQuestion": "How many <b class=\"r\">red<\/b> marbles did you actually draw (before any changes)? ",
            "catchKey": -1,
            "catchResponse": -1,
            "catchTime": 1678907246637,
            "trialTime": 0
        },
        {
            "exptPart": "trial",
            "trialNumber": 51,
            "roleCurrent": "receiver",
            "marblesSampled": 100,
            "probRed": 0.5,
            "lambda": 5,
            "drawnRed": 22,
            "reportedRed": 28,
            "inferredRed": 22,
            "playerTrialScore": 0,
            "oppTrialScore": 0,
            "playerTotalScore": 253,
            "oppTotalScore": -387,
            "waitTime": 6223.97933350562,
            "responseTime": 1678907320216,
            "catchQuestion": "How many <b class=\"r\">red<\/b> marbles did you actually draw (before any changes)? ",
            "catchKey": -1,
            "catchResponse": -1,
            "catchTime": 1678907246637,
            "trialTime": 0
        },
        {
            "exptPart": "trial",
            "trialNumber": 52,
            "roleCurrent": "sender",
            "marblesSampled": 100,
            "probRed": 0.5,
            "lambda": 5,
            "drawnRed": 43,
            "reportedRed": 69,
            "inferredRed": 62,
            "playerTrialScore": 19,
            "oppTrialScore": -19,
            "playerTotalScore": 272,
            "oppTotalScore": -406,
            "waitTime": 2098.2351943741232,
            "responseTime": 1678907340109,
            "catchQuestion": "How many <b class=\"r\">red<\/b> marbles did you actually draw (before any changes)? ",
            "catchKey": -1,
            "catchResponse": -1,
            "catchTime": 1678907246637,
            "trialTime": 0
        },
        {
            "exptPart": "trial",
            "trialNumber": 53,
            "roleCurrent": "receiver",
            "marblesSampled": 100,
            "probRed": 0.5,
            "lambda": 5,
            "drawnRed": 34,
            "reportedRed": 41,
            "inferredRed": 38,
            "playerTrialScore": -4,
            "oppTrialScore": 4,
            "playerTotalScore": 268,
            "oppTotalScore": -402,
            "waitTime": 5487.042552207219,
            "responseTime": 1678907354419,
            "catchQuestion": "How many <b class=\"r\">red<\/b> marbles did you actually draw (before any changes)? ",
            "catchKey": -1,
            "catchResponse": -1,
            "catchTime": 1678907246637,
            "trialTime": 0
        },
        {
            "exptPart": "trial",
            "trialNumber": 54,
            "roleCurrent": "sender",
            "marblesSampled": 100,
            "probRed": 0.5,
            "lambda": 5,
            "drawnRed": 47,
            "reportedRed": 86,
            "inferredRed": 85,
            "playerTrialScore": 38,
            "oppTrialScore": -38,
            "playerTotalScore": 306,
            "oppTotalScore": -440,
            "waitTime": 3132.046681388817,
            "responseTime": 1678907386878,
            "catchQuestion": "How many <b class=\"r\">red<\/b> marbles did you actually draw (before any changes)? ",
            "catchKey": -1,
            "catchResponse": -1,
            "catchTime": 1678907246637,
            "trialTime": 0
        },
        {
            "exptPart": "trial",
            "trialNumber": 55,
            "roleCurrent": "receiver",
            "marblesSampled": 100,
            "probRed": 0.5,
            "lambda": 5,
            "drawnRed": 28,
            "reportedRed": 35,
            "inferredRed": 22,
            "playerTrialScore": -6,
            "oppTrialScore": 0,
            "playerTotalScore": 300,
            "oppTotalScore": -440,
            "waitTime": 5602.619876226011,
            "responseTime": 1678907405337,
            "catchQuestion": "How many <b class=\"r\">red<\/b> marbles did you actually draw (before any changes)? ",
            "catchKey": -1,
            "catchResponse": -1,
            "catchTime": 1678907405337,
            "trialTime": 0
        },
        {
            "exptPart": "trial",
            "trialNumber": 56,
            "roleCurrent": "sender",
            "marblesSampled": 100,
            "probRed": 0.5,
            "lambda": 5,
            "drawnRed": 50,
            "reportedRed": 84,
            "inferredRed": 80,
            "playerTrialScore": 30,
            "oppTrialScore": -30,
            "playerTotalScore": 330,
            "oppTotalScore": -470,
            "waitTime": 2377.051183583046,
            "responseTime": 1678907435960,
            "catchQuestion": "How many <b class=\"r\">red<\/b> marbles did you actually draw (before any changes)? ",
            "catchKey": 50,
            "catchResponse": 45,
            "catchTime": 1678907435961,
            "trialTime": 0
        },
        {
            "exptPart": "trial",
            "trialNumber": 57,
            "roleCurrent": "receiver",
            "marblesSampled": 100,
            "probRed": 0.5,
            "lambda": 5,
            "drawnRed": 38,
            "reportedRed": 46,
            "inferredRed": 34,
            "playerTrialScore": -4,
            "oppTrialScore": 0,
            "playerTotalScore": 326,
            "oppTotalScore": -470,
            "waitTime": 5402.505364349006,
            "responseTime": 1678907466463,
            "catchQuestion": "How many <b class=\"r\">red<\/b> marbles did you actually draw (before any changes)? ",
            "catchKey": -1,
            "catchResponse": -1,
            "catchTime": 1678907435961,
            "trialTime": 0
        },
        {
            "exptPart": "trial",
            "trialNumber": 58,
            "roleCurrent": "sender",
            "marblesSampled": 100,
            "probRed": 0.5,
            "lambda": 5,
            "drawnRed": 61,
            "reportedRed": 101,
            "inferredRed": 95,
            "playerTrialScore": 34,
            "oppTrialScore": -34,
            "playerTotalScore": 360,
            "oppTotalScore": -504,
            "waitTime": 2192.2893954516294,
            "responseTime": 1678907495255,
            "catchQuestion": "How many <b class=\"r\">red<\/b> marbles did you actually draw (before any changes)? ",
            "catchKey": -1,
            "catchResponse": -1,
            "catchTime": 1678907435961,
            "trialTime": 0
        },
        {
            "exptPart": "trial",
            "trialNumber": 59,
            "roleCurrent": "receiver",
            "marblesSampled": 100,
            "probRed": 0.5,
            "lambda": 5,
            "drawnRed": 65,
            "reportedRed": 68,
            "inferredRed": 59,
            "playerTrialScore": -6,
            "oppTrialScore": 0,
            "playerTotalScore": 354,
            "oppTotalScore": -504,
            "waitTime": 7098.648823279694,
            "responseTime": 1678907516720,
            "catchQuestion": "How many <b class=\"r\">red<\/b> marbles did you actually draw (before any changes)? ",
            "catchKey": -1,
            "catchResponse": -1,
            "catchTime": 1678907435961,
            "trialTime": 0
        },
        {
            "exptPart": "trial",
            "trialNumber": 60,
            "roleCurrent": "sender",
            "marblesSampled": 100,
            "probRed": 0.5,
            "lambda": 5,
            "drawnRed": 71,
            "reportedRed": 91,
            "inferredRed": 83,
            "playerTrialScore": 12,
            "oppTrialScore": -12,
            "playerTotalScore": 366,
            "oppTotalScore": -516,
            "waitTime": 2132.3360095549174,
            "responseTime": 1678907533318,
            "catchQuestion": "How many <b class=\"r\">red<\/b> marbles did you actually draw (before any changes)? ",
            "catchKey": -1,
            "catchResponse": -1,
            "catchTime": 1678907533318,
            "trialTime": 0
        },
        {
            "exptPart": "trial",
            "trialNumber": 61,
            "roleCurrent": "receiver",
            "marblesSampled": 100,
            "probRed": 0.5,
            "lambda": 5,
            "drawnRed": 38,
            "reportedRed": 46,
            "inferredRed": 42,
            "playerTrialScore": -4,
            "oppTrialScore": 4,
            "playerTotalScore": 362,
            "oppTotalScore": -512,
            "waitTime": 5698.161469776604,
            "responseTime": 1678907549633,
            "catchQuestion": "How many <b class=\"r\">red<\/b> marbles did your opponent report drawing? ",
            "catchKey": 46,
            "catchResponse": 46,
            "catchTime": 1678907549633,
            "trialTime": 0
        },
        {
            "exptPart": "trial",
            "trialNumber": 62,
            "roleCurrent": "sender",
            "marblesSampled": 100,
            "probRed": 0.5,
            "lambda": 5,
            "drawnRed": 67,
            "reportedRed": 97,
            "inferredRed": 86,
            "playerTrialScore": 19,
            "oppTrialScore": -19,
            "playerTotalScore": 381,
            "oppTotalScore": -531,
            "waitTime": 2824.6296963912755,
            "responseTime": 1678907572932,
            "catchQuestion": "How many <b class=\"r\">red<\/b> marbles did your opponent report drawing? ",
            "catchKey": -1,
            "catchResponse": -1,
            "catchTime": 1678907549633,
            "trialTime": 0
        },
        {
            "exptPart": "trial",
            "trialNumber": 63,
            "roleCurrent": "receiver",
            "marblesSampled": 100,
            "probRed": 0.5,
            "lambda": 5,
            "drawnRed": 54,
            "reportedRed": 60,
            "inferredRed": 42,
            "playerTrialScore": -12,
            "oppTrialScore": 0,
            "playerTotalScore": 369,
            "oppTotalScore": -531,
            "waitTime": 5230.159445166523,
            "responseTime": 1678907584846,
            "catchQuestion": "How many <b class=\"r\">red<\/b> marbles did your opponent report drawing? ",
            "catchKey": -1,
            "catchResponse": -1,
            "catchTime": 1678907549633,
            "trialTime": 0
        },
        {
            "exptPart": "trial",
            "trialNumber": 64,
            "roleCurrent": "sender",
            "marblesSampled": 100,
            "probRed": 0.5,
            "lambda": 5,
            "drawnRed": 76,
            "reportedRed": 99,
            "inferredRed": 90,
            "playerTrialScore": 14,
            "oppTrialScore": -14,
            "playerTotalScore": 383,
            "oppTotalScore": -545,
            "waitTime": 2424.7506676165704,
            "responseTime": 1678907605356,
            "catchQuestion": "How many <b class=\"r\">red<\/b> marbles did your opponent report drawing? ",
            "catchKey": -1,
            "catchResponse": -1,
            "catchTime": 1678907549633,
            "trialTime": 0
        },
        {
            "exptPart": "trial",
            "trialNumber": 65,
            "roleCurrent": "receiver",
            "marblesSampled": 100,
            "probRed": 0.5,
            "lambda": 5,
            "drawnRed": 20,
            "reportedRed": 26,
            "inferredRed": 18,
            "playerTrialScore": -2,
            "oppTrialScore": 0,
            "playerTotalScore": 381,
            "oppTotalScore": -545,
            "waitTime": 6551.231898688769,
            "responseTime": 1678907616347,
            "catchQuestion": "How many <b class=\"r\">red<\/b> marbles did your opponent report drawing? ",
            "catchKey": -1,
            "catchResponse": -1,
            "catchTime": 1678907616347,
            "trialTime": 0
        },
        {
            "exptPart": "trial",
            "trialNumber": 66,
            "roleCurrent": "sender",
            "marblesSampled": 100,
            "probRed": 0.5,
            "lambda": 5,
            "drawnRed": 74,
            "reportedRed": 100,
            "inferredRed": 94,
            "playerTrialScore": 20,
            "oppTrialScore": -20,
            "playerTotalScore": 401,
            "oppTotalScore": -565,
            "waitTime": 2313.1080853485682,
            "responseTime": 1678907646913,
            "catchQuestion": "How many <b class=\"r\">red<\/b> marbles did your opponent report drawing? ",
            "catchKey": -1,
            "catchResponse": -1,
            "catchTime": 1678907616347,
            "trialTime": 0
        },
        {
            "exptPart": "trial",
            "trialNumber": 67,
            "roleCurrent": "receiver",
            "marblesSampled": 100,
            "probRed": 0.5,
            "lambda": 5,
            "drawnRed": 22,
            "reportedRed": 25,
            "inferredRed": 18,
            "playerTrialScore": -4,
            "oppTrialScore": 0,
            "playerTotalScore": 397,
            "oppTotalScore": -565,
            "waitTime": 5422.481791189873,
            "responseTime": 1678907656773,
            "catchQuestion": "How many <b class=\"r\">red<\/b> marbles did your opponent report drawing? ",
            "catchKey": -1,
            "catchResponse": -1,
            "catchTime": 1678907616347,
            "trialTime": 0
        },
        {
            "exptPart": "trial",
            "trialNumber": 68,
            "roleCurrent": "sender",
            "marblesSampled": 100,
            "probRed": 0.5,
            "lambda": 5,
            "drawnRed": 41,
            "reportedRed": 96,
            "inferredRed": 94,
            "playerTrialScore": 53,
            "oppTrialScore": -53,
            "playerTotalScore": 450,
            "oppTotalScore": -618,
            "waitTime": 2300.367538467001,
            "responseTime": 1678907678219,
            "catchQuestion": "How many <b class=\"r\">red<\/b> marbles did you actually draw (before any changes)? ",
            "catchKey": 41,
            "catchResponse": 76,
            "catchTime": 1678907678219,
            "trialTime": 0
        },
        {
            "exptPart": "trial",
            "trialNumber": 69,
            "roleCurrent": "receiver",
            "marblesSampled": 100,
            "probRed": 0.5,
            "lambda": 5,
            "drawnRed": 9,
            "reportedRed": 15,
            "inferredRed": 8,
            "playerTrialScore": -1,
            "oppTrialScore": 0,
            "playerTotalScore": 449,
            "oppTotalScore": -618,
            "waitTime": 6067.13043904712,
            "responseTime": 1678907701415,
            "catchQuestion": "How many <b class=\"r\">red<\/b> marbles did you actually draw (before any changes)? ",
            "catchKey": -1,
            "catchResponse": -1,
            "catchTime": 1678907678219,
            "trialTime": 0
        },
        {
            "exptPart": "trial",
            "trialNumber": 70,
            "roleCurrent": "sender",
            "marblesSampled": 100,
            "probRed": 0.5,
            "lambda": 5,
            "drawnRed": 16,
            "reportedRed": 64,
            "inferredRed": 58,
            "playerTrialScore": 42,
            "oppTrialScore": -42,
            "playerTotalScore": 491,
            "oppTotalScore": -660,
            "waitTime": 2161.308727794065,
            "responseTime": 1678907724804,
            "catchQuestion": "How many <b class=\"r\">red<\/b> marbles did you actually draw (before any changes)? ",
            "catchKey": 16,
            "catchResponse": 16,
            "catchTime": 1678907724804,
            "trialTime": 0
        },
        {
            "exptPart": "trial",
            "trialNumber": 71,
            "roleCurrent": "receiver",
            "marblesSampled": 100,
            "probRed": 0.5,
            "lambda": 5,
            "drawnRed": 71,
            "reportedRed": 81,
            "inferredRed": 76,
            "playerTrialScore": -5,
            "oppTrialScore": 5,
            "playerTotalScore": 486,
            "oppTotalScore": -655,
            "waitTime": 7182.285953703993,
            "responseTime": 1678907743275,
            "catchQuestion": "How many <b class=\"r\">red<\/b> marbles did you actually draw (before any changes)? ",
            "catchKey": -1,
            "catchResponse": -1,
            "catchTime": 1678907724804,
            "trialTime": 0
        },
        {
            "exptPart": "trial",
            "trialNumber": 72,
            "roleCurrent": "sender",
            "marblesSampled": 100,
            "probRed": 0.5,
            "lambda": 5,
            "drawnRed": 48,
            "reportedRed": 83,
            "inferredRed": 75,
            "playerTrialScore": 27,
            "oppTrialScore": -27,
            "playerTotalScore": 513,
            "oppTotalScore": -682,
            "waitTime": 2962.5885331679674,
            "responseTime": 1678907762363,
            "catchQuestion": "How many <b class=\"r\">red<\/b> marbles did you actually draw (before any changes)? ",
            "catchKey": -1,
            "catchResponse": -1,
            "catchTime": 1678907724804,
            "trialTime": 0
        },
        {
            "exptPart": "trial",
            "trialNumber": 73,
            "roleCurrent": "receiver",
            "marblesSampled": 100,
            "probRed": 0.5,
            "lambda": 5,
            "drawnRed": 12,
            "reportedRed": 15,
            "inferredRed": 10,
            "playerTrialScore": -2,
            "oppTrialScore": 0,
            "playerTotalScore": 511,
            "oppTotalScore": -682,
            "waitTime": 5495.004132930173,
            "responseTime": 1678907774357,
            "catchQuestion": "How many <b class=\"r\">red<\/b> marbles did you actually draw (before any changes)? ",
            "catchKey": -1,
            "catchResponse": -1,
            "catchTime": 1678907724804,
            "trialTime": 0
        },
        {
            "exptPart": "trial",
            "trialNumber": 74,
            "roleCurrent": "sender",
            "marblesSampled": 100,
            "probRed": 0.5,
            "lambda": 5,
            "drawnRed": 68,
            "reportedRed": 98,
            "inferredRed": 95,
            "playerTrialScore": 27,
            "oppTrialScore": -27,
            "playerTotalScore": 538,
            "oppTotalScore": -709,
            "waitTime": 2103.670763460779,
            "responseTime": 1678907791065,
            "catchQuestion": "How many <b class=\"r\">red<\/b> marbles did you actually draw (before any changes)? ",
            "catchKey": -1,
            "catchResponse": -1,
            "catchTime": 1678907724804,
            "trialTime": 0
        },
        {
            "exptPart": "trial",
            "trialNumber": 75,
            "roleCurrent": "receiver",
            "marblesSampled": 100,
            "probRed": 0.5,
            "lambda": 5,
            "drawnRed": 61,
            "reportedRed": 63,
            "inferredRed": 54,
            "playerTrialScore": -7,
            "oppTrialScore": 0,
            "playerTotalScore": 531,
            "oppTotalScore": -709,
            "waitTime": 6123.010053992372,
            "responseTime": 1678907805873,
            "catchQuestion": "How many <b class=\"r\">red<\/b> marbles did you actually draw (before any changes)? ",
            "catchKey": -1,
            "catchResponse": -1,
            "catchTime": 1678907805873,
            "trialTime": 0
        },
        {
            "exptPart": "trial",
            "trialNumber": 76,
            "roleCurrent": "sender",
            "marblesSampled": 100,
            "probRed": 0.5,
            "lambda": 5,
            "drawnRed": 37,
            "reportedRed": 95,
            "inferredRed": 93,
            "playerTrialScore": 56,
            "oppTrialScore": -56,
            "playerTotalScore": 587,
            "oppTotalScore": -765,
            "waitTime": 2580.799367900515,
            "responseTime": 1678907834157,
            "catchQuestion": "How many <b class=\"r\">red<\/b> marbles did you actually draw (before any changes)? ",
            "catchKey": -1,
            "catchResponse": -1,
            "catchTime": 1678907805873,
            "trialTime": 0
        },
        {
            "exptPart": "trial",
            "trialNumber": 77,
            "roleCurrent": "receiver",
            "marblesSampled": 100,
            "probRed": 0.5,
            "lambda": 5,
            "drawnRed": 47,
            "reportedRed": 50,
            "inferredRed": 45,
            "playerTrialScore": -2,
            "oppTrialScore": 0,
            "playerTotalScore": 585,
            "oppTotalScore": -765,
            "waitTime": 6202.451468288789,
            "responseTime": 1678907845066,
            "catchQuestion": "How many <b class=\"r\">red<\/b> marbles did you actually draw (before any changes)? ",
            "catchKey": -1,
            "catchResponse": -1,
            "catchTime": 1678907805873,
            "trialTime": 0
        },
        {
            "exptPart": "trial",
            "trialNumber": 78,
            "roleCurrent": "sender",
            "marblesSampled": 100,
            "probRed": 0.5,
            "lambda": 5,
            "drawnRed": 60,
            "reportedRed": 93,
            "inferredRed": 89,
            "playerTrialScore": 29,
            "oppTrialScore": -29,
            "playerTotalScore": 614,
            "oppTotalScore": -794,
            "waitTime": 2276.6522778430763,
            "responseTime": 1678907864570,
            "catchQuestion": "How many <b class=\"r\">red<\/b> marbles did you actually draw (before any changes)? ",
            "catchKey": -1,
            "catchResponse": -1,
            "catchTime": 1678907805873,
            "trialTime": 0
        },
        {
            "exptPart": "trial",
            "trialNumber": 79,
            "roleCurrent": "receiver",
            "marblesSampled": 100,
            "probRed": 0.5,
            "lambda": 5,
            "drawnRed": 73,
            "reportedRed": 81,
            "inferredRed": 72,
            "playerTrialScore": -1,
            "oppTrialScore": 0,
            "playerTotalScore": 613,
            "oppTotalScore": -794,
            "waitTime": 6252.675285308591,
            "responseTime": 1678907875779,
            "catchQuestion": "How many <b class=\"r\">red<\/b> marbles did you actually draw (before any changes)? ",
            "catchKey": -1,
            "catchResponse": -1,
            "catchTime": 1678907805873,
            "trialTime": 0
        },
        {
            "exptPart": "trial",
            "trialNumber": 80,
            "roleCurrent": "sender",
            "marblesSampled": 100,
            "probRed": 0.5,
            "lambda": 5,
            "drawnRed": 50,
            "reportedRed": 97,
            "inferredRed": 89,
            "playerTrialScore": 39,
            "oppTrialScore": -39,
            "playerTotalScore": 652,
            "oppTotalScore": -833,
            "waitTime": 2275.2998887322215,
            "responseTime": 1678907897120,
            "catchQuestion": "How many <b class=\"r\">red<\/b> marbles did you actually draw (before any changes)? ",
            "catchKey": -1,
            "catchResponse": -1,
            "catchTime": 1678907897120,
            "trialTime": 0
        },
        {
            "exptPart": "trial",
            "trialNumber": 81,
            "roleCurrent": "receiver",
            "marblesSampled": 100,
            "probRed": 0.5,
            "lambda": 5,
            "drawnRed": 31,
            "reportedRed": 34,
            "inferredRed": 28,
            "playerTrialScore": -3,
            "oppTrialScore": 0,
            "playerTotalScore": 649,
            "oppTotalScore": -833,
            "waitTime": 6925.567517244825,
            "responseTime": 1678907915652,
            "catchQuestion": "How many <b class=\"r\">red<\/b> marbles did you actually draw (before any changes)? ",
            "catchKey": -1,
            "catchResponse": -1,
            "catchTime": 1678907897120,
            "trialTime": 0
        },
        {
            "exptPart": "trial",
            "trialNumber": 82,
            "roleCurrent": "sender",
            "marblesSampled": 100,
            "probRed": 0.5,
            "lambda": 5,
            "drawnRed": 45,
            "reportedRed": 95,
            "inferredRed": 92,
            "playerTrialScore": 47,
            "oppTrialScore": -47,
            "playerTotalScore": 696,
            "oppTotalScore": -880,
            "waitTime": 2684.6985105700987,
            "responseTime": 1678907940300,
            "catchQuestion": "How many <b class=\"r\">red<\/b> marbles did you actually draw (before any changes)? ",
            "catchKey": -1,
            "catchResponse": -1,
            "catchTime": 1678907897120,
            "trialTime": 0
        },
        {
            "exptPart": "trial",
            "trialNumber": 83,
            "roleCurrent": "receiver",
            "marblesSampled": 100,
            "probRed": 0.5,
            "lambda": 5,
            "drawnRed": 58,
            "reportedRed": 64,
            "inferredRed": 58,
            "playerTrialScore": 0,
            "oppTrialScore": 0,
            "playerTotalScore": 696,
            "oppTotalScore": -880,
            "waitTime": 5595.464836478124,
            "responseTime": 1678907951279,
            "catchQuestion": "How many <b class=\"r\">red<\/b> marbles did you actually draw (before any changes)? ",
            "catchKey": -1,
            "catchResponse": -1,
            "catchTime": 1678907897120,
            "trialTime": 0
        },
        {
            "exptPart": "trial",
            "trialNumber": 84,
            "roleCurrent": "sender",
            "marblesSampled": 100,
            "probRed": 0.5,
            "lambda": 5,
            "drawnRed": 46,
            "reportedRed": 86,
            "inferredRed": 79,
            "playerTrialScore": 33,
            "oppTrialScore": -33,
            "playerTotalScore": 729,
            "oppTotalScore": -913,
            "waitTime": 2590.3770863452883,
            "responseTime": 1678907970836,
            "catchQuestion": "How many <b class=\"r\">red<\/b> marbles did you actually draw (before any changes)? ",
            "catchKey": -1,
            "catchResponse": -1,
            "catchTime": 1678907897120,
            "trialTime": 0
        },
        {
            "exptPart": "trial",
            "trialNumber": 85,
            "roleCurrent": "receiver",
            "marblesSampled": 100,
            "probRed": 0.5,
            "lambda": 5,
            "drawnRed": 52,
            "reportedRed": 56,
            "inferredRed": 49,
            "playerTrialScore": -3,
            "oppTrialScore": 0,
            "playerTotalScore": 726,
            "oppTotalScore": -913,
            "waitTime": 7239.872440820357,
            "responseTime": 1678907983174,
            "catchQuestion": "How many <b class=\"r\">red<\/b> marbles did you actually draw (before any changes)? ",
            "catchKey": -1,
            "catchResponse": -1,
            "catchTime": 1678907983174,
            "trialTime": 0
        },
        {
            "exptPart": "trial",
            "trialNumber": 86,
            "roleCurrent": "sender",
            "marblesSampled": 100,
            "probRed": 0.5,
            "lambda": 5,
            "drawnRed": 34,
            "reportedRed": 98,
            "inferredRed": 93,
            "playerTrialScore": 59,
            "oppTrialScore": -59,
            "playerTotalScore": 785,
            "oppTotalScore": -972,
            "waitTime": 2315.925042065225,
            "responseTime": 1678908017608,
            "catchQuestion": "How many <b class=\"r\">red<\/b> marbles did you actually draw (before any changes)? ",
            "catchKey": -1,
            "catchResponse": -1,
            "catchTime": 1678907983174,
            "trialTime": 0
        },
        {
            "exptPart": "trial",
            "trialNumber": 87,
            "roleCurrent": "receiver",
            "marblesSampled": 100,
            "probRed": 0.5,
            "lambda": 5,
            "drawnRed": 41,
            "reportedRed": 46,
            "inferredRed": 38,
            "playerTrialScore": -3,
            "oppTrialScore": 0,
            "playerTotalScore": 782,
            "oppTotalScore": -972,
            "waitTime": 7499.973349664282,
            "responseTime": 1678908030420,
            "catchQuestion": "How many <b class=\"r\">red<\/b> marbles did you actually draw (before any changes)? ",
            "catchKey": -1,
            "catchResponse": -1,
            "catchTime": 1678907983174,
            "trialTime": 0
        },
        {
            "exptPart": "trial",
            "trialNumber": 88,
            "roleCurrent": "sender",
            "marblesSampled": 100,
            "probRed": 0.5,
            "lambda": 5,
            "drawnRed": 64,
            "reportedRed": 99,
            "inferredRed": 95,
            "playerTrialScore": 31,
            "oppTrialScore": -31,
            "playerTotalScore": 813,
            "oppTotalScore": -1003,
            "waitTime": 2483.963549459845,
            "responseTime": 1678908051563,
            "catchQuestion": "How many <b class=\"r\">red<\/b> marbles did you actually draw (before any changes)? ",
            "catchKey": -1,
            "catchResponse": -1,
            "catchTime": 1678907983174,
            "trialTime": 0
        },
        {
            "exptPart": "trial",
            "trialNumber": 89,
            "roleCurrent": "receiver",
            "marblesSampled": 100,
            "probRed": 0.5,
            "lambda": 5,
            "drawnRed": 79,
            "reportedRed": 82,
            "inferredRed": 77,
            "playerTrialScore": -2,
            "oppTrialScore": 0,
            "playerTotalScore": 811,
            "oppTotalScore": -1003,
            "waitTime": 5914.814077834731,
            "responseTime": 1678908063653,
            "catchQuestion": "How many <b class=\"r\">red<\/b> marbles did you actually draw (before any changes)? ",
            "catchKey": -1,
            "catchResponse": -1,
            "catchTime": 1678907983174,
            "trialTime": 0
        },
        {
            "exptPart": "trial",
            "trialNumber": 90,
            "roleCurrent": "sender",
            "marblesSampled": 100,
            "probRed": 0.5,
            "lambda": 5,
            "drawnRed": 84,
            "reportedRed": 96,
            "inferredRed": 93,
            "playerTrialScore": 9,
            "oppTrialScore": -9,
            "playerTotalScore": 820,
            "oppTotalScore": -1012,
            "waitTime": 2203.853819780756,
            "responseTime": 1678908078993,
            "catchQuestion": "How many <b class=\"r\">red<\/b> marbles did you actually draw (before any changes)? ",
            "catchKey": -1,
            "catchResponse": -1,
            "catchTime": 1678908078993,
            "trialTime": 0
        },
        {
            "exptPart": "trial",
            "trialNumber": 91,
            "roleCurrent": "receiver",
            "marblesSampled": 100,
            "probRed": 0.5,
            "lambda": 5,
            "drawnRed": 39,
            "reportedRed": 45,
            "inferredRed": 38,
            "playerTrialScore": -1,
            "oppTrialScore": 0,
            "playerTotalScore": 819,
            "oppTotalScore": -1012,
            "waitTime": 6910.79318037221,
            "responseTime": 1678908096119,
            "catchQuestion": "How many <b class=\"r\">red<\/b> marbles did you actually draw (before any changes)? ",
            "catchKey": -1,
            "catchResponse": -1,
            "catchTime": 1678908078993,
            "trialTime": 0
        },
        {
            "exptPart": "trial",
            "trialNumber": 92,
            "roleCurrent": "sender",
            "marblesSampled": 100,
            "probRed": 0.5,
            "lambda": 5,
            "drawnRed": 56,
            "reportedRed": 81,
            "inferredRed": 75,
            "playerTrialScore": 19,
            "oppTrialScore": -19,
            "playerTotalScore": 838,
            "oppTotalScore": -1031,
            "waitTime": 3166.760799775773,
            "responseTime": 1678908110995,
            "catchQuestion": "How many <b class=\"r\">red<\/b> marbles did you actually draw (before any changes)? ",
            "catchKey": -1,
            "catchResponse": -1,
            "catchTime": 1678908078993,
            "trialTime": 0
        },
        {
            "exptPart": "trial",
            "trialNumber": 93,
            "roleCurrent": "receiver",
            "marblesSampled": 100,
            "probRed": 0.5,
            "lambda": 5,
            "drawnRed": 59,
            "reportedRed": 63,
            "inferredRed": 55,
            "playerTrialScore": -4,
            "oppTrialScore": 0,
            "playerTotalScore": 834,
            "oppTotalScore": -1031,
            "waitTime": 7355.971583523767,
            "responseTime": 1678908123678,
            "catchQuestion": "How many <b class=\"r\">red<\/b> marbles did you actually draw (before any changes)? ",
            "catchKey": -1,
            "catchResponse": -1,
            "catchTime": 1678908078993,
            "trialTime": 0
        },
        {
            "exptPart": "trial",
            "trialNumber": 94,
            "roleCurrent": "sender",
            "marblesSampled": 100,
            "probRed": 0.5,
            "lambda": 5,
            "drawnRed": 24,
            "reportedRed": 97,
            "inferredRed": 90,
            "playerTrialScore": 66,
            "oppTrialScore": -66,
            "playerTotalScore": 900,
            "oppTotalScore": -1097,
            "waitTime": 2313.4103243988548,
            "responseTime": 1678908150672,
            "catchQuestion": "How many <b class=\"r\">red<\/b> marbles did you actually draw (before any changes)? ",
            "catchKey": -1,
            "catchResponse": -1,
            "catchTime": 1678908078993,
            "trialTime": 0
        },
        {
            "exptPart": "trial",
            "trialNumber": 95,
            "roleCurrent": "receiver",
            "marblesSampled": 100,
            "probRed": 0.5,
            "lambda": 5,
            "drawnRed": 46,
            "reportedRed": 53,
            "inferredRed": 47,
            "playerTrialScore": -1,
            "oppTrialScore": 1,
            "playerTotalScore": 899,
            "oppTotalScore": -1096,
            "waitTime": 6819.754573924061,
            "responseTime": 1678908160601,
            "catchQuestion": "How many <b class=\"r\">red<\/b> marbles did you actually draw (before any changes)? ",
            "catchKey": -1,
            "catchResponse": -1,
            "catchTime": 1678908160601,
            "trialTime": 0
        },
        {
            "exptPart": "trial",
            "trialNumber": 96,
            "roleCurrent": "sender",
            "marblesSampled": 100,
            "probRed": 0.5,
            "lambda": 5,
            "drawnRed": 73,
            "reportedRed": 96,
            "inferredRed": 91,
            "playerTrialScore": 18,
            "oppTrialScore": -18,
            "playerTotalScore": 917,
            "oppTotalScore": -1114,
            "waitTime": 2507.4776010035594,
            "responseTime": 1678908182206,
            "catchQuestion": "How many <b class=\"r\">red<\/b> marbles did you actually draw (before any changes)? ",
            "catchKey": 73,
            "catchResponse": 78,
            "catchTime": 1678908182206,
            "trialTime": 0
        },
        {
            "exptPart": "trial",
            "trialNumber": 97,
            "roleCurrent": "receiver",
            "marblesSampled": 100,
            "probRed": 0.5,
            "lambda": 5,
            "drawnRed": 23,
            "reportedRed": 26,
            "inferredRed": 18,
            "playerTrialScore": -5,
            "oppTrialScore": 0,
            "playerTotalScore": 912,
            "oppTotalScore": -1114,
            "waitTime": 5403.331263600954,
            "responseTime": 1678908200455,
            "catchQuestion": "How many <b class=\"r\">red<\/b> marbles did you actually draw (before any changes)? ",
            "catchKey": -1,
            "catchResponse": -1,
            "catchTime": 1678908182206,
            "trialTime": 0
        },
        {
            "exptPart": "trial",
            "trialNumber": 98,
            "roleCurrent": "sender",
            "marblesSampled": 100,
            "probRed": 0.5,
            "lambda": 5,
            "drawnRed": 46,
            "reportedRed": 92,
            "inferredRed": 87,
            "playerTrialScore": 41,
            "oppTrialScore": -41,
            "playerTotalScore": 953,
            "oppTotalScore": -1155,
            "waitTime": 2240.587632500321,
            "responseTime": 1678908223532,
            "catchQuestion": "How many <b class=\"r\">red<\/b> marbles did you actually draw (before any changes)? ",
            "catchKey": -1,
            "catchResponse": -1,
            "catchTime": 1678908182206,
            "trialTime": 0
        },
        {
            "exptPart": "trial",
            "trialNumber": 99,
            "roleCurrent": "receiver",
            "marblesSampled": 100,
            "probRed": 0.5,
            "lambda": 5,
            "drawnRed": 58,
            "reportedRed": 63,
            "inferredRed": 58,
            "playerTrialScore": 0,
            "oppTrialScore": 0,
            "playerTotalScore": 953,
            "oppTotalScore": -1155,
            "waitTime": 6430.77248278857,
            "responseTime": 1678908234355,
            "catchQuestion": "How many <b class=\"r\">red<\/b> marbles did you actually draw (before any changes)? ",
            "catchKey": -1,
            "catchResponse": -1,
            "catchTime": 1678908182206,
            "trialTime": 0
        },
        {
            "exptPart": "trial",
            "trialNumber": 100,
            "roleCurrent": "sender",
            "marblesSampled": 100,
            "probRed": 0.5,
            "lambda": 5,
            "drawnRed": 76,
            "reportedRed": 99,
            "inferredRed": 95,
            "playerTrialScore": 19,
            "oppTrialScore": -19,
            "playerTotalScore": 972,
            "oppTotalScore": -1174,
            "waitTime": 2812.257306145677,
            "responseTime": 1678908257928,
            "catchQuestion": "How many <b class=\"r\">red<\/b> marbles did you actually draw (before any changes)? ",
            "catchKey": -1,
            "catchResponse": -1,
            "catchTime": 1678908257928,
            "trialTime": 0
        }
    ]
}