{
    "client": {
        "type": "sona",
        "experiment_id": 2228,
        "credit_token": "b315147ae43241ea9c65086cb510cfb7",
        "survey_code": "43349",
        "sid": "sona-43349",
        "window": {
            "width": 1440,
            "height": 789
        },
        "screen": {
            "width": 1440,
            "height": 900
        },
        "userAgent": "Mozilla\/5.0 (Macintosh; Intel Mac OS X 10_15_7) AppleWebKit\/537.36 (KHTML, like Gecko) Chrome\/110.0.0.0 Safari\/537.36",
        "score": 0,
        "bonus": 0
    },
    "expt": {
        "saveURL": "submit.simple.php",
        "trials": 100,
        "practiceTrials": 2,
        "marblesSampled": 100,
        "probRed": 0.5,
        "lambdaAI": 5,
        "roleFirst": "sender",
        "roles": [
            "sender",
            "receiver"
        ],
        "cost": "unif",
        "goal": "over",
        "goalInstructTxt": "below",
        "catchTrials": [
            19,
            18,
            41,
            14,
            34,
            7,
            55,
            90,
            60,
            13
        ],
        "scoreTotal": {
            "player": -380,
            "opp": 131
        },
        "sona": {
            "experiment_id": 2228,
            "credit_token": "b315147ae43241ea9c65086cb510cfb7"
        },
        "pilot": false,
        "debug": false
    },
    "trials": [
        {
            "exptPart": "practice",
            "trialNumber": 1,
            "roleCurrent": "sender",
            "marblesSampled": 100,
            "probRed": 0.5,
            "lambda": 5,
            "drawnRed": 40,
            "reportedRed": 54,
            "inferredRed": 51,
            "playerTrialScore": 11,
            "oppTrialScore": -11,
            "playerTotalScore": 11,
            "oppTotalScore": -11,
            "waitTime": 2762.081715793172,
            "responseTime": 1678826145552,
            "catchQuestion": "How many <b class=\"r\">red<\/b> marbles did you actually draw (before any changes)? ",
            "catchKey": 40,
            "catchResponse": 40,
            "catchTime": 1678826145553,
            "trialTime": 0
        },
        {
            "exptPart": "practice",
            "trialNumber": 2,
            "roleCurrent": "receiver",
            "marblesSampled": 100,
            "probRed": 0.5,
            "lambda": 5,
            "drawnRed": 35,
            "reportedRed": 42,
            "inferredRed": 50,
            "playerTrialScore": -15,
            "oppTrialScore": 15,
            "playerTotalScore": -4,
            "oppTotalScore": 4,
            "waitTime": 5969.577192225408,
            "responseTime": 1678826378604,
            "catchQuestion": "How many <b class=\"r\">red<\/b> marbles did your opponent report drawing? ",
            "catchKey": 42,
            "catchResponse": 42,
            "catchTime": 1678826378605,
            "trialTime": 0
        },
        {
            "exptPart": "trial",
            "trialNumber": 1,
            "roleCurrent": "sender",
            "marblesSampled": 100,
            "probRed": 0.5,
            "lambda": 5,
            "drawnRed": 22,
            "reportedRed": 53,
            "inferredRed": 47,
            "playerTrialScore": 25,
            "oppTrialScore": -25,
            "playerTotalScore": 25,
            "oppTotalScore": -25,
            "waitTime": 2456.9607984540357,
            "responseTime": 1678826495871,
            "catchQuestion": "How many <b class=\"r\">red<\/b> marbles did your opponent report drawing? ",
            "catchKey": -1,
            "catchResponse": -1,
            "catchTime": 1678826378605,
            "trialTime": 0
        },
        {
            "exptPart": "trial",
            "trialNumber": 2,
            "roleCurrent": "receiver",
            "marblesSampled": 100,
            "probRed": 0.5,
            "lambda": 5,
            "drawnRed": 79,
            "reportedRed": 82,
            "inferredRed": 75,
            "playerTrialScore": -4,
            "oppTrialScore": 0,
            "playerTotalScore": 21,
            "oppTotalScore": -25,
            "waitTime": 6135.024838646239,
            "responseTime": 1678826512151,
            "catchQuestion": "How many <b class=\"r\">red<\/b> marbles did your opponent report drawing? ",
            "catchKey": -1,
            "catchResponse": -1,
            "catchTime": 1678826378605,
            "trialTime": 0
        },
        {
            "exptPart": "trial",
            "trialNumber": 3,
            "roleCurrent": "sender",
            "marblesSampled": 100,
            "probRed": 0.5,
            "lambda": 5,
            "drawnRed": 29,
            "reportedRed": 53,
            "inferredRed": 47,
            "playerTrialScore": 18,
            "oppTrialScore": -18,
            "playerTotalScore": 39,
            "oppTotalScore": -43,
            "waitTime": 3043.011046194245,
            "responseTime": 1678826564825,
            "catchQuestion": "How many <b class=\"r\">red<\/b> marbles did your opponent report drawing? ",
            "catchKey": -1,
            "catchResponse": -1,
            "catchTime": 1678826378605,
            "trialTime": 0
        },
        {
            "exptPart": "trial",
            "trialNumber": 4,
            "roleCurrent": "receiver",
            "marblesSampled": 100,
            "probRed": 0.5,
            "lambda": 5,
            "drawnRed": 62,
            "reportedRed": 66,
            "inferredRed": 50,
            "playerTrialScore": -12,
            "oppTrialScore": 0,
            "playerTotalScore": 27,
            "oppTotalScore": -43,
            "waitTime": 7162.87941457115,
            "responseTime": 1678826583098,
            "catchQuestion": "How many <b class=\"r\">red<\/b> marbles did your opponent report drawing? ",
            "catchKey": -1,
            "catchResponse": -1,
            "catchTime": 1678826378605,
            "trialTime": 0
        },
        {
            "exptPart": "trial",
            "trialNumber": 5,
            "roleCurrent": "sender",
            "marblesSampled": 100,
            "probRed": 0.5,
            "lambda": 5,
            "drawnRed": 49,
            "reportedRed": 42,
            "inferredRed": 39,
            "playerTrialScore": 0,
            "oppTrialScore": -10,
            "playerTotalScore": 27,
            "oppTotalScore": -53,
            "waitTime": 3059.578663960603,
            "responseTime": 1678826611743,
            "catchQuestion": "How many <b class=\"r\">red<\/b> marbles did your opponent report drawing? ",
            "catchKey": -1,
            "catchResponse": -1,
            "catchTime": 1678826611743,
            "trialTime": 0
        },
        {
            "exptPart": "trial",
            "trialNumber": 6,
            "roleCurrent": "receiver",
            "marblesSampled": 100,
            "probRed": 0.5,
            "lambda": 5,
            "drawnRed": 36,
            "reportedRed": 42,
            "inferredRed": 35,
            "playerTrialScore": -1,
            "oppTrialScore": 0,
            "playerTotalScore": 26,
            "oppTotalScore": -53,
            "waitTime": 5607.988769312335,
            "responseTime": 1678826629669,
            "catchQuestion": "How many <b class=\"r\">red<\/b> marbles did your opponent report drawing? ",
            "catchKey": -1,
            "catchResponse": -1,
            "catchTime": 1678826611743,
            "trialTime": 0
        },
        {
            "exptPart": "trial",
            "trialNumber": 7,
            "roleCurrent": "sender",
            "marblesSampled": 100,
            "probRed": 0.5,
            "lambda": 5,
            "drawnRed": 87,
            "reportedRed": 75,
            "inferredRed": 67,
            "playerTrialScore": 0,
            "oppTrialScore": -20,
            "playerTotalScore": 26,
            "oppTotalScore": -73,
            "waitTime": 2842.739190622411,
            "responseTime": 1678826657870,
            "catchQuestion": "How many <b class=\"r\">red<\/b> marbles did your opponent report drawing? ",
            "catchKey": -1,
            "catchResponse": -1,
            "catchTime": 1678826611743,
            "trialTime": 0
        },
        {
            "exptPart": "trial",
            "trialNumber": 8,
            "roleCurrent": "receiver",
            "marblesSampled": 100,
            "probRed": 0.5,
            "lambda": 5,
            "drawnRed": 41,
            "reportedRed": 49,
            "inferredRed": 38,
            "playerTrialScore": -3,
            "oppTrialScore": 0,
            "playerTotalScore": 23,
            "oppTotalScore": -73,
            "waitTime": 5284.2083140117675,
            "responseTime": 1678826676531,
            "catchQuestion": "How many <b class=\"r\">red<\/b> marbles did your opponent report drawing? ",
            "catchKey": 49,
            "catchResponse": 49,
            "catchTime": 1678826676531,
            "trialTime": 0
        },
        {
            "exptPart": "trial",
            "trialNumber": 9,
            "roleCurrent": "sender",
            "marblesSampled": 100,
            "probRed": 0.5,
            "lambda": 5,
            "drawnRed": 49,
            "reportedRed": 52,
            "inferredRed": 47,
            "playerTrialScore": 0,
            "oppTrialScore": -2,
            "playerTotalScore": 23,
            "oppTotalScore": -75,
            "waitTime": 2445.265172304572,
            "responseTime": 1678826704353,
            "catchQuestion": "How many <b class=\"r\">red<\/b> marbles did your opponent report drawing? ",
            "catchKey": -1,
            "catchResponse": -1,
            "catchTime": 1678826676531,
            "trialTime": 0
        },
        {
            "exptPart": "trial",
            "trialNumber": 10,
            "roleCurrent": "receiver",
            "marblesSampled": 100,
            "probRed": 0.5,
            "lambda": 5,
            "drawnRed": 31,
            "reportedRed": 39,
            "inferredRed": 30,
            "playerTrialScore": -1,
            "oppTrialScore": 0,
            "playerTotalScore": 22,
            "oppTotalScore": -75,
            "waitTime": 5275.530679375854,
            "responseTime": 1678826720704,
            "catchQuestion": "How many <b class=\"r\">red<\/b> marbles did your opponent report drawing? ",
            "catchKey": -1,
            "catchResponse": -1,
            "catchTime": 1678826720704,
            "trialTime": 0
        },
        {
            "exptPart": "trial",
            "trialNumber": 11,
            "roleCurrent": "sender",
            "marblesSampled": 100,
            "probRed": 0.5,
            "lambda": 5,
            "drawnRed": 59,
            "reportedRed": 49,
            "inferredRed": 44,
            "playerTrialScore": 0,
            "oppTrialScore": -15,
            "playerTotalScore": 22,
            "oppTotalScore": -90,
            "waitTime": 2334.9434833899168,
            "responseTime": 1678826747556,
            "catchQuestion": "How many <b class=\"r\">red<\/b> marbles did your opponent report drawing? ",
            "catchKey": -1,
            "catchResponse": -1,
            "catchTime": 1678826720704,
            "trialTime": 0
        },
        {
            "exptPart": "trial",
            "trialNumber": 12,
            "roleCurrent": "receiver",
            "marblesSampled": 100,
            "probRed": 0.5,
            "lambda": 5,
            "drawnRed": 69,
            "reportedRed": 74,
            "inferredRed": 69,
            "playerTrialScore": 0,
            "oppTrialScore": 0,
            "playerTotalScore": 22,
            "oppTotalScore": -90,
            "waitTime": 6394.506516606326,
            "responseTime": 1678826760852,
            "catchQuestion": "How many <b class=\"r\">red<\/b> marbles did your opponent report drawing? ",
            "catchKey": -1,
            "catchResponse": -1,
            "catchTime": 1678826720704,
            "trialTime": 0
        },
        {
            "exptPart": "trial",
            "trialNumber": 13,
            "roleCurrent": "sender",
            "marblesSampled": 100,
            "probRed": 0.5,
            "lambda": 5,
            "drawnRed": 45,
            "reportedRed": 39,
            "inferredRed": 37,
            "playerTrialScore": 0,
            "oppTrialScore": -8,
            "playerTotalScore": 22,
            "oppTotalScore": -98,
            "waitTime": 2495.5602410650326,
            "responseTime": 1678826787391,
            "catchQuestion": "How many <b class=\"r\">red<\/b> marbles did your opponent report drawing? ",
            "catchKey": -1,
            "catchResponse": -1,
            "catchTime": 1678826720704,
            "trialTime": 0
        },
        {
            "exptPart": "trial",
            "trialNumber": 14,
            "roleCurrent": "receiver",
            "marblesSampled": 100,
            "probRed": 0.5,
            "lambda": 5,
            "drawnRed": 62,
            "reportedRed": 71,
            "inferredRed": 65,
            "playerTrialScore": -3,
            "oppTrialScore": 3,
            "playerTotalScore": 19,
            "oppTotalScore": -95,
            "waitTime": 6321.211297255761,
            "responseTime": 1678826801183,
            "catchQuestion": "How many <b class=\"r\">red<\/b> marbles did your opponent report drawing? ",
            "catchKey": 71,
            "catchResponse": 71,
            "catchTime": 1678826801183,
            "trialTime": 0
        },
        {
            "exptPart": "trial",
            "trialNumber": 15,
            "roleCurrent": "sender",
            "marblesSampled": 100,
            "probRed": 0.5,
            "lambda": 5,
            "drawnRed": 44,
            "reportedRed": 49,
            "inferredRed": 44,
            "playerTrialScore": 0,
            "oppTrialScore": 0,
            "playerTotalScore": 19,
            "oppTotalScore": -95,
            "waitTime": 2774.6305522608436,
            "responseTime": 1678826823049,
            "catchQuestion": "How many <b class=\"r\">red<\/b> marbles did you actually draw (before any changes)? ",
            "catchKey": 44,
            "catchResponse": 55,
            "catchTime": 1678826823049,
            "trialTime": 0
        },
        {
            "exptPart": "trial",
            "trialNumber": 16,
            "roleCurrent": "receiver",
            "marblesSampled": 100,
            "probRed": 0.5,
            "lambda": 5,
            "drawnRed": 48,
            "reportedRed": 54,
            "inferredRed": 60,
            "playerTrialScore": -12,
            "oppTrialScore": 12,
            "playerTotalScore": 7,
            "oppTotalScore": -83,
            "waitTime": 7407.637566923312,
            "responseTime": 1678826860012,
            "catchQuestion": "How many <b class=\"r\">red<\/b> marbles did you actually draw (before any changes)? ",
            "catchKey": -1,
            "catchResponse": -1,
            "catchTime": 1678826823049,
            "trialTime": 0
        },
        {
            "exptPart": "trial",
            "trialNumber": 17,
            "roleCurrent": "sender",
            "marblesSampled": 100,
            "probRed": 0.5,
            "lambda": 5,
            "drawnRed": 3,
            "reportedRed": 10,
            "inferredRed": 6,
            "playerTrialScore": 3,
            "oppTrialScore": -3,
            "playerTotalScore": 10,
            "oppTotalScore": -86,
            "waitTime": 2413.207631756396,
            "responseTime": 1678826878889,
            "catchQuestion": "How many <b class=\"r\">red<\/b> marbles did you actually draw (before any changes)? ",
            "catchKey": -1,
            "catchResponse": -1,
            "catchTime": 1678826823049,
            "trialTime": 0
        },
        {
            "exptPart": "trial",
            "trialNumber": 18,
            "roleCurrent": "receiver",
            "marblesSampled": 100,
            "probRed": 0.5,
            "lambda": 5,
            "drawnRed": 13,
            "reportedRed": 18,
            "inferredRed": 25,
            "playerTrialScore": -12,
            "oppTrialScore": 12,
            "playerTotalScore": -2,
            "oppTotalScore": -74,
            "waitTime": 5295.113309730597,
            "responseTime": 1678826915269,
            "catchQuestion": "How many <b class=\"r\">red<\/b> marbles did you actually draw (before any changes)? ",
            "catchKey": -1,
            "catchResponse": -1,
            "catchTime": 1678826823049,
            "trialTime": 0
        },
        {
            "exptPart": "trial",
            "trialNumber": 19,
            "roleCurrent": "sender",
            "marblesSampled": 100,
            "probRed": 0.5,
            "lambda": 5,
            "drawnRed": 35,
            "reportedRed": 41,
            "inferredRed": 36,
            "playerTrialScore": 1,
            "oppTrialScore": -1,
            "playerTotalScore": -1,
            "oppTotalScore": -75,
            "waitTime": 2840.1652871331335,
            "responseTime": 1678826935286,
            "catchQuestion": "How many <b class=\"r\">red<\/b> marbles did you actually draw (before any changes)? ",
            "catchKey": 35,
            "catchResponse": 35,
            "catchTime": 1678826935287,
            "trialTime": 0
        },
        {
            "exptPart": "trial",
            "trialNumber": 20,
            "roleCurrent": "receiver",
            "marblesSampled": 100,
            "probRed": 0.5,
            "lambda": 5,
            "drawnRed": 81,
            "reportedRed": 84,
            "inferredRed": 95,
            "playerTrialScore": -14,
            "oppTrialScore": 14,
            "playerTotalScore": -15,
            "oppTotalScore": -61,
            "waitTime": 5245.2807432663885,
            "responseTime": 1678827031791,
            "catchQuestion": "How many <b class=\"r\">red<\/b> marbles did your opponent report drawing? ",
            "catchKey": 84,
            "catchResponse": 84,
            "catchTime": 1678827031793,
            "trialTime": 0
        },
        {
            "exptPart": "trial",
            "trialNumber": 21,
            "roleCurrent": "sender",
            "marblesSampled": 100,
            "probRed": 0.5,
            "lambda": 5,
            "drawnRed": 25,
            "reportedRed": 31,
            "inferredRed": 26,
            "playerTrialScore": 1,
            "oppTrialScore": -1,
            "playerTotalScore": -14,
            "oppTotalScore": -62,
            "waitTime": 2424.509751169842,
            "responseTime": 1678827069898,
            "catchQuestion": "How many <b class=\"r\">red<\/b> marbles did your opponent report drawing? ",
            "catchKey": -1,
            "catchResponse": -1,
            "catchTime": 1678827031793,
            "trialTime": 0
        },
        {
            "exptPart": "trial",
            "trialNumber": 22,
            "roleCurrent": "receiver",
            "marblesSampled": 100,
            "probRed": 0.5,
            "lambda": 5,
            "drawnRed": 45,
            "reportedRed": 54,
            "inferredRed": 49,
            "playerTrialScore": -4,
            "oppTrialScore": 4,
            "playerTotalScore": -18,
            "oppTotalScore": -58,
            "waitTime": 5648.929344472846,
            "responseTime": 1678827089132,
            "catchQuestion": "How many <b class=\"r\">red<\/b> marbles did your opponent report drawing? ",
            "catchKey": -1,
            "catchResponse": -1,
            "catchTime": 1678827031793,
            "trialTime": 0
        },
        {
            "exptPart": "trial",
            "trialNumber": 23,
            "roleCurrent": "sender",
            "marblesSampled": 100,
            "probRed": 0.5,
            "lambda": 5,
            "drawnRed": 57,
            "reportedRed": 63,
            "inferredRed": 62,
            "playerTrialScore": 5,
            "oppTrialScore": -5,
            "playerTotalScore": -13,
            "oppTotalScore": -63,
            "waitTime": 2428.464862795863,
            "responseTime": 1678827114217,
            "catchQuestion": "How many <b class=\"r\">red<\/b> marbles did your opponent report drawing? ",
            "catchKey": -1,
            "catchResponse": -1,
            "catchTime": 1678827031793,
            "trialTime": 0
        },
        {
            "exptPart": "trial",
            "trialNumber": 24,
            "roleCurrent": "receiver",
            "marblesSampled": 100,
            "probRed": 0.5,
            "lambda": 5,
            "drawnRed": 81,
            "reportedRed": 86,
            "inferredRed": 82,
            "playerTrialScore": -1,
            "oppTrialScore": 1,
            "playerTotalScore": -14,
            "oppTotalScore": -62,
            "waitTime": 5250.051403106352,
            "responseTime": 1678827141677,
            "catchQuestion": "How many <b class=\"r\">red<\/b> marbles did your opponent report drawing? ",
            "catchKey": -1,
            "catchResponse": -1,
            "catchTime": 1678827031793,
            "trialTime": 0
        },
        {
            "exptPart": "trial",
            "trialNumber": 25,
            "roleCurrent": "sender",
            "marblesSampled": 100,
            "probRed": 0.5,
            "lambda": 5,
            "drawnRed": 82,
            "reportedRed": 76,
            "inferredRed": 74,
            "playerTrialScore": 0,
            "oppTrialScore": -8,
            "playerTotalScore": -14,
            "oppTotalScore": -70,
            "waitTime": 2100.876868783729,
            "responseTime": 1678827197485,
            "catchQuestion": "How many <b class=\"r\">red<\/b> marbles did your opponent report drawing? ",
            "catchKey": -1,
            "catchResponse": -1,
            "catchTime": 1678827197487,
            "trialTime": 0
        },
        {
            "exptPart": "trial",
            "trialNumber": 26,
            "roleCurrent": "receiver",
            "marblesSampled": 100,
            "probRed": 0.5,
            "lambda": 5,
            "drawnRed": 25,
            "reportedRed": 29,
            "inferredRed": 35,
            "playerTrialScore": -10,
            "oppTrialScore": 10,
            "playerTotalScore": -24,
            "oppTotalScore": -60,
            "waitTime": 6989.34481451825,
            "responseTime": 1678827223801,
            "catchQuestion": "How many <b class=\"r\">red<\/b> marbles did your opponent report drawing? ",
            "catchKey": -1,
            "catchResponse": -1,
            "catchTime": 1678827197487,
            "trialTime": 0
        },
        {
            "exptPart": "trial",
            "trialNumber": 27,
            "roleCurrent": "sender",
            "marblesSampled": 100,
            "probRed": 0.5,
            "lambda": 5,
            "drawnRed": 10,
            "reportedRed": 23,
            "inferredRed": 16,
            "playerTrialScore": 6,
            "oppTrialScore": -6,
            "playerTotalScore": -18,
            "oppTotalScore": -66,
            "waitTime": 2629.3842255053555,
            "responseTime": 1678827255251,
            "catchQuestion": "How many <b class=\"r\">red<\/b> marbles did your opponent report drawing? ",
            "catchKey": -1,
            "catchResponse": -1,
            "catchTime": 1678827197487,
            "trialTime": 0
        },
        {
            "exptPart": "trial",
            "trialNumber": 28,
            "roleCurrent": "receiver",
            "marblesSampled": 100,
            "probRed": 0.5,
            "lambda": 5,
            "drawnRed": 63,
            "reportedRed": 69,
            "inferredRed": 75,
            "playerTrialScore": -12,
            "oppTrialScore": 12,
            "playerTotalScore": -30,
            "oppTotalScore": -54,
            "waitTime": 6500.654494782359,
            "responseTime": 1678827276063,
            "catchQuestion": "How many <b class=\"r\">red<\/b> marbles did your opponent report drawing? ",
            "catchKey": -1,
            "catchResponse": -1,
            "catchTime": 1678827197487,
            "trialTime": 0
        },
        {
            "exptPart": "trial",
            "trialNumber": 29,
            "roleCurrent": "sender",
            "marblesSampled": 100,
            "probRed": 0.5,
            "lambda": 5,
            "drawnRed": 32,
            "reportedRed": 45,
            "inferredRed": 41,
            "playerTrialScore": 9,
            "oppTrialScore": -9,
            "playerTotalScore": -21,
            "oppTotalScore": -63,
            "waitTime": 2490.8480004297226,
            "responseTime": 1678827299920,
            "catchQuestion": "How many <b class=\"r\">red<\/b> marbles did your opponent report drawing? ",
            "catchKey": -1,
            "catchResponse": -1,
            "catchTime": 1678827197487,
            "trialTime": 0
        },
        {
            "exptPart": "trial",
            "trialNumber": 30,
            "roleCurrent": "receiver",
            "marblesSampled": 100,
            "probRed": 0.5,
            "lambda": 5,
            "drawnRed": 14,
            "reportedRed": 22,
            "inferredRed": 28,
            "playerTrialScore": -14,
            "oppTrialScore": 14,
            "playerTotalScore": -35,
            "oppTotalScore": -49,
            "waitTime": 5406.0868330090125,
            "responseTime": 1678827341872,
            "catchQuestion": "How many <b class=\"r\">red<\/b> marbles did your opponent report drawing? ",
            "catchKey": -1,
            "catchResponse": -1,
            "catchTime": 1678827341872,
            "trialTime": 0
        },
        {
            "exptPart": "trial",
            "trialNumber": 31,
            "roleCurrent": "sender",
            "marblesSampled": 100,
            "probRed": 0.5,
            "lambda": 5,
            "drawnRed": 29,
            "reportedRed": 33,
            "inferredRed": 28,
            "playerTrialScore": 0,
            "oppTrialScore": -1,
            "playerTotalScore": -35,
            "oppTotalScore": -50,
            "waitTime": 2201.585347493472,
            "responseTime": 1678827357086,
            "catchQuestion": "How many <b class=\"r\">red<\/b> marbles did your opponent report drawing? ",
            "catchKey": -1,
            "catchResponse": -1,
            "catchTime": 1678827341872,
            "trialTime": 0
        },
        {
            "exptPart": "trial",
            "trialNumber": 32,
            "roleCurrent": "receiver",
            "marblesSampled": 100,
            "probRed": 0.5,
            "lambda": 5,
            "drawnRed": 57,
            "reportedRed": 63,
            "inferredRed": 70,
            "playerTrialScore": -13,
            "oppTrialScore": 13,
            "playerTotalScore": -48,
            "oppTotalScore": -37,
            "waitTime": 5705.93502589794,
            "responseTime": 1678827393753,
            "catchQuestion": "How many <b class=\"r\">red<\/b> marbles did your opponent report drawing? ",
            "catchKey": -1,
            "catchResponse": -1,
            "catchTime": 1678827341872,
            "trialTime": 0
        },
        {
            "exptPart": "trial",
            "trialNumber": 33,
            "roleCurrent": "sender",
            "marblesSampled": 100,
            "probRed": 0.5,
            "lambda": 5,
            "drawnRed": 3,
            "reportedRed": 10,
            "inferredRed": 7,
            "playerTrialScore": 4,
            "oppTrialScore": -4,
            "playerTotalScore": -44,
            "oppTotalScore": -41,
            "waitTime": 2810.77772557353,
            "responseTime": 1678827410633,
            "catchQuestion": "How many <b class=\"r\">red<\/b> marbles did your opponent report drawing? ",
            "catchKey": -1,
            "catchResponse": -1,
            "catchTime": 1678827341872,
            "trialTime": 0
        },
        {
            "exptPart": "trial",
            "trialNumber": 34,
            "roleCurrent": "receiver",
            "marblesSampled": 100,
            "probRed": 0.5,
            "lambda": 5,
            "drawnRed": 39,
            "reportedRed": 45,
            "inferredRed": 53,
            "playerTrialScore": -14,
            "oppTrialScore": 14,
            "playerTotalScore": -58,
            "oppTotalScore": -27,
            "waitTime": 6608.425058889047,
            "responseTime": 1678827437895,
            "catchQuestion": "How many <b class=\"r\">red<\/b> marbles did your opponent report drawing? ",
            "catchKey": -1,
            "catchResponse": -1,
            "catchTime": 1678827341872,
            "trialTime": 0
        },
        {
            "exptPart": "trial",
            "trialNumber": 35,
            "roleCurrent": "sender",
            "marblesSampled": 100,
            "probRed": 0.5,
            "lambda": 5,
            "drawnRed": 54,
            "reportedRed": 61,
            "inferredRed": 55,
            "playerTrialScore": 1,
            "oppTrialScore": -1,
            "playerTotalScore": -57,
            "oppTotalScore": -28,
            "waitTime": 2602.9026055544396,
            "responseTime": 1678827480147,
            "catchQuestion": "How many <b class=\"r\">red<\/b> marbles did you actually draw (before any changes)? ",
            "catchKey": 54,
            "catchResponse": 60,
            "catchTime": 1678827480147,
            "trialTime": 0
        },
        {
            "exptPart": "trial",
            "trialNumber": 36,
            "roleCurrent": "receiver",
            "marblesSampled": 100,
            "probRed": 0.5,
            "lambda": 5,
            "drawnRed": 47,
            "reportedRed": 51,
            "inferredRed": 63,
            "playerTrialScore": -16,
            "oppTrialScore": 16,
            "playerTotalScore": -73,
            "oppTotalScore": -12,
            "waitTime": 7474.529633697106,
            "responseTime": 1678827731954,
            "catchQuestion": "How many <b class=\"r\">red<\/b> marbles did you actually draw (before any changes)? ",
            "catchKey": -1,
            "catchResponse": -1,
            "catchTime": 1678827480147,
            "trialTime": 0
        },
        {
            "exptPart": "trial",
            "trialNumber": 37,
            "roleCurrent": "sender",
            "marblesSampled": 100,
            "probRed": 0.5,
            "lambda": 5,
            "drawnRed": 75,
            "reportedRed": 66,
            "inferredRed": 58,
            "playerTrialScore": 0,
            "oppTrialScore": -17,
            "playerTotalScore": -73,
            "oppTotalScore": -29,
            "waitTime": 2814.06565035352,
            "responseTime": 1678827835067,
            "catchQuestion": "How many <b class=\"r\">red<\/b> marbles did you actually draw (before any changes)? ",
            "catchKey": -1,
            "catchResponse": -1,
            "catchTime": 1678827480147,
            "trialTime": 0
        },
        {
            "exptPart": "trial",
            "trialNumber": 38,
            "roleCurrent": "receiver",
            "marblesSampled": 100,
            "probRed": 0.5,
            "lambda": 5,
            "drawnRed": 70,
            "reportedRed": 74,
            "inferredRed": 84,
            "playerTrialScore": -14,
            "oppTrialScore": 14,
            "playerTotalScore": -87,
            "oppTotalScore": -15,
            "waitTime": 7277.744060080784,
            "responseTime": 1678827849551,
            "catchQuestion": "How many <b class=\"r\">red<\/b> marbles did you actually draw (before any changes)? ",
            "catchKey": -1,
            "catchResponse": -1,
            "catchTime": 1678827480147,
            "trialTime": 0
        },
        {
            "exptPart": "trial",
            "trialNumber": 39,
            "roleCurrent": "sender",
            "marblesSampled": 100,
            "probRed": 0.5,
            "lambda": 5,
            "drawnRed": 87,
            "reportedRed": 76,
            "inferredRed": 72,
            "playerTrialScore": 0,
            "oppTrialScore": -15,
            "playerTotalScore": -87,
            "oppTotalScore": -30,
            "waitTime": 2466.5265533747443,
            "responseTime": 1678827887041,
            "catchQuestion": "How many <b class=\"r\">red<\/b> marbles did you actually draw (before any changes)? ",
            "catchKey": -1,
            "catchResponse": -1,
            "catchTime": 1678827480147,
            "trialTime": 0
        },
        {
            "exptPart": "trial",
            "trialNumber": 40,
            "roleCurrent": "receiver",
            "marblesSampled": 100,
            "probRed": 0.5,
            "lambda": 5,
            "drawnRed": 48,
            "reportedRed": 51,
            "inferredRed": 62,
            "playerTrialScore": -14,
            "oppTrialScore": 14,
            "playerTotalScore": -101,
            "oppTotalScore": -16,
            "waitTime": 5505.2448438730935,
            "responseTime": 1678827907886,
            "catchQuestion": "How many <b class=\"r\">red<\/b> marbles did you actually draw (before any changes)? ",
            "catchKey": -1,
            "catchResponse": -1,
            "catchTime": 1678827907886,
            "trialTime": 0
        },
        {
            "exptPart": "trial",
            "trialNumber": 41,
            "roleCurrent": "sender",
            "marblesSampled": 100,
            "probRed": 0.5,
            "lambda": 5,
            "drawnRed": 61,
            "reportedRed": 57,
            "inferredRed": 51,
            "playerTrialScore": 0,
            "oppTrialScore": -10,
            "playerTotalScore": -101,
            "oppTotalScore": -26,
            "waitTime": 2585.2913196392547,
            "responseTime": 1678827925738,
            "catchQuestion": "How many <b class=\"r\">red<\/b> marbles did you actually draw (before any changes)? ",
            "catchKey": -1,
            "catchResponse": -1,
            "catchTime": 1678827907886,
            "trialTime": 0
        },
        {
            "exptPart": "trial",
            "trialNumber": 42,
            "roleCurrent": "receiver",
            "marblesSampled": 100,
            "probRed": 0.5,
            "lambda": 5,
            "drawnRed": 62,
            "reportedRed": 67,
            "inferredRed": 76,
            "playerTrialScore": -14,
            "oppTrialScore": 14,
            "playerTotalScore": -115,
            "oppTotalScore": -12,
            "waitTime": 7442.37017475436,
            "responseTime": 1678827994866,
            "catchQuestion": "How many <b class=\"r\">red<\/b> marbles did your opponent report drawing? ",
            "catchKey": 67,
            "catchResponse": 67,
            "catchTime": 1678827994866,
            "trialTime": 0
        },
        {
            "exptPart": "trial",
            "trialNumber": 43,
            "roleCurrent": "sender",
            "marblesSampled": 100,
            "probRed": 0.5,
            "lambda": 5,
            "drawnRed": 69,
            "reportedRed": 62,
            "inferredRed": 58,
            "playerTrialScore": 0,
            "oppTrialScore": -11,
            "playerTotalScore": -115,
            "oppTotalScore": -23,
            "waitTime": 2430.0928680949573,
            "responseTime": 1678828014070,
            "catchQuestion": "How many <b class=\"r\">red<\/b> marbles did your opponent report drawing? ",
            "catchKey": -1,
            "catchResponse": -1,
            "catchTime": 1678827994866,
            "trialTime": 0
        },
        {
            "exptPart": "trial",
            "trialNumber": 44,
            "roleCurrent": "receiver",
            "marblesSampled": 100,
            "probRed": 0.5,
            "lambda": 5,
            "drawnRed": 17,
            "reportedRed": 22,
            "inferredRed": 28,
            "playerTrialScore": -11,
            "oppTrialScore": 11,
            "playerTotalScore": -126,
            "oppTotalScore": -12,
            "waitTime": 6563.455766932955,
            "responseTime": 1678828030384,
            "catchQuestion": "How many <b class=\"r\">red<\/b> marbles did your opponent report drawing? ",
            "catchKey": -1,
            "catchResponse": -1,
            "catchTime": 1678827994866,
            "trialTime": 0
        },
        {
            "exptPart": "trial",
            "trialNumber": 45,
            "roleCurrent": "sender",
            "marblesSampled": 100,
            "probRed": 0.5,
            "lambda": 5,
            "drawnRed": 25,
            "reportedRed": 30,
            "inferredRed": 22,
            "playerTrialScore": 0,
            "oppTrialScore": -3,
            "playerTotalScore": -126,
            "oppTotalScore": -15,
            "waitTime": 2628.4722056120254,
            "responseTime": 1678828091850,
            "catchQuestion": "How many <b class=\"r\">red<\/b> marbles did your opponent report drawing? ",
            "catchKey": -1,
            "catchResponse": -1,
            "catchTime": 1678828091850,
            "trialTime": 0
        },
        {
            "exptPart": "trial",
            "trialNumber": 46,
            "roleCurrent": "receiver",
            "marblesSampled": 100,
            "probRed": 0.5,
            "lambda": 5,
            "drawnRed": 14,
            "reportedRed": 17,
            "inferredRed": 25,
            "playerTrialScore": -11,
            "oppTrialScore": 11,
            "playerTotalScore": -137,
            "oppTotalScore": -4,
            "waitTime": 5216.003855299127,
            "responseTime": 1678828104414,
            "catchQuestion": "How many <b class=\"r\">red<\/b> marbles did your opponent report drawing? ",
            "catchKey": -1,
            "catchResponse": -1,
            "catchTime": 1678828091850,
            "trialTime": 0
        },
        {
            "exptPart": "trial",
            "trialNumber": 47,
            "roleCurrent": "sender",
            "marblesSampled": 100,
            "probRed": 0.5,
            "lambda": 5,
            "drawnRed": 33,
            "reportedRed": 43,
            "inferredRed": 37,
            "playerTrialScore": 4,
            "oppTrialScore": -4,
            "playerTotalScore": -133,
            "oppTotalScore": -8,
            "waitTime": 2644.656537002198,
            "responseTime": 1678828127929,
            "catchQuestion": "How many <b class=\"r\">red<\/b> marbles did your opponent report drawing? ",
            "catchKey": -1,
            "catchResponse": -1,
            "catchTime": 1678828091850,
            "trialTime": 0
        },
        {
            "exptPart": "trial",
            "trialNumber": 48,
            "roleCurrent": "receiver",
            "marblesSampled": 100,
            "probRed": 0.5,
            "lambda": 5,
            "drawnRed": 47,
            "reportedRed": 49,
            "inferredRed": 57,
            "playerTrialScore": -10,
            "oppTrialScore": 10,
            "playerTotalScore": -143,
            "oppTotalScore": 2,
            "waitTime": 6685.20114682623,
            "responseTime": 1678828139809,
            "catchQuestion": "How many <b class=\"r\">red<\/b> marbles did your opponent report drawing? ",
            "catchKey": -1,
            "catchResponse": -1,
            "catchTime": 1678828091850,
            "trialTime": 0
        },
        {
            "exptPart": "trial",
            "trialNumber": 49,
            "roleCurrent": "sender",
            "marblesSampled": 100,
            "probRed": 0.5,
            "lambda": 5,
            "drawnRed": 38,
            "reportedRed": 43,
            "inferredRed": 33,
            "playerTrialScore": 0,
            "oppTrialScore": -5,
            "playerTotalScore": -143,
            "oppTotalScore": -3,
            "waitTime": 2364.4613194591434,
            "responseTime": 1678828155740,
            "catchQuestion": "How many <b class=\"r\">red<\/b> marbles did your opponent report drawing? ",
            "catchKey": -1,
            "catchResponse": -1,
            "catchTime": 1678828091850,
            "trialTime": 0
        },
        {
            "exptPart": "trial",
            "trialNumber": 50,
            "roleCurrent": "receiver",
            "marblesSampled": 100,
            "probRed": 0.5,
            "lambda": 5,
            "drawnRed": 78,
            "reportedRed": 83,
            "inferredRed": 72,
            "playerTrialScore": -6,
            "oppTrialScore": 0,
            "playerTotalScore": -149,
            "oppTotalScore": -3,
            "waitTime": 6884.3216602986395,
            "responseTime": 1678828190629,
            "catchQuestion": "How many <b class=\"r\">red<\/b> marbles did your opponent report drawing? ",
            "catchKey": -1,
            "catchResponse": -1,
            "catchTime": 1678828190630,
            "trialTime": 0
        },
        {
            "exptPart": "trial",
            "trialNumber": 51,
            "roleCurrent": "sender",
            "marblesSampled": 100,
            "probRed": 0.5,
            "lambda": 5,
            "drawnRed": 27,
            "reportedRed": 40,
            "inferredRed": 38,
            "playerTrialScore": 11,
            "oppTrialScore": -11,
            "playerTotalScore": -138,
            "oppTotalScore": -14,
            "waitTime": 3073.9630038278883,
            "responseTime": 1678828247927,
            "catchQuestion": "How many <b class=\"r\">red<\/b> marbles did your opponent report drawing? ",
            "catchKey": -1,
            "catchResponse": -1,
            "catchTime": 1678828190630,
            "trialTime": 0
        },
        {
            "exptPart": "trial",
            "trialNumber": 52,
            "roleCurrent": "receiver",
            "marblesSampled": 100,
            "probRed": 0.5,
            "lambda": 5,
            "drawnRed": 82,
            "reportedRed": 87,
            "inferredRed": 72,
            "playerTrialScore": -10,
            "oppTrialScore": 0,
            "playerTotalScore": -148,
            "oppTotalScore": -14,
            "waitTime": 5788.594801608047,
            "responseTime": 1678828258200,
            "catchQuestion": "How many <b class=\"r\">red<\/b> marbles did your opponent report drawing? ",
            "catchKey": -1,
            "catchResponse": -1,
            "catchTime": 1678828190630,
            "trialTime": 0
        },
        {
            "exptPart": "trial",
            "trialNumber": 53,
            "roleCurrent": "sender",
            "marblesSampled": 100,
            "probRed": 0.5,
            "lambda": 5,
            "drawnRed": 54,
            "reportedRed": 60,
            "inferredRed": 54,
            "playerTrialScore": 0,
            "oppTrialScore": 0,
            "playerTotalScore": -148,
            "oppTotalScore": -14,
            "waitTime": 2065.5754136467303,
            "responseTime": 1678828271593,
            "catchQuestion": "How many <b class=\"r\">red<\/b> marbles did your opponent report drawing? ",
            "catchKey": -1,
            "catchResponse": -1,
            "catchTime": 1678828190630,
            "trialTime": 0
        },
        {
            "exptPart": "trial",
            "trialNumber": 54,
            "roleCurrent": "receiver",
            "marblesSampled": 100,
            "probRed": 0.5,
            "lambda": 5,
            "drawnRed": 72,
            "reportedRed": 80,
            "inferredRed": 91,
            "playerTrialScore": -19,
            "oppTrialScore": 19,
            "playerTotalScore": -167,
            "oppTotalScore": 5,
            "waitTime": 7074.414244997555,
            "responseTime": 1678828288888,
            "catchQuestion": "How many <b class=\"r\">red<\/b> marbles did your opponent report drawing? ",
            "catchKey": -1,
            "catchResponse": -1,
            "catchTime": 1678828190630,
            "trialTime": 0
        },
        {
            "exptPart": "trial",
            "trialNumber": 55,
            "roleCurrent": "sender",
            "marblesSampled": 100,
            "probRed": 0.5,
            "lambda": 5,
            "drawnRed": 33,
            "reportedRed": 41,
            "inferredRed": 36,
            "playerTrialScore": 3,
            "oppTrialScore": -3,
            "playerTotalScore": -164,
            "oppTotalScore": 2,
            "waitTime": 2538.477984927315,
            "responseTime": 1678828304703,
            "catchQuestion": "How many <b class=\"r\">red<\/b> marbles did your opponent report drawing? ",
            "catchKey": -1,
            "catchResponse": -1,
            "catchTime": 1678828304703,
            "trialTime": 0
        },
        {
            "exptPart": "trial",
            "trialNumber": 56,
            "roleCurrent": "receiver",
            "marblesSampled": 100,
            "probRed": 0.5,
            "lambda": 5,
            "drawnRed": 7,
            "reportedRed": 12,
            "inferredRed": 18,
            "playerTrialScore": -11,
            "oppTrialScore": 11,
            "playerTotalScore": -175,
            "oppTotalScore": 13,
            "waitTime": 6095.753755286147,
            "responseTime": 1678828319984,
            "catchQuestion": "How many <b class=\"r\">red<\/b> marbles did your opponent report drawing? ",
            "catchKey": 12,
            "catchResponse": 12,
            "catchTime": 1678828319984,
            "trialTime": 0
        },
        {
            "exptPart": "trial",
            "trialNumber": 57,
            "roleCurrent": "sender",
            "marblesSampled": 100,
            "probRed": 0.5,
            "lambda": 5,
            "drawnRed": 19,
            "reportedRed": 25,
            "inferredRed": 16,
            "playerTrialScore": 0,
            "oppTrialScore": -3,
            "playerTotalScore": -175,
            "oppTotalScore": 10,
            "waitTime": 2675.4140090753463,
            "responseTime": 1678828341655,
            "catchQuestion": "How many <b class=\"r\">red<\/b> marbles did your opponent report drawing? ",
            "catchKey": -1,
            "catchResponse": -1,
            "catchTime": 1678828319984,
            "trialTime": 0
        },
        {
            "exptPart": "trial",
            "trialNumber": 58,
            "roleCurrent": "receiver",
            "marblesSampled": 100,
            "probRed": 0.5,
            "lambda": 5,
            "drawnRed": 51,
            "reportedRed": 56,
            "inferredRed": 64,
            "playerTrialScore": -13,
            "oppTrialScore": 13,
            "playerTotalScore": -188,
            "oppTotalScore": 23,
            "waitTime": 6206.191061004973,
            "responseTime": 1678828354226,
            "catchQuestion": "How many <b class=\"r\">red<\/b> marbles did your opponent report drawing? ",
            "catchKey": -1,
            "catchResponse": -1,
            "catchTime": 1678828319984,
            "trialTime": 0
        },
        {
            "exptPart": "trial",
            "trialNumber": 59,
            "roleCurrent": "sender",
            "marblesSampled": 100,
            "probRed": 0.5,
            "lambda": 5,
            "drawnRed": 13,
            "reportedRed": 23,
            "inferredRed": 15,
            "playerTrialScore": 2,
            "oppTrialScore": -2,
            "playerTotalScore": -186,
            "oppTotalScore": 21,
            "waitTime": 2900.688175093225,
            "responseTime": 1678828375466,
            "catchQuestion": "How many <b class=\"r\">red<\/b> marbles did your opponent report drawing? ",
            "catchKey": -1,
            "catchResponse": -1,
            "catchTime": 1678828319984,
            "trialTime": 0
        },
        {
            "exptPart": "trial",
            "trialNumber": 60,
            "roleCurrent": "receiver",
            "marblesSampled": 100,
            "probRed": 0.5,
            "lambda": 5,
            "drawnRed": 39,
            "reportedRed": 43,
            "inferredRed": 48,
            "playerTrialScore": -9,
            "oppTrialScore": 9,
            "playerTotalScore": -195,
            "oppTotalScore": 30,
            "waitTime": 5930.457434636202,
            "responseTime": 1678828387687,
            "catchQuestion": "How many <b class=\"r\">red<\/b> marbles did your opponent report drawing? ",
            "catchKey": -1,
            "catchResponse": -1,
            "catchTime": 1678828387687,
            "trialTime": 0
        },
        {
            "exptPart": "trial",
            "trialNumber": 61,
            "roleCurrent": "sender",
            "marblesSampled": 100,
            "probRed": 0.5,
            "lambda": 5,
            "drawnRed": 75,
            "reportedRed": 71,
            "inferredRed": 66,
            "playerTrialScore": 0,
            "oppTrialScore": -9,
            "playerTotalScore": -195,
            "oppTotalScore": 21,
            "waitTime": 2981.62305583699,
            "responseTime": 1678828427130,
            "catchQuestion": "How many <b class=\"r\">red<\/b> marbles did you actually draw (before any changes)? ",
            "catchKey": 75,
            "catchResponse": 75,
            "catchTime": 1678828427130,
            "trialTime": 0
        },
        {
            "exptPart": "trial",
            "trialNumber": 62,
            "roleCurrent": "receiver",
            "marblesSampled": 100,
            "probRed": 0.5,
            "lambda": 5,
            "drawnRed": 69,
            "reportedRed": 77,
            "inferredRed": 83,
            "playerTrialScore": -14,
            "oppTrialScore": 14,
            "playerTotalScore": -209,
            "oppTotalScore": 35,
            "waitTime": 5737.382327565952,
            "responseTime": 1678828444898,
            "catchQuestion": "How many <b class=\"r\">red<\/b> marbles did you actually draw (before any changes)? ",
            "catchKey": -1,
            "catchResponse": -1,
            "catchTime": 1678828427130,
            "trialTime": 0
        },
        {
            "exptPart": "trial",
            "trialNumber": 63,
            "roleCurrent": "sender",
            "marblesSampled": 100,
            "probRed": 0.5,
            "lambda": 5,
            "drawnRed": 33,
            "reportedRed": 45,
            "inferredRed": 42,
            "playerTrialScore": 9,
            "oppTrialScore": -9,
            "playerTotalScore": -200,
            "oppTotalScore": 26,
            "waitTime": 2115.141216132776,
            "responseTime": 1678828477046,
            "catchQuestion": "How many <b class=\"r\">red<\/b> marbles did you actually draw (before any changes)? ",
            "catchKey": -1,
            "catchResponse": -1,
            "catchTime": 1678828427130,
            "trialTime": 0
        },
        {
            "exptPart": "trial",
            "trialNumber": 64,
            "roleCurrent": "receiver",
            "marblesSampled": 100,
            "probRed": 0.5,
            "lambda": 5,
            "drawnRed": 29,
            "reportedRed": 38,
            "inferredRed": 45,
            "playerTrialScore": -16,
            "oppTrialScore": 16,
            "playerTotalScore": -216,
            "oppTotalScore": 42,
            "waitTime": 5832.951907422219,
            "responseTime": 1678828492925,
            "catchQuestion": "How many <b class=\"r\">red<\/b> marbles did you actually draw (before any changes)? ",
            "catchKey": -1,
            "catchResponse": -1,
            "catchTime": 1678828427130,
            "trialTime": 0
        },
        {
            "exptPart": "trial",
            "trialNumber": 65,
            "roleCurrent": "sender",
            "marblesSampled": 100,
            "probRed": 0.5,
            "lambda": 5,
            "drawnRed": 48,
            "reportedRed": 56,
            "inferredRed": 48,
            "playerTrialScore": 0,
            "oppTrialScore": 0,
            "playerTotalScore": -216,
            "oppTotalScore": 42,
            "waitTime": 2853.904580086952,
            "responseTime": 1678828517467,
            "catchQuestion": "How many <b class=\"r\">red<\/b> marbles did you actually draw (before any changes)? ",
            "catchKey": -1,
            "catchResponse": -1,
            "catchTime": 1678828517468,
            "trialTime": 0
        },
        {
            "exptPart": "trial",
            "trialNumber": 66,
            "roleCurrent": "receiver",
            "marblesSampled": 100,
            "probRed": 0.5,
            "lambda": 5,
            "drawnRed": 54,
            "reportedRed": 58,
            "inferredRed": 64,
            "playerTrialScore": -10,
            "oppTrialScore": 10,
            "playerTotalScore": -226,
            "oppTotalScore": 52,
            "waitTime": 7372.577204937175,
            "responseTime": 1678828531583,
            "catchQuestion": "How many <b class=\"r\">red<\/b> marbles did you actually draw (before any changes)? ",
            "catchKey": -1,
            "catchResponse": -1,
            "catchTime": 1678828517468,
            "trialTime": 0
        },
        {
            "exptPart": "trial",
            "trialNumber": 67,
            "roleCurrent": "sender",
            "marblesSampled": 100,
            "probRed": 0.5,
            "lambda": 5,
            "drawnRed": 24,
            "reportedRed": 36,
            "inferredRed": 32,
            "playerTrialScore": 8,
            "oppTrialScore": -8,
            "playerTotalScore": -218,
            "oppTotalScore": 44,
            "waitTime": 2387.702272843081,
            "responseTime": 1678828555176,
            "catchQuestion": "How many <b class=\"r\">red<\/b> marbles did you actually draw (before any changes)? ",
            "catchKey": -1,
            "catchResponse": -1,
            "catchTime": 1678828517468,
            "trialTime": 0
        },
        {
            "exptPart": "trial",
            "trialNumber": 68,
            "roleCurrent": "receiver",
            "marblesSampled": 100,
            "probRed": 0.5,
            "lambda": 5,
            "drawnRed": 39,
            "reportedRed": 46,
            "inferredRed": 63,
            "playerTrialScore": -24,
            "oppTrialScore": 24,
            "playerTotalScore": -242,
            "oppTotalScore": 68,
            "waitTime": 7477.286806932301,
            "responseTime": 1678828567594,
            "catchQuestion": "How many <b class=\"r\">red<\/b> marbles did you actually draw (before any changes)? ",
            "catchKey": -1,
            "catchResponse": -1,
            "catchTime": 1678828517468,
            "trialTime": 0
        },
        {
            "exptPart": "trial",
            "trialNumber": 69,
            "roleCurrent": "sender",
            "marblesSampled": 100,
            "probRed": 0.5,
            "lambda": 5,
            "drawnRed": 89,
            "reportedRed": 71,
            "inferredRed": 66,
            "playerTrialScore": 0,
            "oppTrialScore": -23,
            "playerTotalScore": -242,
            "oppTotalScore": 45,
            "waitTime": 2454.927171253533,
            "responseTime": 1678828595978,
            "catchQuestion": "How many <b class=\"r\">red<\/b> marbles did you actually draw (before any changes)? ",
            "catchKey": -1,
            "catchResponse": -1,
            "catchTime": 1678828517468,
            "trialTime": 0
        },
        {
            "exptPart": "trial",
            "trialNumber": 70,
            "roleCurrent": "receiver",
            "marblesSampled": 100,
            "probRed": 0.5,
            "lambda": 5,
            "drawnRed": 50,
            "reportedRed": 52,
            "inferredRed": 63,
            "playerTrialScore": -13,
            "oppTrialScore": 13,
            "playerTotalScore": -255,
            "oppTotalScore": 58,
            "waitTime": 6187.645896072185,
            "responseTime": 1678828606221,
            "catchQuestion": "How many <b class=\"r\">red<\/b> marbles did you actually draw (before any changes)? ",
            "catchKey": -1,
            "catchResponse": -1,
            "catchTime": 1678828606221,
            "trialTime": 0
        },
        {
            "exptPart": "trial",
            "trialNumber": 71,
            "roleCurrent": "sender",
            "marblesSampled": 100,
            "probRed": 0.5,
            "lambda": 5,
            "drawnRed": 28,
            "reportedRed": 36,
            "inferredRed": 35,
            "playerTrialScore": 7,
            "oppTrialScore": -7,
            "playerTotalScore": -248,
            "oppTotalScore": 51,
            "waitTime": 3002.5030837614504,
            "responseTime": 1678828632724,
            "catchQuestion": "How many <b class=\"r\">red<\/b> marbles did you actually draw (before any changes)? ",
            "catchKey": -1,
            "catchResponse": -1,
            "catchTime": 1678828606221,
            "trialTime": 0
        },
        {
            "exptPart": "trial",
            "trialNumber": 72,
            "roleCurrent": "receiver",
            "marblesSampled": 100,
            "probRed": 0.5,
            "lambda": 5,
            "drawnRed": 25,
            "reportedRed": 31,
            "inferredRed": 38,
            "playerTrialScore": -13,
            "oppTrialScore": 13,
            "playerTotalScore": -261,
            "oppTotalScore": 64,
            "waitTime": 6760.393527470571,
            "responseTime": 1678828646174,
            "catchQuestion": "How many <b class=\"r\">red<\/b> marbles did you actually draw (before any changes)? ",
            "catchKey": -1,
            "catchResponse": -1,
            "catchTime": 1678828606221,
            "trialTime": 0
        },
        {
            "exptPart": "trial",
            "trialNumber": 73,
            "roleCurrent": "sender",
            "marblesSampled": 100,
            "probRed": 0.5,
            "lambda": 5,
            "drawnRed": 51,
            "reportedRed": 59,
            "inferredRed": 58,
            "playerTrialScore": 7,
            "oppTrialScore": -7,
            "playerTotalScore": -254,
            "oppTotalScore": 57,
            "waitTime": 3086.0060854503986,
            "responseTime": 1678828668072,
            "catchQuestion": "How many <b class=\"r\">red<\/b> marbles did you actually draw (before any changes)? ",
            "catchKey": -1,
            "catchResponse": -1,
            "catchTime": 1678828606221,
            "trialTime": 0
        },
        {
            "exptPart": "trial",
            "trialNumber": 74,
            "roleCurrent": "receiver",
            "marblesSampled": 100,
            "probRed": 0.5,
            "lambda": 5,
            "drawnRed": 64,
            "reportedRed": 67,
            "inferredRed": 72,
            "playerTrialScore": -8,
            "oppTrialScore": 8,
            "playerTotalScore": -262,
            "oppTotalScore": 65,
            "waitTime": 6644.013832057937,
            "responseTime": 1678828681339,
            "catchQuestion": "How many <b class=\"r\">red<\/b> marbles did you actually draw (before any changes)? ",
            "catchKey": -1,
            "catchResponse": -1,
            "catchTime": 1678828606221,
            "trialTime": 0
        },
        {
            "exptPart": "trial",
            "trialNumber": 75,
            "roleCurrent": "sender",
            "marblesSampled": 100,
            "probRed": 0.5,
            "lambda": 5,
            "drawnRed": 15,
            "reportedRed": 27,
            "inferredRed": 21,
            "playerTrialScore": 6,
            "oppTrialScore": -6,
            "playerTotalScore": -256,
            "oppTotalScore": 59,
            "waitTime": 2748.049978432383,
            "responseTime": 1678828705548,
            "catchQuestion": "How many <b class=\"r\">red<\/b> marbles did you actually draw (before any changes)? ",
            "catchKey": -1,
            "catchResponse": -1,
            "catchTime": 1678828705548,
            "trialTime": 0
        },
        {
            "exptPart": "trial",
            "trialNumber": 76,
            "roleCurrent": "receiver",
            "marblesSampled": 100,
            "probRed": 0.5,
            "lambda": 5,
            "drawnRed": 22,
            "reportedRed": 27,
            "inferredRed": 32,
            "playerTrialScore": -10,
            "oppTrialScore": 10,
            "playerTotalScore": -266,
            "oppTotalScore": 69,
            "waitTime": 6552.948596683134,
            "responseTime": 1678828720260,
            "catchQuestion": "How many <b class=\"r\">red<\/b> marbles did you actually draw (before any changes)? ",
            "catchKey": -1,
            "catchResponse": -1,
            "catchTime": 1678828705548,
            "trialTime": 0
        },
        {
            "exptPart": "trial",
            "trialNumber": 77,
            "roleCurrent": "sender",
            "marblesSampled": 100,
            "probRed": 0.5,
            "lambda": 5,
            "drawnRed": 34,
            "reportedRed": 46,
            "inferredRed": 43,
            "playerTrialScore": 9,
            "oppTrialScore": -9,
            "playerTotalScore": -257,
            "oppTotalScore": 60,
            "waitTime": 2130.153198849861,
            "responseTime": 1678828744725,
            "catchQuestion": "How many <b class=\"r\">red<\/b> marbles did you actually draw (before any changes)? ",
            "catchKey": -1,
            "catchResponse": -1,
            "catchTime": 1678828705548,
            "trialTime": 0
        },
        {
            "exptPart": "trial",
            "trialNumber": 78,
            "roleCurrent": "receiver",
            "marblesSampled": 100,
            "probRed": 0.5,
            "lambda": 5,
            "drawnRed": 63,
            "reportedRed": 65,
            "inferredRed": 72,
            "playerTrialScore": -9,
            "oppTrialScore": 9,
            "playerTotalScore": -266,
            "oppTotalScore": 69,
            "waitTime": 6758.656141067684,
            "responseTime": 1678828759360,
            "catchQuestion": "How many <b class=\"r\">red<\/b> marbles did you actually draw (before any changes)? ",
            "catchKey": -1,
            "catchResponse": -1,
            "catchTime": 1678828705548,
            "trialTime": 0
        },
        {
            "exptPart": "trial",
            "trialNumber": 79,
            "roleCurrent": "sender",
            "marblesSampled": 100,
            "probRed": 0.5,
            "lambda": 5,
            "drawnRed": 71,
            "reportedRed": 61,
            "inferredRed": 59,
            "playerTrialScore": 0,
            "oppTrialScore": -12,
            "playerTotalScore": -266,
            "oppTotalScore": 57,
            "waitTime": 2252.427399047233,
            "responseTime": 1678828778644,
            "catchQuestion": "How many <b class=\"r\">red<\/b> marbles did you actually draw (before any changes)? ",
            "catchKey": -1,
            "catchResponse": -1,
            "catchTime": 1678828705548,
            "trialTime": 0
        },
        {
            "exptPart": "trial",
            "trialNumber": 80,
            "roleCurrent": "receiver",
            "marblesSampled": 100,
            "probRed": 0.5,
            "lambda": 5,
            "drawnRed": 93,
            "reportedRed": 96,
            "inferredRed": 97,
            "playerTrialScore": -4,
            "oppTrialScore": 4,
            "playerTotalScore": -270,
            "oppTotalScore": 61,
            "waitTime": 7200.879325175959,
            "responseTime": 1678828840984,
            "catchQuestion": "How many <b class=\"r\">red<\/b> marbles did you actually draw (before any changes)? ",
            "catchKey": -1,
            "catchResponse": -1,
            "catchTime": 1678828840984,
            "trialTime": 0
        },
        {
            "exptPart": "trial",
            "trialNumber": 81,
            "roleCurrent": "sender",
            "marblesSampled": 100,
            "probRed": 0.5,
            "lambda": 5,
            "drawnRed": 58,
            "reportedRed": 60,
            "inferredRed": 59,
            "playerTrialScore": 1,
            "oppTrialScore": -1,
            "playerTotalScore": -269,
            "oppTotalScore": 60,
            "waitTime": 2287.2254693205805,
            "responseTime": 1678828887509,
            "catchQuestion": "How many <b class=\"r\">red<\/b> marbles did you actually draw (before any changes)? ",
            "catchKey": -1,
            "catchResponse": -1,
            "catchTime": 1678828840984,
            "trialTime": 0
        },
        {
            "exptPart": "trial",
            "trialNumber": 82,
            "roleCurrent": "receiver",
            "marblesSampled": 100,
            "probRed": 0.5,
            "lambda": 5,
            "drawnRed": 35,
            "reportedRed": 40,
            "inferredRed": 52,
            "playerTrialScore": -17,
            "oppTrialScore": 17,
            "playerTotalScore": -286,
            "oppTotalScore": 77,
            "waitTime": 5208.206121379075,
            "responseTime": 1678828907416,
            "catchQuestion": "How many <b class=\"r\">red<\/b> marbles did you actually draw (before any changes)? ",
            "catchKey": -1,
            "catchResponse": -1,
            "catchTime": 1678828840984,
            "trialTime": 0
        },
        {
            "exptPart": "trial",
            "trialNumber": 83,
            "roleCurrent": "sender",
            "marblesSampled": 100,
            "probRed": 0.5,
            "lambda": 5,
            "drawnRed": 35,
            "reportedRed": 29,
            "inferredRed": 27,
            "playerTrialScore": 0,
            "oppTrialScore": -8,
            "playerTotalScore": -286,
            "oppTotalScore": 69,
            "waitTime": 2835.0766817635567,
            "responseTime": 1678828932940,
            "catchQuestion": "How many <b class=\"r\">red<\/b> marbles did you actually draw (before any changes)? ",
            "catchKey": -1,
            "catchResponse": -1,
            "catchTime": 1678828840984,
            "trialTime": 0
        },
        {
            "exptPart": "trial",
            "trialNumber": 84,
            "roleCurrent": "receiver",
            "marblesSampled": 100,
            "probRed": 0.5,
            "lambda": 5,
            "drawnRed": 39,
            "reportedRed": 44,
            "inferredRed": 52,
            "playerTrialScore": -13,
            "oppTrialScore": 13,
            "playerTotalScore": -299,
            "oppTotalScore": 82,
            "waitTime": 5870.925094913005,
            "responseTime": 1678828948481,
            "catchQuestion": "How many <b class=\"r\">red<\/b> marbles did you actually draw (before any changes)? ",
            "catchKey": -1,
            "catchResponse": -1,
            "catchTime": 1678828840984,
            "trialTime": 0
        },
        {
            "exptPart": "trial",
            "trialNumber": 85,
            "roleCurrent": "sender",
            "marblesSampled": 100,
            "probRed": 0.5,
            "lambda": 5,
            "drawnRed": 40,
            "reportedRed": 45,
            "inferredRed": 42,
            "playerTrialScore": 2,
            "oppTrialScore": -2,
            "playerTotalScore": -297,
            "oppTotalScore": 80,
            "waitTime": 2301.126053085448,
            "responseTime": 1678828983642,
            "catchQuestion": "How many <b class=\"r\">red<\/b> marbles did you actually draw (before any changes)? ",
            "catchKey": -1,
            "catchResponse": -1,
            "catchTime": 1678828983642,
            "trialTime": 0
        },
        {
            "exptPart": "trial",
            "trialNumber": 86,
            "roleCurrent": "receiver",
            "marblesSampled": 100,
            "probRed": 0.5,
            "lambda": 5,
            "drawnRed": 20,
            "reportedRed": 24,
            "inferredRed": 32,
            "playerTrialScore": -12,
            "oppTrialScore": 12,
            "playerTotalScore": -309,
            "oppTotalScore": 92,
            "waitTime": 7213.1591458005305,
            "responseTime": 1678829024982,
            "catchQuestion": "How many <b class=\"r\">red<\/b> marbles did you actually draw (before any changes)? ",
            "catchKey": -1,
            "catchResponse": -1,
            "catchTime": 1678828983642,
            "trialTime": 0
        },
        {
            "exptPart": "trial",
            "trialNumber": 87,
            "roleCurrent": "sender",
            "marblesSampled": 100,
            "probRed": 0.5,
            "lambda": 5,
            "drawnRed": 49,
            "reportedRed": 54,
            "inferredRed": 50,
            "playerTrialScore": 1,
            "oppTrialScore": -1,
            "playerTotalScore": -308,
            "oppTotalScore": 91,
            "waitTime": 3206.5566672000514,
            "responseTime": 1678829069955,
            "catchQuestion": "How many <b class=\"r\">red<\/b> marbles did you actually draw (before any changes)? ",
            "catchKey": -1,
            "catchResponse": -1,
            "catchTime": 1678828983642,
            "trialTime": 0
        },
        {
            "exptPart": "trial",
            "trialNumber": 88,
            "roleCurrent": "receiver",
            "marblesSampled": 100,
            "probRed": 0.5,
            "lambda": 5,
            "drawnRed": 44,
            "reportedRed": 50,
            "inferredRed": 55,
            "playerTrialScore": -11,
            "oppTrialScore": 11,
            "playerTotalScore": -319,
            "oppTotalScore": 102,
            "waitTime": 6343.011296685944,
            "responseTime": 1678829084238,
            "catchQuestion": "How many <b class=\"r\">red<\/b> marbles did you actually draw (before any changes)? ",
            "catchKey": -1,
            "catchResponse": -1,
            "catchTime": 1678828983642,
            "trialTime": 0
        },
        {
            "exptPart": "trial",
            "trialNumber": 89,
            "roleCurrent": "sender",
            "marblesSampled": 100,
            "probRed": 0.5,
            "lambda": 5,
            "drawnRed": 43,
            "reportedRed": 50,
            "inferredRed": 46,
            "playerTrialScore": 3,
            "oppTrialScore": -3,
            "playerTotalScore": -316,
            "oppTotalScore": 99,
            "waitTime": 2348.3818936892085,
            "responseTime": 1678829122170,
            "catchQuestion": "How many <b class=\"r\">red<\/b> marbles did you actually draw (before any changes)? ",
            "catchKey": -1,
            "catchResponse": -1,
            "catchTime": 1678828983642,
            "trialTime": 0
        },
        {
            "exptPart": "trial",
            "trialNumber": 90,
            "roleCurrent": "receiver",
            "marblesSampled": 100,
            "probRed": 0.5,
            "lambda": 5,
            "drawnRed": 41,
            "reportedRed": 44,
            "inferredRed": 53,
            "playerTrialScore": -12,
            "oppTrialScore": 12,
            "playerTotalScore": -328,
            "oppTotalScore": 111,
            "waitTime": 5642.101798442098,
            "responseTime": 1678829132820,
            "catchQuestion": "How many <b class=\"r\">red<\/b> marbles did you actually draw (before any changes)? ",
            "catchKey": -1,
            "catchResponse": -1,
            "catchTime": 1678829132820,
            "trialTime": 0
        },
        {
            "exptPart": "trial",
            "trialNumber": 91,
            "roleCurrent": "sender",
            "marblesSampled": 100,
            "probRed": 0.5,
            "lambda": 5,
            "drawnRed": 20,
            "reportedRed": 28,
            "inferredRed": 21,
            "playerTrialScore": 1,
            "oppTrialScore": -1,
            "playerTotalScore": -327,
            "oppTotalScore": 110,
            "waitTime": 2708.2278732265436,
            "responseTime": 1678829197981,
            "catchQuestion": "How many <b class=\"r\">red<\/b> marbles did you actually draw (before any changes)? ",
            "catchKey": 20,
            "catchResponse": 28,
            "catchTime": 1678829197981,
            "trialTime": 0
        },
        {
            "exptPart": "trial",
            "trialNumber": 92,
            "roleCurrent": "receiver",
            "marblesSampled": 100,
            "probRed": 0.5,
            "lambda": 5,
            "drawnRed": 77,
            "reportedRed": 80,
            "inferredRed": 93,
            "playerTrialScore": -16,
            "oppTrialScore": 16,
            "playerTotalScore": -343,
            "oppTotalScore": 126,
            "waitTime": 5539.141915319509,
            "responseTime": 1678829229036,
            "catchQuestion": "How many <b class=\"r\">red<\/b> marbles did you actually draw (before any changes)? ",
            "catchKey": -1,
            "catchResponse": -1,
            "catchTime": 1678829197981,
            "trialTime": 0
        },
        {
            "exptPart": "trial",
            "trialNumber": 93,
            "roleCurrent": "sender",
            "marblesSampled": 100,
            "probRed": 0.5,
            "lambda": 5,
            "drawnRed": 25,
            "reportedRed": 39,
            "inferredRed": 33,
            "playerTrialScore": 8,
            "oppTrialScore": -8,
            "playerTotalScore": -335,
            "oppTotalScore": 118,
            "waitTime": 2762.213748705003,
            "responseTime": 1678829254242,
            "catchQuestion": "How many <b class=\"r\">red<\/b> marbles did you actually draw (before any changes)? ",
            "catchKey": -1,
            "catchResponse": -1,
            "catchTime": 1678829197981,
            "trialTime": 0
        },
        {
            "exptPart": "trial",
            "trialNumber": 94,
            "roleCurrent": "receiver",
            "marblesSampled": 100,
            "probRed": 0.5,
            "lambda": 5,
            "drawnRed": 54,
            "reportedRed": 57,
            "inferredRed": 64,
            "playerTrialScore": -10,
            "oppTrialScore": 10,
            "playerTotalScore": -345,
            "oppTotalScore": 128,
            "waitTime": 7457.621320567223,
            "responseTime": 1678829269193,
            "catchQuestion": "How many <b class=\"r\">red<\/b> marbles did you actually draw (before any changes)? ",
            "catchKey": -1,
            "catchResponse": -1,
            "catchTime": 1678829197981,
            "trialTime": 0
        },
        {
            "exptPart": "trial",
            "trialNumber": 95,
            "roleCurrent": "sender",
            "marblesSampled": 100,
            "probRed": 0.5,
            "lambda": 5,
            "drawnRed": 46,
            "reportedRed": 55,
            "inferredRed": 52,
            "playerTrialScore": 6,
            "oppTrialScore": -6,
            "playerTotalScore": -339,
            "oppTotalScore": 122,
            "waitTime": 2490.402366791648,
            "responseTime": 1678829358073,
            "catchQuestion": "How many <b class=\"r\">red<\/b> marbles did you actually draw (before any changes)? ",
            "catchKey": -1,
            "catchResponse": -1,
            "catchTime": 1678829358073,
            "trialTime": 0
        },
        {
            "exptPart": "trial",
            "trialNumber": 96,
            "roleCurrent": "receiver",
            "marblesSampled": 100,
            "probRed": 0.5,
            "lambda": 5,
            "drawnRed": 62,
            "reportedRed": 72,
            "inferredRed": 82,
            "playerTrialScore": -20,
            "oppTrialScore": 20,
            "playerTotalScore": -359,
            "oppTotalScore": 142,
            "waitTime": 7387.442420681456,
            "responseTime": 1678829416253,
            "catchQuestion": "How many <b class=\"r\">red<\/b> marbles did you actually draw (before any changes)? ",
            "catchKey": -1,
            "catchResponse": -1,
            "catchTime": 1678829358073,
            "trialTime": 0
        },
        {
            "exptPart": "trial",
            "trialNumber": 97,
            "roleCurrent": "sender",
            "marblesSampled": 100,
            "probRed": 0.5,
            "lambda": 5,
            "drawnRed": 79,
            "reportedRed": 71,
            "inferredRed": 63,
            "playerTrialScore": 0,
            "oppTrialScore": -16,
            "playerTotalScore": -359,
            "oppTotalScore": 126,
            "waitTime": 2454.4086511733576,
            "responseTime": 1678829433938,
            "catchQuestion": "How many <b class=\"r\">red<\/b> marbles did you actually draw (before any changes)? ",
            "catchKey": -1,
            "catchResponse": -1,
            "catchTime": 1678829358073,
            "trialTime": 0
        },
        {
            "exptPart": "trial",
            "trialNumber": 98,
            "roleCurrent": "receiver",
            "marblesSampled": 100,
            "probRed": 0.5,
            "lambda": 5,
            "drawnRed": 31,
            "reportedRed": 35,
            "inferredRed": 42,
            "playerTrialScore": -11,
            "oppTrialScore": 11,
            "playerTotalScore": -370,
            "oppTotalScore": 137,
            "waitTime": 5597.219282835247,
            "responseTime": 1678829446178,
            "catchQuestion": "How many <b class=\"r\">red<\/b> marbles did you actually draw (before any changes)? ",
            "catchKey": -1,
            "catchResponse": -1,
            "catchTime": 1678829358073,
            "trialTime": 0
        },
        {
            "exptPart": "trial",
            "trialNumber": 99,
            "roleCurrent": "sender",
            "marblesSampled": 100,
            "probRed": 0.5,
            "lambda": 5,
            "drawnRed": 65,
            "reportedRed": 58,
            "inferredRed": 49,
            "playerTrialScore": 0,
            "oppTrialScore": -16,
            "playerTotalScore": -370,
            "oppTotalScore": 121,
            "waitTime": 2126.912006756587,
            "responseTime": 1678829465075,
            "catchQuestion": "How many <b class=\"r\">red<\/b> marbles did you actually draw (before any changes)? ",
            "catchKey": -1,
            "catchResponse": -1,
            "catchTime": 1678829358073,
            "trialTime": 0
        },
        {
            "exptPart": "trial",
            "trialNumber": 100,
            "roleCurrent": "receiver",
            "marblesSampled": 100,
            "probRed": 0.5,
            "lambda": 5,
            "drawnRed": 83,
            "reportedRed": 90,
            "inferredRed": 93,
            "playerTrialScore": -10,
            "oppTrialScore": 10,
            "playerTotalScore": -380,
            "oppTotalScore": 131,
            "waitTime": 6618.1251794888985,
            "responseTime": 1678829477282,
            "catchQuestion": "How many <b class=\"r\">red<\/b> marbles did you actually draw (before any changes)? ",
            "catchKey": -1,
            "catchResponse": -1,
            "catchTime": 1678829477282,
            "trialTime": 0
        }
    ]
}