{
    "client": {
        "type": "sona",
        "experiment_id": 2228,
        "credit_token": "b315147ae43241ea9c65086cb510cfb7",
        "survey_code": "47824",
        "sid": "sona-47824",
        "window": {
            "width": 1280,
            "height": 720
        },
        "screen": {
            "width": 1280,
            "height": 800
        },
        "userAgent": "Mozilla\/5.0 (Macintosh; Intel Mac OS X 10_15_7) AppleWebKit\/605.1.15 (KHTML, like Gecko) Version\/15.2 Safari\/605.1.15",
        "score": 0,
        "bonus": 0
    },
    "expt": {
        "saveURL": "submit.simple.php",
        "trials": 100,
        "practiceTrials": 2,
        "marblesSampled": 100,
        "probRed": 0.5,
        "lambdaAI": 5,
        "roleFirst": "sender",
        "roles": [
            "sender",
            "receiver"
        ],
        "cost": "unif",
        "goal": "under",
        "goalInstructTxt": "above",
        "catchTrials": [
            36,
            37,
            52,
            65,
            44,
            15,
            96,
            23,
            56,
            8
        ],
        "scoreTotal": {
            "player": -118,
            "opp": -832
        },
        "sona": {
            "experiment_id": 2228,
            "credit_token": "b315147ae43241ea9c65086cb510cfb7"
        },
        "pilot": false,
        "debug": false
    },
    "trials": [
        {
            "exptPart": "practice",
            "trialNumber": 1,
            "roleCurrent": "sender",
            "marblesSampled": 100,
            "probRed": 0.5,
            "lambda": 5,
            "drawnRed": 29,
            "reportedRed": 49,
            "inferredRed": 55,
            "playerTrialScore": 0,
            "oppTrialScore": -26,
            "playerTotalScore": 0,
            "oppTotalScore": -26,
            "waitTime": 3025.4457145261413,
            "responseTime": 1678826461450,
            "catchQuestion": "How many <b class=\"r\">red<\/b> marbles did you actually draw (before any changes)? ",
            "catchKey": 29,
            "catchResponse": 29,
            "catchTime": 1678826461451,
            "trialTime": 0
        },
        {
            "exptPart": "practice",
            "trialNumber": 2,
            "roleCurrent": "receiver",
            "marblesSampled": 100,
            "probRed": 0.5,
            "lambda": 5,
            "drawnRed": 44,
            "reportedRed": 35,
            "inferredRed": 38,
            "playerTrialScore": -6,
            "oppTrialScore": 6,
            "playerTotalScore": -6,
            "oppTotalScore": -20,
            "waitTime": 5919.822468401013,
            "responseTime": 1678826498869,
            "catchQuestion": "How many <b class=\"r\">red<\/b> marbles did your opponent report drawing? ",
            "catchKey": 35,
            "catchResponse": 35,
            "catchTime": 1678826498869,
            "trialTime": 0
        },
        {
            "exptPart": "trial",
            "trialNumber": 1,
            "roleCurrent": "sender",
            "marblesSampled": 100,
            "probRed": 0.5,
            "lambda": 5,
            "drawnRed": 79,
            "reportedRed": 59,
            "inferredRed": 63,
            "playerTrialScore": 16,
            "oppTrialScore": -16,
            "playerTotalScore": 16,
            "oppTotalScore": -16,
            "waitTime": 2194.361541520091,
            "responseTime": 1678826565284,
            "catchQuestion": "How many <b class=\"r\">red<\/b> marbles did your opponent report drawing? ",
            "catchKey": -1,
            "catchResponse": -1,
            "catchTime": 1678826498869,
            "trialTime": 0
        },
        {
            "exptPart": "trial",
            "trialNumber": 2,
            "roleCurrent": "receiver",
            "marblesSampled": 100,
            "probRed": 0.5,
            "lambda": 5,
            "drawnRed": 60,
            "reportedRed": 53,
            "inferredRed": 50,
            "playerTrialScore": -10,
            "oppTrialScore": 10,
            "playerTotalScore": 6,
            "oppTotalScore": -6,
            "waitTime": 6234.028250853764,
            "responseTime": 1678826586055,
            "catchQuestion": "How many <b class=\"r\">red<\/b> marbles did your opponent report drawing? ",
            "catchKey": -1,
            "catchResponse": -1,
            "catchTime": 1678826498869,
            "trialTime": 0
        },
        {
            "exptPart": "trial",
            "trialNumber": 3,
            "roleCurrent": "sender",
            "marblesSampled": 100,
            "probRed": 0.5,
            "lambda": 5,
            "drawnRed": 79,
            "reportedRed": 69,
            "inferredRed": 72,
            "playerTrialScore": 7,
            "oppTrialScore": -7,
            "playerTotalScore": 13,
            "oppTotalScore": -13,
            "waitTime": 2275.892756418508,
            "responseTime": 1678826617979,
            "catchQuestion": "How many <b class=\"r\">red<\/b> marbles did your opponent report drawing? ",
            "catchKey": -1,
            "catchResponse": -1,
            "catchTime": 1678826498869,
            "trialTime": 0
        },
        {
            "exptPart": "trial",
            "trialNumber": 4,
            "roleCurrent": "receiver",
            "marblesSampled": 100,
            "probRed": 0.5,
            "lambda": 5,
            "drawnRed": 59,
            "reportedRed": 53,
            "inferredRed": 60,
            "playerTrialScore": -1,
            "oppTrialScore": 0,
            "playerTotalScore": 12,
            "oppTotalScore": -13,
            "waitTime": 7137.066729994,
            "responseTime": 1678826647469,
            "catchQuestion": "How many <b class=\"r\">red<\/b> marbles did your opponent report drawing? ",
            "catchKey": -1,
            "catchResponse": -1,
            "catchTime": 1678826498869,
            "trialTime": 0
        },
        {
            "exptPart": "trial",
            "trialNumber": 5,
            "roleCurrent": "sender",
            "marblesSampled": 100,
            "probRed": 0.5,
            "lambda": 5,
            "drawnRed": 58,
            "reportedRed": 30,
            "inferredRed": 36,
            "playerTrialScore": 22,
            "oppTrialScore": -22,
            "playerTotalScore": 34,
            "oppTotalScore": -35,
            "waitTime": 2393.9251138858335,
            "responseTime": 1678826741148,
            "catchQuestion": "How many <b class=\"r\">red<\/b> marbles did your opponent report drawing? ",
            "catchKey": -1,
            "catchResponse": -1,
            "catchTime": 1678826741148,
            "trialTime": 0
        },
        {
            "exptPart": "trial",
            "trialNumber": 6,
            "roleCurrent": "receiver",
            "marblesSampled": 100,
            "probRed": 0.5,
            "lambda": 5,
            "drawnRed": 40,
            "reportedRed": 31,
            "inferredRed": 41,
            "playerTrialScore": -1,
            "oppTrialScore": 0,
            "playerTotalScore": 33,
            "oppTotalScore": -35,
            "waitTime": 6076.430839439649,
            "responseTime": 1678826770416,
            "catchQuestion": "How many <b class=\"r\">red<\/b> marbles did your opponent report drawing? ",
            "catchKey": -1,
            "catchResponse": -1,
            "catchTime": 1678826741148,
            "trialTime": 0
        },
        {
            "exptPart": "trial",
            "trialNumber": 7,
            "roleCurrent": "sender",
            "marblesSampled": 100,
            "probRed": 0.5,
            "lambda": 5,
            "drawnRed": 25,
            "reportedRed": 45,
            "inferredRed": 51,
            "playerTrialScore": 0,
            "oppTrialScore": -26,
            "playerTotalScore": 33,
            "oppTotalScore": -61,
            "waitTime": 2859.9774303042905,
            "responseTime": 1678826829315,
            "catchQuestion": "How many <b class=\"r\">red<\/b> marbles did your opponent report drawing? ",
            "catchKey": -1,
            "catchResponse": -1,
            "catchTime": 1678826741148,
            "trialTime": 0
        },
        {
            "exptPart": "trial",
            "trialNumber": 8,
            "roleCurrent": "receiver",
            "marblesSampled": 100,
            "probRed": 0.5,
            "lambda": 5,
            "drawnRed": 45,
            "reportedRed": 42,
            "inferredRed": 52,
            "playerTrialScore": -7,
            "oppTrialScore": 0,
            "playerTotalScore": 26,
            "oppTotalScore": -61,
            "waitTime": 5401.832664247891,
            "responseTime": 1678826839922,
            "catchQuestion": "How many <b class=\"r\">red<\/b> marbles did your opponent report drawing? ",
            "catchKey": -1,
            "catchResponse": -1,
            "catchTime": 1678826741148,
            "trialTime": 0
        },
        {
            "exptPart": "trial",
            "trialNumber": 9,
            "roleCurrent": "sender",
            "marblesSampled": 100,
            "probRed": 0.5,
            "lambda": 5,
            "drawnRed": 36,
            "reportedRed": 37,
            "inferredRed": 40,
            "playerTrialScore": 0,
            "oppTrialScore": -4,
            "playerTotalScore": 26,
            "oppTotalScore": -65,
            "waitTime": 2084.834430138101,
            "responseTime": 1678826853395,
            "catchQuestion": "How many <b class=\"r\">red<\/b> marbles did you actually draw (before any changes)? ",
            "catchKey": 36,
            "catchResponse": 36,
            "catchTime": 1678826853395,
            "trialTime": 0
        },
        {
            "exptPart": "trial",
            "trialNumber": 10,
            "roleCurrent": "receiver",
            "marblesSampled": 100,
            "probRed": 0.5,
            "lambda": 5,
            "drawnRed": 23,
            "reportedRed": 16,
            "inferredRed": 25,
            "playerTrialScore": -2,
            "oppTrialScore": 0,
            "playerTotalScore": 24,
            "oppTotalScore": -65,
            "waitTime": 5337.78446465508,
            "responseTime": 1678826896005,
            "catchQuestion": "How many <b class=\"r\">red<\/b> marbles did you actually draw (before any changes)? ",
            "catchKey": -1,
            "catchResponse": -1,
            "catchTime": 1678826896005,
            "trialTime": 0
        },
        {
            "exptPart": "trial",
            "trialNumber": 11,
            "roleCurrent": "sender",
            "marblesSampled": 100,
            "probRed": 0.5,
            "lambda": 5,
            "drawnRed": 37,
            "reportedRed": 60,
            "inferredRed": 64,
            "playerTrialScore": 0,
            "oppTrialScore": -27,
            "playerTotalScore": 24,
            "oppTotalScore": -92,
            "waitTime": 3156.5066846297805,
            "responseTime": 1678826961040,
            "catchQuestion": "How many <b class=\"r\">red<\/b> marbles did you actually draw (before any changes)? ",
            "catchKey": -1,
            "catchResponse": -1,
            "catchTime": 1678826896005,
            "trialTime": 0
        },
        {
            "exptPart": "trial",
            "trialNumber": 12,
            "roleCurrent": "receiver",
            "marblesSampled": 100,
            "probRed": 0.5,
            "lambda": 5,
            "drawnRed": 54,
            "reportedRed": 53,
            "inferredRed": 45,
            "playerTrialScore": -9,
            "oppTrialScore": 9,
            "playerTotalScore": 15,
            "oppTotalScore": -83,
            "waitTime": 7046.661923033929,
            "responseTime": 1678826976944,
            "catchQuestion": "How many <b class=\"r\">red<\/b> marbles did you actually draw (before any changes)? ",
            "catchKey": -1,
            "catchResponse": -1,
            "catchTime": 1678826896005,
            "trialTime": 0
        },
        {
            "exptPart": "trial",
            "trialNumber": 13,
            "roleCurrent": "sender",
            "marblesSampled": 100,
            "probRed": 0.5,
            "lambda": 5,
            "drawnRed": 22,
            "reportedRed": 10,
            "inferredRed": 13,
            "playerTrialScore": 9,
            "oppTrialScore": -9,
            "playerTotalScore": 24,
            "oppTotalScore": -92,
            "waitTime": 2405.9249020103935,
            "responseTime": 1678826999683,
            "catchQuestion": "How many <b class=\"r\">red<\/b> marbles did you actually draw (before any changes)? ",
            "catchKey": -1,
            "catchResponse": -1,
            "catchTime": 1678826896005,
            "trialTime": 0
        },
        {
            "exptPart": "trial",
            "trialNumber": 14,
            "roleCurrent": "receiver",
            "marblesSampled": 100,
            "probRed": 0.5,
            "lambda": 5,
            "drawnRed": 56,
            "reportedRed": 52,
            "inferredRed": 48,
            "playerTrialScore": -8,
            "oppTrialScore": 8,
            "playerTotalScore": 16,
            "oppTotalScore": -84,
            "waitTime": 5916.694578728486,
            "responseTime": 1678827014311,
            "catchQuestion": "How many <b class=\"r\">red<\/b> marbles did you actually draw (before any changes)? ",
            "catchKey": -1,
            "catchResponse": -1,
            "catchTime": 1678826896005,
            "trialTime": 0
        },
        {
            "exptPart": "trial",
            "trialNumber": 15,
            "roleCurrent": "sender",
            "marblesSampled": 100,
            "probRed": 0.5,
            "lambda": 5,
            "drawnRed": 50,
            "reportedRed": 70,
            "inferredRed": 73,
            "playerTrialScore": 0,
            "oppTrialScore": -23,
            "playerTotalScore": 16,
            "oppTotalScore": -107,
            "waitTime": 2181.684628479403,
            "responseTime": 1678827041122,
            "catchQuestion": "How many <b class=\"r\">red<\/b> marbles did you actually draw (before any changes)? ",
            "catchKey": -1,
            "catchResponse": -1,
            "catchTime": 1678827041122,
            "trialTime": 0
        },
        {
            "exptPart": "trial",
            "trialNumber": 16,
            "roleCurrent": "receiver",
            "marblesSampled": 100,
            "probRed": 0.5,
            "lambda": 5,
            "drawnRed": 72,
            "reportedRed": 66,
            "inferredRed": 70,
            "playerTrialScore": -2,
            "oppTrialScore": 2,
            "playerTotalScore": 14,
            "oppTotalScore": -105,
            "waitTime": 5721.492428426127,
            "responseTime": 1678827096819,
            "catchQuestion": "How many <b class=\"r\">red<\/b> marbles did your opponent report drawing? ",
            "catchKey": 66,
            "catchResponse": 66,
            "catchTime": 1678827096819,
            "trialTime": 0
        },
        {
            "exptPart": "trial",
            "trialNumber": 17,
            "roleCurrent": "sender",
            "marblesSampled": 100,
            "probRed": 0.5,
            "lambda": 5,
            "drawnRed": 16,
            "reportedRed": 44,
            "inferredRed": 50,
            "playerTrialScore": 0,
            "oppTrialScore": -34,
            "playerTotalScore": 14,
            "oppTotalScore": -139,
            "waitTime": 2359.59702319377,
            "responseTime": 1678827133502,
            "catchQuestion": "How many <b class=\"r\">red<\/b> marbles did your opponent report drawing? ",
            "catchKey": -1,
            "catchResponse": -1,
            "catchTime": 1678827096819,
            "trialTime": 0
        },
        {
            "exptPart": "trial",
            "trialNumber": 18,
            "roleCurrent": "receiver",
            "marblesSampled": 100,
            "probRed": 0.5,
            "lambda": 5,
            "drawnRed": 39,
            "reportedRed": 38,
            "inferredRed": 45,
            "playerTrialScore": -6,
            "oppTrialScore": 0,
            "playerTotalScore": 8,
            "oppTotalScore": -139,
            "waitTime": 7130.367194007129,
            "responseTime": 1678827148845,
            "catchQuestion": "How many <b class=\"r\">red<\/b> marbles did your opponent report drawing? ",
            "catchKey": -1,
            "catchResponse": -1,
            "catchTime": 1678827096819,
            "trialTime": 0
        },
        {
            "exptPart": "trial",
            "trialNumber": 19,
            "roleCurrent": "sender",
            "marblesSampled": 100,
            "probRed": 0.5,
            "lambda": 5,
            "drawnRed": 40,
            "reportedRed": 40,
            "inferredRed": 46,
            "playerTrialScore": 0,
            "oppTrialScore": -6,
            "playerTotalScore": 8,
            "oppTotalScore": -145,
            "waitTime": 3184.097133552072,
            "responseTime": 1678827159423,
            "catchQuestion": "How many <b class=\"r\">red<\/b> marbles did your opponent report drawing? ",
            "catchKey": -1,
            "catchResponse": -1,
            "catchTime": 1678827096819,
            "trialTime": 0
        },
        {
            "exptPart": "trial",
            "trialNumber": 20,
            "roleCurrent": "receiver",
            "marblesSampled": 100,
            "probRed": 0.5,
            "lambda": 5,
            "drawnRed": 44,
            "reportedRed": 38,
            "inferredRed": 45,
            "playerTrialScore": -1,
            "oppTrialScore": 0,
            "playerTotalScore": 7,
            "oppTotalScore": -145,
            "waitTime": 6835.978291985597,
            "responseTime": 1678827193793,
            "catchQuestion": "How many <b class=\"r\">red<\/b> marbles did your opponent report drawing? ",
            "catchKey": -1,
            "catchResponse": -1,
            "catchTime": 1678827193793,
            "trialTime": 0
        },
        {
            "exptPart": "trial",
            "trialNumber": 21,
            "roleCurrent": "sender",
            "marblesSampled": 100,
            "probRed": 0.5,
            "lambda": 5,
            "drawnRed": 47,
            "reportedRed": 30,
            "inferredRed": 34,
            "playerTrialScore": 13,
            "oppTrialScore": -13,
            "playerTotalScore": 20,
            "oppTotalScore": -158,
            "waitTime": 3089.4160796603364,
            "responseTime": 1678827251475,
            "catchQuestion": "How many <b class=\"r\">red<\/b> marbles did your opponent report drawing? ",
            "catchKey": -1,
            "catchResponse": -1,
            "catchTime": 1678827193793,
            "trialTime": 0
        },
        {
            "exptPart": "trial",
            "trialNumber": 22,
            "roleCurrent": "receiver",
            "marblesSampled": 100,
            "probRed": 0.5,
            "lambda": 5,
            "drawnRed": 34,
            "reportedRed": 32,
            "inferredRed": 44,
            "playerTrialScore": -10,
            "oppTrialScore": 0,
            "playerTotalScore": 10,
            "oppTotalScore": -158,
            "waitTime": 7215.374000320907,
            "responseTime": 1678827266227,
            "catchQuestion": "How many <b class=\"r\">red<\/b> marbles did your opponent report drawing? ",
            "catchKey": -1,
            "catchResponse": -1,
            "catchTime": 1678827193793,
            "trialTime": 0
        },
        {
            "exptPart": "trial",
            "trialNumber": 23,
            "roleCurrent": "sender",
            "marblesSampled": 100,
            "probRed": 0.5,
            "lambda": 5,
            "drawnRed": 38,
            "reportedRed": 45,
            "inferredRed": 48,
            "playerTrialScore": 0,
            "oppTrialScore": -10,
            "playerTotalScore": 10,
            "oppTotalScore": -168,
            "waitTime": 2915.9561496527476,
            "responseTime": 1678827282598,
            "catchQuestion": "How many <b class=\"r\">red<\/b> marbles did your opponent report drawing? ",
            "catchKey": -1,
            "catchResponse": -1,
            "catchTime": 1678827193793,
            "trialTime": 0
        },
        {
            "exptPart": "trial",
            "trialNumber": 24,
            "roleCurrent": "receiver",
            "marblesSampled": 100,
            "probRed": 0.5,
            "lambda": 5,
            "drawnRed": 18,
            "reportedRed": 15,
            "inferredRed": 30,
            "playerTrialScore": -12,
            "oppTrialScore": 0,
            "playerTotalScore": -2,
            "oppTotalScore": -168,
            "waitTime": 5218.869918756403,
            "responseTime": 1678827294976,
            "catchQuestion": "How many <b class=\"r\">red<\/b> marbles did your opponent report drawing? ",
            "catchKey": 15,
            "catchResponse": 15,
            "catchTime": 1678827294976,
            "trialTime": 0
        },
        {
            "exptPart": "trial",
            "trialNumber": 25,
            "roleCurrent": "sender",
            "marblesSampled": 100,
            "probRed": 0.5,
            "lambda": 5,
            "drawnRed": 94,
            "reportedRed": 84,
            "inferredRed": 86,
            "playerTrialScore": 8,
            "oppTrialScore": -8,
            "playerTotalScore": 6,
            "oppTotalScore": -176,
            "waitTime": 2942.438975541349,
            "responseTime": 1678827320790,
            "catchQuestion": "How many <b class=\"r\">red<\/b> marbles did your opponent report drawing? ",
            "catchKey": -1,
            "catchResponse": -1,
            "catchTime": 1678827320790,
            "trialTime": 0
        },
        {
            "exptPart": "trial",
            "trialNumber": 26,
            "roleCurrent": "receiver",
            "marblesSampled": 100,
            "probRed": 0.5,
            "lambda": 5,
            "drawnRed": 42,
            "reportedRed": 41,
            "inferredRed": 31,
            "playerTrialScore": -11,
            "oppTrialScore": 11,
            "playerTotalScore": -5,
            "oppTotalScore": -165,
            "waitTime": 5623.1431684101735,
            "responseTime": 1678827355574,
            "catchQuestion": "How many <b class=\"r\">red<\/b> marbles did your opponent report drawing? ",
            "catchKey": -1,
            "catchResponse": -1,
            "catchTime": 1678827320790,
            "trialTime": 0
        },
        {
            "exptPart": "trial",
            "trialNumber": 27,
            "roleCurrent": "sender",
            "marblesSampled": 100,
            "probRed": 0.5,
            "lambda": 5,
            "drawnRed": 72,
            "reportedRed": 40,
            "inferredRed": 47,
            "playerTrialScore": 25,
            "oppTrialScore": -25,
            "playerTotalScore": 20,
            "oppTotalScore": -190,
            "waitTime": 2107.1456562917256,
            "responseTime": 1678827386387,
            "catchQuestion": "How many <b class=\"r\">red<\/b> marbles did your opponent report drawing? ",
            "catchKey": -1,
            "catchResponse": -1,
            "catchTime": 1678827320790,
            "trialTime": 0
        },
        {
            "exptPart": "trial",
            "trialNumber": 28,
            "roleCurrent": "receiver",
            "marblesSampled": 100,
            "probRed": 0.5,
            "lambda": 5,
            "drawnRed": 42,
            "reportedRed": 37,
            "inferredRed": 46,
            "playerTrialScore": -4,
            "oppTrialScore": 0,
            "playerTotalScore": 16,
            "oppTotalScore": -190,
            "waitTime": 6765.716735580005,
            "responseTime": 1678827414843,
            "catchQuestion": "How many <b class=\"r\">red<\/b> marbles did your opponent report drawing? ",
            "catchKey": -1,
            "catchResponse": -1,
            "catchTime": 1678827320790,
            "trialTime": 0
        },
        {
            "exptPart": "trial",
            "trialNumber": 29,
            "roleCurrent": "sender",
            "marblesSampled": 100,
            "probRed": 0.5,
            "lambda": 5,
            "drawnRed": 68,
            "reportedRed": 68,
            "inferredRed": 72,
            "playerTrialScore": 0,
            "oppTrialScore": -4,
            "playerTotalScore": 16,
            "oppTotalScore": -194,
            "waitTime": 2469.5937971555472,
            "responseTime": 1678827434546,
            "catchQuestion": "How many <b class=\"r\">red<\/b> marbles did your opponent report drawing? ",
            "catchKey": -1,
            "catchResponse": -1,
            "catchTime": 1678827320790,
            "trialTime": 0
        },
        {
            "exptPart": "trial",
            "trialNumber": 30,
            "roleCurrent": "receiver",
            "marblesSampled": 100,
            "probRed": 0.5,
            "lambda": 5,
            "drawnRed": 41,
            "reportedRed": 36,
            "inferredRed": 36,
            "playerTrialScore": -5,
            "oppTrialScore": 5,
            "playerTotalScore": 11,
            "oppTotalScore": -189,
            "waitTime": 5706.109962284385,
            "responseTime": 1678827446672,
            "catchQuestion": "How many <b class=\"r\">red<\/b> marbles did your opponent report drawing? ",
            "catchKey": -1,
            "catchResponse": -1,
            "catchTime": 1678827446673,
            "trialTime": 0
        },
        {
            "exptPart": "trial",
            "trialNumber": 31,
            "roleCurrent": "sender",
            "marblesSampled": 100,
            "probRed": 0.5,
            "lambda": 5,
            "drawnRed": 46,
            "reportedRed": 33,
            "inferredRed": 36,
            "playerTrialScore": 10,
            "oppTrialScore": -10,
            "playerTotalScore": 21,
            "oppTotalScore": -199,
            "waitTime": 2331.751020703122,
            "responseTime": 1678827469733,
            "catchQuestion": "How many <b class=\"r\">red<\/b> marbles did your opponent report drawing? ",
            "catchKey": -1,
            "catchResponse": -1,
            "catchTime": 1678827446673,
            "trialTime": 0
        },
        {
            "exptPart": "trial",
            "trialNumber": 32,
            "roleCurrent": "receiver",
            "marblesSampled": 100,
            "probRed": 0.5,
            "lambda": 5,
            "drawnRed": 55,
            "reportedRed": 53,
            "inferredRed": 60,
            "playerTrialScore": -5,
            "oppTrialScore": 0,
            "playerTotalScore": 16,
            "oppTotalScore": -199,
            "waitTime": 5856.6780110265945,
            "responseTime": 1678827483134,
            "catchQuestion": "How many <b class=\"r\">red<\/b> marbles did your opponent report drawing? ",
            "catchKey": -1,
            "catchResponse": -1,
            "catchTime": 1678827446673,
            "trialTime": 0
        },
        {
            "exptPart": "trial",
            "trialNumber": 33,
            "roleCurrent": "sender",
            "marblesSampled": 100,
            "probRed": 0.5,
            "lambda": 5,
            "drawnRed": 16,
            "reportedRed": 41,
            "inferredRed": 45,
            "playerTrialScore": 0,
            "oppTrialScore": -29,
            "playerTotalScore": 16,
            "oppTotalScore": -228,
            "waitTime": 2319.9254422381755,
            "responseTime": 1678827533983,
            "catchQuestion": "How many <b class=\"r\">red<\/b> marbles did your opponent report drawing? ",
            "catchKey": -1,
            "catchResponse": -1,
            "catchTime": 1678827446673,
            "trialTime": 0
        },
        {
            "exptPart": "trial",
            "trialNumber": 34,
            "roleCurrent": "receiver",
            "marblesSampled": 100,
            "probRed": 0.5,
            "lambda": 5,
            "drawnRed": 73,
            "reportedRed": 70,
            "inferredRed": 90,
            "playerTrialScore": -17,
            "oppTrialScore": 0,
            "playerTotalScore": -1,
            "oppTotalScore": -228,
            "waitTime": 6075.181179883628,
            "responseTime": 1678827553277,
            "catchQuestion": "How many <b class=\"r\">red<\/b> marbles did your opponent report drawing? ",
            "catchKey": -1,
            "catchResponse": -1,
            "catchTime": 1678827446673,
            "trialTime": 0
        },
        {
            "exptPart": "trial",
            "trialNumber": 35,
            "roleCurrent": "sender",
            "marblesSampled": 100,
            "probRed": 0.5,
            "lambda": 5,
            "drawnRed": 35,
            "reportedRed": 35,
            "inferredRed": 39,
            "playerTrialScore": 0,
            "oppTrialScore": -4,
            "playerTotalScore": -1,
            "oppTotalScore": -232,
            "waitTime": 2087.0580620358337,
            "responseTime": 1678827560658,
            "catchQuestion": "How many <b class=\"r\">red<\/b> marbles did your opponent report drawing? ",
            "catchKey": -1,
            "catchResponse": -1,
            "catchTime": 1678827560658,
            "trialTime": 0
        },
        {
            "exptPart": "trial",
            "trialNumber": 36,
            "roleCurrent": "receiver",
            "marblesSampled": 100,
            "probRed": 0.5,
            "lambda": 5,
            "drawnRed": 59,
            "reportedRed": 56,
            "inferredRed": 45,
            "playerTrialScore": -14,
            "oppTrialScore": 14,
            "playerTotalScore": -15,
            "oppTotalScore": -218,
            "waitTime": 5134.747579324845,
            "responseTime": 1678827602600,
            "catchQuestion": "How many <b class=\"r\">red<\/b> marbles did your opponent report drawing? ",
            "catchKey": -1,
            "catchResponse": -1,
            "catchTime": 1678827560658,
            "trialTime": 0
        },
        {
            "exptPart": "trial",
            "trialNumber": 37,
            "roleCurrent": "sender",
            "marblesSampled": 100,
            "probRed": 0.5,
            "lambda": 5,
            "drawnRed": 34,
            "reportedRed": 47,
            "inferredRed": 50,
            "playerTrialScore": 0,
            "oppTrialScore": -16,
            "playerTotalScore": -15,
            "oppTotalScore": -234,
            "waitTime": 2265.0822343263235,
            "responseTime": 1678827672852,
            "catchQuestion": "How many <b class=\"r\">red<\/b> marbles did you actually draw (before any changes)? ",
            "catchKey": 34,
            "catchResponse": 38,
            "catchTime": 1678827672852,
            "trialTime": 0
        },
        {
            "exptPart": "trial",
            "trialNumber": 38,
            "roleCurrent": "receiver",
            "marblesSampled": 100,
            "probRed": 0.5,
            "lambda": 5,
            "drawnRed": 73,
            "reportedRed": 68,
            "inferredRed": 75,
            "playerTrialScore": -2,
            "oppTrialScore": 0,
            "playerTotalScore": -17,
            "oppTotalScore": -234,
            "waitTime": 5262.891981033121,
            "responseTime": 1678827693522,
            "catchQuestion": "How many <b class=\"r\">red<\/b> marbles did your opponent report drawing? ",
            "catchKey": 68,
            "catchResponse": 68,
            "catchTime": 1678827693522,
            "trialTime": 0
        },
        {
            "exptPart": "trial",
            "trialNumber": 39,
            "roleCurrent": "sender",
            "marblesSampled": 100,
            "probRed": 0.5,
            "lambda": 5,
            "drawnRed": 80,
            "reportedRed": 92,
            "inferredRed": 100,
            "playerTrialScore": 0,
            "oppTrialScore": -20,
            "playerTotalScore": -17,
            "oppTotalScore": -254,
            "waitTime": 3143.377363424797,
            "responseTime": 1678827725283,
            "catchQuestion": "How many <b class=\"r\">red<\/b> marbles did your opponent report drawing? ",
            "catchKey": -1,
            "catchResponse": -1,
            "catchTime": 1678827693522,
            "trialTime": 0
        },
        {
            "exptPart": "trial",
            "trialNumber": 40,
            "roleCurrent": "receiver",
            "marblesSampled": 100,
            "probRed": 0.5,
            "lambda": 5,
            "drawnRed": 60,
            "reportedRed": 51,
            "inferredRed": 40,
            "playerTrialScore": -20,
            "oppTrialScore": 20,
            "playerTotalScore": -37,
            "oppTotalScore": -234,
            "waitTime": 6121.6731974473805,
            "responseTime": 1678827744516,
            "catchQuestion": "How many <b class=\"r\">red<\/b> marbles did your opponent report drawing? ",
            "catchKey": -1,
            "catchResponse": -1,
            "catchTime": 1678827744517,
            "trialTime": 0
        },
        {
            "exptPart": "trial",
            "trialNumber": 41,
            "roleCurrent": "sender",
            "marblesSampled": 100,
            "probRed": 0.5,
            "lambda": 5,
            "drawnRed": 50,
            "reportedRed": 69,
            "inferredRed": 74,
            "playerTrialScore": 0,
            "oppTrialScore": -24,
            "playerTotalScore": -37,
            "oppTotalScore": -258,
            "waitTime": 2548.8966318485564,
            "responseTime": 1678827883199,
            "catchQuestion": "How many <b class=\"r\">red<\/b> marbles did your opponent report drawing? ",
            "catchKey": -1,
            "catchResponse": -1,
            "catchTime": 1678827744517,
            "trialTime": 0
        },
        {
            "exptPart": "trial",
            "trialNumber": 42,
            "roleCurrent": "receiver",
            "marblesSampled": 100,
            "probRed": 0.5,
            "lambda": 5,
            "drawnRed": 70,
            "reportedRed": 67,
            "inferredRed": 77,
            "playerTrialScore": -7,
            "oppTrialScore": 0,
            "playerTotalScore": -44,
            "oppTotalScore": -258,
            "waitTime": 7410.394001920237,
            "responseTime": 1678827897277,
            "catchQuestion": "How many <b class=\"r\">red<\/b> marbles did your opponent report drawing? ",
            "catchKey": -1,
            "catchResponse": -1,
            "catchTime": 1678827744517,
            "trialTime": 0
        },
        {
            "exptPart": "trial",
            "trialNumber": 43,
            "roleCurrent": "sender",
            "marblesSampled": 100,
            "probRed": 0.5,
            "lambda": 5,
            "drawnRed": 33,
            "reportedRed": 33,
            "inferredRed": 37,
            "playerTrialScore": 0,
            "oppTrialScore": -4,
            "playerTotalScore": -44,
            "oppTotalScore": -262,
            "waitTime": 2235.5347773060957,
            "responseTime": 1678827907569,
            "catchQuestion": "How many <b class=\"r\">red<\/b> marbles did your opponent report drawing? ",
            "catchKey": -1,
            "catchResponse": -1,
            "catchTime": 1678827744517,
            "trialTime": 0
        },
        {
            "exptPart": "trial",
            "trialNumber": 44,
            "roleCurrent": "receiver",
            "marblesSampled": 100,
            "probRed": 0.5,
            "lambda": 5,
            "drawnRed": 50,
            "reportedRed": 50,
            "inferredRed": 55,
            "playerTrialScore": -5,
            "oppTrialScore": 0,
            "playerTotalScore": -49,
            "oppTotalScore": -262,
            "waitTime": 5168.292224556018,
            "responseTime": 1678827916508,
            "catchQuestion": "How many <b class=\"r\">red<\/b> marbles did your opponent report drawing? ",
            "catchKey": -1,
            "catchResponse": -1,
            "catchTime": 1678827744517,
            "trialTime": 0
        },
        {
            "exptPart": "trial",
            "trialNumber": 45,
            "roleCurrent": "sender",
            "marblesSampled": 100,
            "probRed": 0.5,
            "lambda": 5,
            "drawnRed": 86,
            "reportedRed": 79,
            "inferredRed": 85,
            "playerTrialScore": 1,
            "oppTrialScore": -1,
            "playerTotalScore": -48,
            "oppTotalScore": -263,
            "waitTime": 2608.3180246822694,
            "responseTime": 1678827929736,
            "catchQuestion": "How many <b class=\"r\">red<\/b> marbles did you actually draw (before any changes)? ",
            "catchKey": 86,
            "catchResponse": 86,
            "catchTime": 1678827929736,
            "trialTime": 0
        },
        {
            "exptPart": "trial",
            "trialNumber": 46,
            "roleCurrent": "receiver",
            "marblesSampled": 100,
            "probRed": 0.5,
            "lambda": 5,
            "drawnRed": 53,
            "reportedRed": 48,
            "inferredRed": 40,
            "playerTrialScore": -13,
            "oppTrialScore": 13,
            "playerTotalScore": -61,
            "oppTotalScore": -250,
            "waitTime": 5602.265360076612,
            "responseTime": 1678828052852,
            "catchQuestion": "How many <b class=\"r\">red<\/b> marbles did you actually draw (before any changes)? ",
            "catchKey": -1,
            "catchResponse": -1,
            "catchTime": 1678827929736,
            "trialTime": 0
        },
        {
            "exptPart": "trial",
            "trialNumber": 47,
            "roleCurrent": "sender",
            "marblesSampled": 100,
            "probRed": 0.5,
            "lambda": 5,
            "drawnRed": 19,
            "reportedRed": 19,
            "inferredRed": 23,
            "playerTrialScore": 0,
            "oppTrialScore": -4,
            "playerTotalScore": -61,
            "oppTotalScore": -254,
            "waitTime": 2364.821018788607,
            "responseTime": 1678828061976,
            "catchQuestion": "How many <b class=\"r\">red<\/b> marbles did you actually draw (before any changes)? ",
            "catchKey": -1,
            "catchResponse": -1,
            "catchTime": 1678827929736,
            "trialTime": 0
        },
        {
            "exptPart": "trial",
            "trialNumber": 48,
            "roleCurrent": "receiver",
            "marblesSampled": 100,
            "probRed": 0.5,
            "lambda": 5,
            "drawnRed": 21,
            "reportedRed": 19,
            "inferredRed": 25,
            "playerTrialScore": -4,
            "oppTrialScore": 0,
            "playerTotalScore": -65,
            "oppTotalScore": -254,
            "waitTime": 6182.730641515023,
            "responseTime": 1678828076341,
            "catchQuestion": "How many <b class=\"r\">red<\/b> marbles did you actually draw (before any changes)? ",
            "catchKey": -1,
            "catchResponse": -1,
            "catchTime": 1678827929736,
            "trialTime": 0
        },
        {
            "exptPart": "trial",
            "trialNumber": 49,
            "roleCurrent": "sender",
            "marblesSampled": 100,
            "probRed": 0.5,
            "lambda": 5,
            "drawnRed": 52,
            "reportedRed": 33,
            "inferredRed": 37,
            "playerTrialScore": 15,
            "oppTrialScore": -15,
            "playerTotalScore": -50,
            "oppTotalScore": -269,
            "waitTime": 2640.584590633124,
            "responseTime": 1678828097848,
            "catchQuestion": "How many <b class=\"r\">red<\/b> marbles did you actually draw (before any changes)? ",
            "catchKey": -1,
            "catchResponse": -1,
            "catchTime": 1678827929736,
            "trialTime": 0
        },
        {
            "exptPart": "trial",
            "trialNumber": 50,
            "roleCurrent": "receiver",
            "marblesSampled": 100,
            "probRed": 0.5,
            "lambda": 5,
            "drawnRed": 92,
            "reportedRed": 89,
            "inferredRed": 70,
            "playerTrialScore": -22,
            "oppTrialScore": 22,
            "playerTotalScore": -72,
            "oppTotalScore": -247,
            "waitTime": 5704.7278287161935,
            "responseTime": 1678828107297,
            "catchQuestion": "How many <b class=\"r\">red<\/b> marbles did you actually draw (before any changes)? ",
            "catchKey": -1,
            "catchResponse": -1,
            "catchTime": 1678828107297,
            "trialTime": 0
        },
        {
            "exptPart": "trial",
            "trialNumber": 51,
            "roleCurrent": "sender",
            "marblesSampled": 100,
            "probRed": 0.5,
            "lambda": 5,
            "drawnRed": 61,
            "reportedRed": 61,
            "inferredRed": 65,
            "playerTrialScore": 0,
            "oppTrialScore": -4,
            "playerTotalScore": -72,
            "oppTotalScore": -251,
            "waitTime": 2105.9721898937078,
            "responseTime": 1678828124993,
            "catchQuestion": "How many <b class=\"r\">red<\/b> marbles did you actually draw (before any changes)? ",
            "catchKey": -1,
            "catchResponse": -1,
            "catchTime": 1678828107297,
            "trialTime": 0
        },
        {
            "exptPart": "trial",
            "trialNumber": 52,
            "roleCurrent": "receiver",
            "marblesSampled": 100,
            "probRed": 0.5,
            "lambda": 5,
            "drawnRed": 66,
            "reportedRed": 59,
            "inferredRed": 67,
            "playerTrialScore": -1,
            "oppTrialScore": 0,
            "playerTotalScore": -73,
            "oppTotalScore": -251,
            "waitTime": 5646.466002121083,
            "responseTime": 1678828135632,
            "catchQuestion": "How many <b class=\"r\">red<\/b> marbles did you actually draw (before any changes)? ",
            "catchKey": -1,
            "catchResponse": -1,
            "catchTime": 1678828107297,
            "trialTime": 0
        },
        {
            "exptPart": "trial",
            "trialNumber": 53,
            "roleCurrent": "sender",
            "marblesSampled": 100,
            "probRed": 0.5,
            "lambda": 5,
            "drawnRed": 44,
            "reportedRed": 84,
            "inferredRed": 87,
            "playerTrialScore": 0,
            "oppTrialScore": -43,
            "playerTotalScore": -73,
            "oppTotalScore": -294,
            "waitTime": 2106.536554161631,
            "responseTime": 1678828174865,
            "catchQuestion": "How many <b class=\"r\">red<\/b> marbles did you actually draw (before any changes)? ",
            "catchKey": 44,
            "catchResponse": 44,
            "catchTime": 1678828174865,
            "trialTime": 0
        },
        {
            "exptPart": "trial",
            "trialNumber": 54,
            "roleCurrent": "receiver",
            "marblesSampled": 100,
            "probRed": 0.5,
            "lambda": 5,
            "drawnRed": 40,
            "reportedRed": 35,
            "inferredRed": 45,
            "playerTrialScore": -5,
            "oppTrialScore": 0,
            "playerTotalScore": -78,
            "oppTotalScore": -294,
            "waitTime": 6895.402419909112,
            "responseTime": 1678828217592,
            "catchQuestion": "How many <b class=\"r\">red<\/b> marbles did you actually draw (before any changes)? ",
            "catchKey": -1,
            "catchResponse": -1,
            "catchTime": 1678828174865,
            "trialTime": 0
        },
        {
            "exptPart": "trial",
            "trialNumber": 55,
            "roleCurrent": "sender",
            "marblesSampled": 100,
            "probRed": 0.5,
            "lambda": 5,
            "drawnRed": 59,
            "reportedRed": 35,
            "inferredRed": 41,
            "playerTrialScore": 18,
            "oppTrialScore": -18,
            "playerTotalScore": -60,
            "oppTotalScore": -312,
            "waitTime": 2078.093296495674,
            "responseTime": 1678828246611,
            "catchQuestion": "How many <b class=\"r\">red<\/b> marbles did you actually draw (before any changes)? ",
            "catchKey": -1,
            "catchResponse": -1,
            "catchTime": 1678828246611,
            "trialTime": 0
        },
        {
            "exptPart": "trial",
            "trialNumber": 56,
            "roleCurrent": "receiver",
            "marblesSampled": 100,
            "probRed": 0.5,
            "lambda": 5,
            "drawnRed": 70,
            "reportedRed": 64,
            "inferredRed": 75,
            "playerTrialScore": -5,
            "oppTrialScore": 0,
            "playerTotalScore": -65,
            "oppTotalScore": -312,
            "waitTime": 5179.948284398864,
            "responseTime": 1678828263367,
            "catchQuestion": "How many <b class=\"r\">red<\/b> marbles did you actually draw (before any changes)? ",
            "catchKey": -1,
            "catchResponse": -1,
            "catchTime": 1678828246611,
            "trialTime": 0
        },
        {
            "exptPart": "trial",
            "trialNumber": 57,
            "roleCurrent": "sender",
            "marblesSampled": 100,
            "probRed": 0.5,
            "lambda": 5,
            "drawnRed": 83,
            "reportedRed": 43,
            "inferredRed": 49,
            "playerTrialScore": 34,
            "oppTrialScore": -34,
            "playerTotalScore": -31,
            "oppTotalScore": -346,
            "waitTime": 2759.144742604092,
            "responseTime": 1678828305084,
            "catchQuestion": "How many <b class=\"r\">red<\/b> marbles did you actually draw (before any changes)? ",
            "catchKey": 83,
            "catchResponse": 83,
            "catchTime": 1678828305084,
            "trialTime": 0
        },
        {
            "exptPart": "trial",
            "trialNumber": 58,
            "roleCurrent": "receiver",
            "marblesSampled": 100,
            "probRed": 0.5,
            "lambda": 5,
            "drawnRed": 41,
            "reportedRed": 36,
            "inferredRed": 48,
            "playerTrialScore": -7,
            "oppTrialScore": 0,
            "playerTotalScore": -38,
            "oppTotalScore": -346,
            "waitTime": 5627.540048625944,
            "responseTime": 1678828322424,
            "catchQuestion": "How many <b class=\"r\">red<\/b> marbles did you actually draw (before any changes)? ",
            "catchKey": -1,
            "catchResponse": -1,
            "catchTime": 1678828305084,
            "trialTime": 0
        },
        {
            "exptPart": "trial",
            "trialNumber": 59,
            "roleCurrent": "sender",
            "marblesSampled": 100,
            "probRed": 0.5,
            "lambda": 5,
            "drawnRed": 33,
            "reportedRed": 63,
            "inferredRed": 69,
            "playerTrialScore": 0,
            "oppTrialScore": -36,
            "playerTotalScore": -38,
            "oppTotalScore": -382,
            "waitTime": 2728.8218163464912,
            "responseTime": 1678828355037,
            "catchQuestion": "How many <b class=\"r\">red<\/b> marbles did you actually draw (before any changes)? ",
            "catchKey": -1,
            "catchResponse": -1,
            "catchTime": 1678828305084,
            "trialTime": 0
        },
        {
            "exptPart": "trial",
            "trialNumber": 60,
            "roleCurrent": "receiver",
            "marblesSampled": 100,
            "probRed": 0.5,
            "lambda": 5,
            "drawnRed": 70,
            "reportedRed": 60,
            "inferredRed": 50,
            "playerTrialScore": -20,
            "oppTrialScore": 20,
            "playerTotalScore": -58,
            "oppTotalScore": -362,
            "waitTime": 6540.816148199792,
            "responseTime": 1678828369369,
            "catchQuestion": "How many <b class=\"r\">red<\/b> marbles did you actually draw (before any changes)? ",
            "catchKey": -1,
            "catchResponse": -1,
            "catchTime": 1678828369370,
            "trialTime": 0
        },
        {
            "exptPart": "trial",
            "trialNumber": 61,
            "roleCurrent": "sender",
            "marblesSampled": 100,
            "probRed": 0.5,
            "lambda": 5,
            "drawnRed": 49,
            "reportedRed": 79,
            "inferredRed": 84,
            "playerTrialScore": 0,
            "oppTrialScore": -35,
            "playerTotalScore": -58,
            "oppTotalScore": -397,
            "waitTime": 2978.0359600563197,
            "responseTime": 1678828536469,
            "catchQuestion": "How many <b class=\"r\">red<\/b> marbles did you actually draw (before any changes)? ",
            "catchKey": -1,
            "catchResponse": -1,
            "catchTime": 1678828369370,
            "trialTime": 0
        },
        {
            "exptPart": "trial",
            "trialNumber": 62,
            "roleCurrent": "receiver",
            "marblesSampled": 100,
            "probRed": 0.5,
            "lambda": 5,
            "drawnRed": 66,
            "reportedRed": 64,
            "inferredRed": 75,
            "playerTrialScore": -9,
            "oppTrialScore": 0,
            "playerTotalScore": -67,
            "oppTotalScore": -397,
            "waitTime": 5166.083078117712,
            "responseTime": 1678828642928,
            "catchQuestion": "How many <b class=\"r\">red<\/b> marbles did you actually draw (before any changes)? ",
            "catchKey": -1,
            "catchResponse": -1,
            "catchTime": 1678828369370,
            "trialTime": 0
        },
        {
            "exptPart": "trial",
            "trialNumber": 63,
            "roleCurrent": "sender",
            "marblesSampled": 100,
            "probRed": 0.5,
            "lambda": 5,
            "drawnRed": 54,
            "reportedRed": 24,
            "inferredRed": 28,
            "playerTrialScore": 26,
            "oppTrialScore": -26,
            "playerTotalScore": -41,
            "oppTotalScore": -423,
            "waitTime": 3213.0086713076116,
            "responseTime": 1678828676521,
            "catchQuestion": "How many <b class=\"r\">red<\/b> marbles did you actually draw (before any changes)? ",
            "catchKey": -1,
            "catchResponse": -1,
            "catchTime": 1678828369370,
            "trialTime": 0
        },
        {
            "exptPart": "trial",
            "trialNumber": 64,
            "roleCurrent": "receiver",
            "marblesSampled": 100,
            "probRed": 0.5,
            "lambda": 5,
            "drawnRed": 67,
            "reportedRed": 64,
            "inferredRed": 60,
            "playerTrialScore": -7,
            "oppTrialScore": 7,
            "playerTotalScore": -48,
            "oppTotalScore": -416,
            "waitTime": 5954.560467617848,
            "responseTime": 1678828687092,
            "catchQuestion": "How many <b class=\"r\">red<\/b> marbles did you actually draw (before any changes)? ",
            "catchKey": -1,
            "catchResponse": -1,
            "catchTime": 1678828369370,
            "trialTime": 0
        },
        {
            "exptPart": "trial",
            "trialNumber": 65,
            "roleCurrent": "sender",
            "marblesSampled": 100,
            "probRed": 0.5,
            "lambda": 5,
            "drawnRed": 90,
            "reportedRed": 90,
            "inferredRed": 96,
            "playerTrialScore": 0,
            "oppTrialScore": -6,
            "playerTotalScore": -48,
            "oppTotalScore": -422,
            "waitTime": 2522.410082698101,
            "responseTime": 1678828695897,
            "catchQuestion": "How many <b class=\"r\">red<\/b> marbles did you actually draw (before any changes)? ",
            "catchKey": -1,
            "catchResponse": -1,
            "catchTime": 1678828695897,
            "trialTime": 0
        },
        {
            "exptPart": "trial",
            "trialNumber": 66,
            "roleCurrent": "receiver",
            "marblesSampled": 100,
            "probRed": 0.5,
            "lambda": 5,
            "drawnRed": 29,
            "reportedRed": 28,
            "inferredRed": 40,
            "playerTrialScore": -11,
            "oppTrialScore": 0,
            "playerTotalScore": -59,
            "oppTotalScore": -422,
            "waitTime": 6204.546423228205,
            "responseTime": 1678828715705,
            "catchQuestion": "How many <b class=\"r\">red<\/b> marbles did your opponent report drawing? ",
            "catchKey": 28,
            "catchResponse": 28,
            "catchTime": 1678828715705,
            "trialTime": 0
        },
        {
            "exptPart": "trial",
            "trialNumber": 67,
            "roleCurrent": "sender",
            "marblesSampled": 100,
            "probRed": 0.5,
            "lambda": 5,
            "drawnRed": 83,
            "reportedRed": 44,
            "inferredRed": 49,
            "playerTrialScore": 34,
            "oppTrialScore": -34,
            "playerTotalScore": -25,
            "oppTotalScore": -456,
            "waitTime": 2320.4934641582945,
            "responseTime": 1678828762174,
            "catchQuestion": "How many <b class=\"r\">red<\/b> marbles did your opponent report drawing? ",
            "catchKey": -1,
            "catchResponse": -1,
            "catchTime": 1678828715705,
            "trialTime": 0
        },
        {
            "exptPart": "trial",
            "trialNumber": 68,
            "roleCurrent": "receiver",
            "marblesSampled": 100,
            "probRed": 0.5,
            "lambda": 5,
            "drawnRed": 44,
            "reportedRed": 42,
            "inferredRed": 52,
            "playerTrialScore": -8,
            "oppTrialScore": 0,
            "playerTotalScore": -33,
            "oppTotalScore": -456,
            "waitTime": 7143.682886657748,
            "responseTime": 1678828777277,
            "catchQuestion": "How many <b class=\"r\">red<\/b> marbles did your opponent report drawing? ",
            "catchKey": -1,
            "catchResponse": -1,
            "catchTime": 1678828715705,
            "trialTime": 0
        },
        {
            "exptPart": "trial",
            "trialNumber": 69,
            "roleCurrent": "sender",
            "marblesSampled": 100,
            "probRed": 0.5,
            "lambda": 5,
            "drawnRed": 54,
            "reportedRed": 74,
            "inferredRed": 80,
            "playerTrialScore": 0,
            "oppTrialScore": -26,
            "playerTotalScore": -33,
            "oppTotalScore": -482,
            "waitTime": 3110.933653751217,
            "responseTime": 1678828804140,
            "catchQuestion": "How many <b class=\"r\">red<\/b> marbles did your opponent report drawing? ",
            "catchKey": -1,
            "catchResponse": -1,
            "catchTime": 1678828715705,
            "trialTime": 0
        },
        {
            "exptPart": "trial",
            "trialNumber": 70,
            "roleCurrent": "receiver",
            "marblesSampled": 100,
            "probRed": 0.5,
            "lambda": 5,
            "drawnRed": 39,
            "reportedRed": 35,
            "inferredRed": 45,
            "playerTrialScore": -6,
            "oppTrialScore": 0,
            "playerTotalScore": -39,
            "oppTotalScore": -482,
            "waitTime": 5258.745590235566,
            "responseTime": 1678828812671,
            "catchQuestion": "How many <b class=\"r\">red<\/b> marbles did your opponent report drawing? ",
            "catchKey": -1,
            "catchResponse": -1,
            "catchTime": 1678828812671,
            "trialTime": 0
        },
        {
            "exptPart": "trial",
            "trialNumber": 71,
            "roleCurrent": "sender",
            "marblesSampled": 100,
            "probRed": 0.5,
            "lambda": 5,
            "drawnRed": 52,
            "reportedRed": 22,
            "inferredRed": 25,
            "playerTrialScore": 27,
            "oppTrialScore": -27,
            "playerTotalScore": -12,
            "oppTotalScore": -509,
            "waitTime": 2404.839167389347,
            "responseTime": 1678828856617,
            "catchQuestion": "How many <b class=\"r\">red<\/b> marbles did your opponent report drawing? ",
            "catchKey": -1,
            "catchResponse": -1,
            "catchTime": 1678828812671,
            "trialTime": 0
        },
        {
            "exptPart": "trial",
            "trialNumber": 72,
            "roleCurrent": "receiver",
            "marblesSampled": 100,
            "probRed": 0.5,
            "lambda": 5,
            "drawnRed": 9,
            "reportedRed": 3,
            "inferredRed": 30,
            "playerTrialScore": -21,
            "oppTrialScore": 0,
            "playerTotalScore": -33,
            "oppTotalScore": -509,
            "waitTime": 5721.6865798218805,
            "responseTime": 1678828870217,
            "catchQuestion": "How many <b class=\"r\">red<\/b> marbles did your opponent report drawing? ",
            "catchKey": -1,
            "catchResponse": -1,
            "catchTime": 1678828812671,
            "trialTime": 0
        },
        {
            "exptPart": "trial",
            "trialNumber": 73,
            "roleCurrent": "sender",
            "marblesSampled": 100,
            "probRed": 0.5,
            "lambda": 5,
            "drawnRed": 47,
            "reportedRed": 81,
            "inferredRed": 86,
            "playerTrialScore": 0,
            "oppTrialScore": -39,
            "playerTotalScore": -33,
            "oppTotalScore": -548,
            "waitTime": 2334.792756459062,
            "responseTime": 1678828926577,
            "catchQuestion": "How many <b class=\"r\">red<\/b> marbles did your opponent report drawing? ",
            "catchKey": -1,
            "catchResponse": -1,
            "catchTime": 1678828812671,
            "trialTime": 0
        },
        {
            "exptPart": "trial",
            "trialNumber": 74,
            "roleCurrent": "receiver",
            "marblesSampled": 100,
            "probRed": 0.5,
            "lambda": 5,
            "drawnRed": 63,
            "reportedRed": 57,
            "inferredRed": 65,
            "playerTrialScore": -2,
            "oppTrialScore": 0,
            "playerTotalScore": -35,
            "oppTotalScore": -548,
            "waitTime": 5280.649804447907,
            "responseTime": 1678828942811,
            "catchQuestion": "How many <b class=\"r\">red<\/b> marbles did your opponent report drawing? ",
            "catchKey": -1,
            "catchResponse": -1,
            "catchTime": 1678828812671,
            "trialTime": 0
        },
        {
            "exptPart": "trial",
            "trialNumber": 75,
            "roleCurrent": "sender",
            "marblesSampled": 100,
            "probRed": 0.5,
            "lambda": 5,
            "drawnRed": 33,
            "reportedRed": 54,
            "inferredRed": 57,
            "playerTrialScore": 0,
            "oppTrialScore": -24,
            "playerTotalScore": -35,
            "oppTotalScore": -572,
            "waitTime": 2225.2658507598135,
            "responseTime": 1678828972415,
            "catchQuestion": "How many <b class=\"r\">red<\/b> marbles did your opponent report drawing? ",
            "catchKey": -1,
            "catchResponse": -1,
            "catchTime": 1678828972415,
            "trialTime": 0
        },
        {
            "exptPart": "trial",
            "trialNumber": 76,
            "roleCurrent": "receiver",
            "marblesSampled": 100,
            "probRed": 0.5,
            "lambda": 5,
            "drawnRed": 70,
            "reportedRed": 66,
            "inferredRed": 76,
            "playerTrialScore": -6,
            "oppTrialScore": 0,
            "playerTotalScore": -41,
            "oppTotalScore": -572,
            "waitTime": 5926.780205838222,
            "responseTime": 1678828990355,
            "catchQuestion": "How many <b class=\"r\">red<\/b> marbles did your opponent report drawing? ",
            "catchKey": -1,
            "catchResponse": -1,
            "catchTime": 1678828972415,
            "trialTime": 0
        },
        {
            "exptPart": "trial",
            "trialNumber": 77,
            "roleCurrent": "sender",
            "marblesSampled": 100,
            "probRed": 0.5,
            "lambda": 5,
            "drawnRed": 44,
            "reportedRed": 84,
            "inferredRed": 89,
            "playerTrialScore": 0,
            "oppTrialScore": -45,
            "playerTotalScore": -41,
            "oppTotalScore": -617,
            "waitTime": 2939.342914693193,
            "responseTime": 1678829118506,
            "catchQuestion": "How many <b class=\"r\">red<\/b> marbles did your opponent report drawing? ",
            "catchKey": -1,
            "catchResponse": -1,
            "catchTime": 1678828972415,
            "trialTime": 0
        },
        {
            "exptPart": "trial",
            "trialNumber": 78,
            "roleCurrent": "receiver",
            "marblesSampled": 100,
            "probRed": 0.5,
            "lambda": 5,
            "drawnRed": 32,
            "reportedRed": 31,
            "inferredRed": 40,
            "playerTrialScore": -8,
            "oppTrialScore": 0,
            "playerTotalScore": -49,
            "oppTotalScore": -617,
            "waitTime": 7360.271855071588,
            "responseTime": 1678829130794,
            "catchQuestion": "How many <b class=\"r\">red<\/b> marbles did your opponent report drawing? ",
            "catchKey": -1,
            "catchResponse": -1,
            "catchTime": 1678828972415,
            "trialTime": 0
        },
        {
            "exptPart": "trial",
            "trialNumber": 79,
            "roleCurrent": "sender",
            "marblesSampled": 100,
            "probRed": 0.5,
            "lambda": 5,
            "drawnRed": 43,
            "reportedRed": 38,
            "inferredRed": 42,
            "playerTrialScore": 1,
            "oppTrialScore": -1,
            "playerTotalScore": -48,
            "oppTotalScore": -618,
            "waitTime": 2700.6342293337357,
            "responseTime": 1678829146255,
            "catchQuestion": "How many <b class=\"r\">red<\/b> marbles did your opponent report drawing? ",
            "catchKey": -1,
            "catchResponse": -1,
            "catchTime": 1678828972415,
            "trialTime": 0
        },
        {
            "exptPart": "trial",
            "trialNumber": 80,
            "roleCurrent": "receiver",
            "marblesSampled": 100,
            "probRed": 0.5,
            "lambda": 5,
            "drawnRed": 51,
            "reportedRed": 48,
            "inferredRed": 55,
            "playerTrialScore": -4,
            "oppTrialScore": 0,
            "playerTotalScore": -52,
            "oppTotalScore": -618,
            "waitTime": 6610.496320819997,
            "responseTime": 1678829156489,
            "catchQuestion": "How many <b class=\"r\">red<\/b> marbles did your opponent report drawing? ",
            "catchKey": -1,
            "catchResponse": -1,
            "catchTime": 1678829156489,
            "trialTime": 0
        },
        {
            "exptPart": "trial",
            "trialNumber": 81,
            "roleCurrent": "sender",
            "marblesSampled": 100,
            "probRed": 0.5,
            "lambda": 5,
            "drawnRed": 36,
            "reportedRed": 77,
            "inferredRed": 81,
            "playerTrialScore": 0,
            "oppTrialScore": -45,
            "playerTotalScore": -52,
            "oppTotalScore": -663,
            "waitTime": 2569.0701155538068,
            "responseTime": 1678829211008,
            "catchQuestion": "How many <b class=\"r\">red<\/b> marbles did your opponent report drawing? ",
            "catchKey": -1,
            "catchResponse": -1,
            "catchTime": 1678829156489,
            "trialTime": 0
        },
        {
            "exptPart": "trial",
            "trialNumber": 82,
            "roleCurrent": "receiver",
            "marblesSampled": 100,
            "probRed": 0.5,
            "lambda": 5,
            "drawnRed": 84,
            "reportedRed": 77,
            "inferredRed": 60,
            "playerTrialScore": -24,
            "oppTrialScore": 24,
            "playerTotalScore": -76,
            "oppTotalScore": -639,
            "waitTime": 6482.726598970993,
            "responseTime": 1678829225886,
            "catchQuestion": "How many <b class=\"r\">red<\/b> marbles did your opponent report drawing? ",
            "catchKey": -1,
            "catchResponse": -1,
            "catchTime": 1678829156489,
            "trialTime": 0
        },
        {
            "exptPart": "trial",
            "trialNumber": 83,
            "roleCurrent": "sender",
            "marblesSampled": 100,
            "probRed": 0.5,
            "lambda": 5,
            "drawnRed": 18,
            "reportedRed": 51,
            "inferredRed": 52,
            "playerTrialScore": 0,
            "oppTrialScore": -34,
            "playerTotalScore": -76,
            "oppTotalScore": -673,
            "waitTime": 2258.7982114943648,
            "responseTime": 1678829263687,
            "catchQuestion": "How many <b class=\"r\">red<\/b> marbles did your opponent report drawing? ",
            "catchKey": -1,
            "catchResponse": -1,
            "catchTime": 1678829156489,
            "trialTime": 0
        },
        {
            "exptPart": "trial",
            "trialNumber": 84,
            "roleCurrent": "receiver",
            "marblesSampled": 100,
            "probRed": 0.5,
            "lambda": 5,
            "drawnRed": 28,
            "reportedRed": 24,
            "inferredRed": 34,
            "playerTrialScore": -6,
            "oppTrialScore": 0,
            "playerTotalScore": -82,
            "oppTotalScore": -673,
            "waitTime": 5900.1254026853985,
            "responseTime": 1678829275812,
            "catchQuestion": "How many <b class=\"r\">red<\/b> marbles did your opponent report drawing? ",
            "catchKey": -1,
            "catchResponse": -1,
            "catchTime": 1678829156489,
            "trialTime": 0
        },
        {
            "exptPart": "trial",
            "trialNumber": 85,
            "roleCurrent": "sender",
            "marblesSampled": 100,
            "probRed": 0.5,
            "lambda": 5,
            "drawnRed": 37,
            "reportedRed": 67,
            "inferredRed": 72,
            "playerTrialScore": 0,
            "oppTrialScore": -35,
            "playerTotalScore": -82,
            "oppTotalScore": -708,
            "waitTime": 2920.368777944951,
            "responseTime": 1678829309736,
            "catchQuestion": "How many <b class=\"r\">red<\/b> marbles did your opponent report drawing? ",
            "catchKey": -1,
            "catchResponse": -1,
            "catchTime": 1678829309737,
            "trialTime": 0
        },
        {
            "exptPart": "trial",
            "trialNumber": 86,
            "roleCurrent": "receiver",
            "marblesSampled": 100,
            "probRed": 0.5,
            "lambda": 5,
            "drawnRed": 30,
            "reportedRed": 24,
            "inferredRed": 44,
            "playerTrialScore": -14,
            "oppTrialScore": 0,
            "playerTotalScore": -96,
            "oppTotalScore": -708,
            "waitTime": 5623.225937960721,
            "responseTime": 1678829345411,
            "catchQuestion": "How many <b class=\"r\">red<\/b> marbles did your opponent report drawing? ",
            "catchKey": -1,
            "catchResponse": -1,
            "catchTime": 1678829309737,
            "trialTime": 0
        },
        {
            "exptPart": "trial",
            "trialNumber": 87,
            "roleCurrent": "sender",
            "marblesSampled": 100,
            "probRed": 0.5,
            "lambda": 5,
            "drawnRed": 33,
            "reportedRed": 71,
            "inferredRed": 76,
            "playerTrialScore": 0,
            "oppTrialScore": -43,
            "playerTotalScore": -96,
            "oppTotalScore": -751,
            "waitTime": 2737.176101590792,
            "responseTime": 1678829407538,
            "catchQuestion": "How many <b class=\"r\">red<\/b> marbles did your opponent report drawing? ",
            "catchKey": -1,
            "catchResponse": -1,
            "catchTime": 1678829309737,
            "trialTime": 0
        },
        {
            "exptPart": "trial",
            "trialNumber": 88,
            "roleCurrent": "receiver",
            "marblesSampled": 100,
            "probRed": 0.5,
            "lambda": 5,
            "drawnRed": 69,
            "reportedRed": 63,
            "inferredRed": 53,
            "playerTrialScore": -16,
            "oppTrialScore": 16,
            "playerTotalScore": -112,
            "oppTotalScore": -735,
            "waitTime": 5352.382164920997,
            "responseTime": 1678829421833,
            "catchQuestion": "How many <b class=\"r\">red<\/b> marbles did your opponent report drawing? ",
            "catchKey": -1,
            "catchResponse": -1,
            "catchTime": 1678829309737,
            "trialTime": 0
        },
        {
            "exptPart": "trial",
            "trialNumber": 89,
            "roleCurrent": "sender",
            "marblesSampled": 100,
            "probRed": 0.5,
            "lambda": 5,
            "drawnRed": 52,
            "reportedRed": 65,
            "inferredRed": 67,
            "playerTrialScore": 0,
            "oppTrialScore": -15,
            "playerTotalScore": -112,
            "oppTotalScore": -750,
            "waitTime": 2076.6918630681657,
            "responseTime": 1678829445694,
            "catchQuestion": "How many <b class=\"r\">red<\/b> marbles did your opponent report drawing? ",
            "catchKey": -1,
            "catchResponse": -1,
            "catchTime": 1678829309737,
            "trialTime": 0
        },
        {
            "exptPart": "trial",
            "trialNumber": 90,
            "roleCurrent": "receiver",
            "marblesSampled": 100,
            "probRed": 0.5,
            "lambda": 5,
            "drawnRed": 80,
            "reportedRed": 75,
            "inferredRed": 86,
            "playerTrialScore": -6,
            "oppTrialScore": 0,
            "playerTotalScore": -118,
            "oppTotalScore": -750,
            "waitTime": 6318.23016113463,
            "responseTime": 1678829457918,
            "catchQuestion": "How many <b class=\"r\">red<\/b> marbles did your opponent report drawing? ",
            "catchKey": -1,
            "catchResponse": -1,
            "catchTime": 1678829457918,
            "trialTime": 0
        },
        {
            "exptPart": "trial",
            "trialNumber": 91,
            "roleCurrent": "sender",
            "marblesSampled": 100,
            "probRed": 0.5,
            "lambda": 5,
            "drawnRed": 70,
            "reportedRed": 39,
            "inferredRed": 46,
            "playerTrialScore": 24,
            "oppTrialScore": -24,
            "playerTotalScore": -94,
            "oppTotalScore": -774,
            "waitTime": 2591.8254120743113,
            "responseTime": 1678829496466,
            "catchQuestion": "How many <b class=\"r\">red<\/b> marbles did your opponent report drawing? ",
            "catchKey": -1,
            "catchResponse": -1,
            "catchTime": 1678829457918,
            "trialTime": 0
        },
        {
            "exptPart": "trial",
            "trialNumber": 92,
            "roleCurrent": "receiver",
            "marblesSampled": 100,
            "probRed": 0.5,
            "lambda": 5,
            "drawnRed": 25,
            "reportedRed": 21,
            "inferredRed": 35,
            "playerTrialScore": -10,
            "oppTrialScore": 0,
            "playerTotalScore": -104,
            "oppTotalScore": -774,
            "waitTime": 5560.858382902621,
            "responseTime": 1678829509458,
            "catchQuestion": "How many <b class=\"r\">red<\/b> marbles did your opponent report drawing? ",
            "catchKey": -1,
            "catchResponse": -1,
            "catchTime": 1678829457918,
            "trialTime": 0
        },
        {
            "exptPart": "trial",
            "trialNumber": 93,
            "roleCurrent": "sender",
            "marblesSampled": 100,
            "probRed": 0.5,
            "lambda": 5,
            "drawnRed": 46,
            "reportedRed": 46,
            "inferredRed": 50,
            "playerTrialScore": 0,
            "oppTrialScore": -4,
            "playerTotalScore": -104,
            "oppTotalScore": -778,
            "waitTime": 3009.25692344425,
            "responseTime": 1678829518092,
            "catchQuestion": "How many <b class=\"r\">red<\/b> marbles did your opponent report drawing? ",
            "catchKey": -1,
            "catchResponse": -1,
            "catchTime": 1678829457918,
            "trialTime": 0
        },
        {
            "exptPart": "trial",
            "trialNumber": 94,
            "roleCurrent": "receiver",
            "marblesSampled": 100,
            "probRed": 0.5,
            "lambda": 5,
            "drawnRed": 32,
            "reportedRed": 28,
            "inferredRed": 38,
            "playerTrialScore": -6,
            "oppTrialScore": 0,
            "playerTotalScore": -110,
            "oppTotalScore": -778,
            "waitTime": 5249.581346143466,
            "responseTime": 1678829526698,
            "catchQuestion": "How many <b class=\"r\">red<\/b> marbles did your opponent report drawing? ",
            "catchKey": -1,
            "catchResponse": -1,
            "catchTime": 1678829457918,
            "trialTime": 0
        },
        {
            "exptPart": "trial",
            "trialNumber": 95,
            "roleCurrent": "sender",
            "marblesSampled": 100,
            "probRed": 0.5,
            "lambda": 5,
            "drawnRed": 89,
            "reportedRed": 89,
            "inferredRed": 92,
            "playerTrialScore": 0,
            "oppTrialScore": -3,
            "playerTotalScore": -110,
            "oppTotalScore": -781,
            "waitTime": 3060.9555063462035,
            "responseTime": 1678829535740,
            "catchQuestion": "How many <b class=\"r\">red<\/b> marbles did your opponent report drawing? ",
            "catchKey": -1,
            "catchResponse": -1,
            "catchTime": 1678829535741,
            "trialTime": 0
        },
        {
            "exptPart": "trial",
            "trialNumber": 96,
            "roleCurrent": "receiver",
            "marblesSampled": 100,
            "probRed": 0.5,
            "lambda": 5,
            "drawnRed": 64,
            "reportedRed": 62,
            "inferredRed": 65,
            "playerTrialScore": -1,
            "oppTrialScore": 0,
            "playerTotalScore": -111,
            "oppTotalScore": -781,
            "waitTime": 6323.2555243764355,
            "responseTime": 1678829554077,
            "catchQuestion": "How many <b class=\"r\">red<\/b> marbles did your opponent report drawing? ",
            "catchKey": -1,
            "catchResponse": -1,
            "catchTime": 1678829535741,
            "trialTime": 0
        },
        {
            "exptPart": "trial",
            "trialNumber": 97,
            "roleCurrent": "sender",
            "marblesSampled": 100,
            "probRed": 0.5,
            "lambda": 5,
            "drawnRed": 29,
            "reportedRed": 35,
            "inferredRed": 41,
            "playerTrialScore": 0,
            "oppTrialScore": -12,
            "playerTotalScore": -111,
            "oppTotalScore": -793,
            "waitTime": 2653.918166610217,
            "responseTime": 1678829568805,
            "catchQuestion": "How many <b class=\"r\">red<\/b> marbles did you actually draw (before any changes)? ",
            "catchKey": 29,
            "catchResponse": 29,
            "catchTime": 1678829568805,
            "trialTime": 0
        },
        {
            "exptPart": "trial",
            "trialNumber": 98,
            "roleCurrent": "receiver",
            "marblesSampled": 100,
            "probRed": 0.5,
            "lambda": 5,
            "drawnRed": 37,
            "reportedRed": 31,
            "inferredRed": 41,
            "playerTrialScore": -4,
            "oppTrialScore": 0,
            "playerTotalScore": -115,
            "oppTotalScore": -793,
            "waitTime": 7028.733477470154,
            "responseTime": 1678829585543,
            "catchQuestion": "How many <b class=\"r\">red<\/b> marbles did you actually draw (before any changes)? ",
            "catchKey": -1,
            "catchResponse": -1,
            "catchTime": 1678829568805,
            "trialTime": 0
        },
        {
            "exptPart": "trial",
            "trialNumber": 99,
            "roleCurrent": "sender",
            "marblesSampled": 100,
            "probRed": 0.5,
            "lambda": 5,
            "drawnRed": 60,
            "reportedRed": 91,
            "inferredRed": 99,
            "playerTrialScore": 0,
            "oppTrialScore": -39,
            "playerTotalScore": -115,
            "oppTotalScore": -832,
            "waitTime": 2581.8439063252767,
            "responseTime": 1678829617172,
            "catchQuestion": "How many <b class=\"r\">red<\/b> marbles did you actually draw (before any changes)? ",
            "catchKey": -1,
            "catchResponse": -1,
            "catchTime": 1678829568805,
            "trialTime": 0
        },
        {
            "exptPart": "trial",
            "trialNumber": 100,
            "roleCurrent": "receiver",
            "marblesSampled": 100,
            "probRed": 0.5,
            "lambda": 5,
            "drawnRed": 47,
            "reportedRed": 40,
            "inferredRed": 50,
            "playerTrialScore": -3,
            "oppTrialScore": 0,
            "playerTotalScore": -118,
            "oppTotalScore": -832,
            "waitTime": 5729.100850044273,
            "responseTime": 1678829627544,
            "catchQuestion": "How many <b class=\"r\">red<\/b> marbles did you actually draw (before any changes)? ",
            "catchKey": -1,
            "catchResponse": -1,
            "catchTime": 1678829627544,
            "trialTime": 0
        }
    ]
}