{
    "client": {
        "type": "sona",
        "experiment_id": 2228,
        "credit_token": "b315147ae43241ea9c65086cb510cfb7",
        "survey_code": "47750",
        "sid": "sona-47750",
        "window": {
            "width": 1920,
            "height": 1096
        },
        "screen": {
            "width": 1920,
            "height": 1200
        },
        "userAgent": "Mozilla\/5.0 (Macintosh; Intel Mac OS X 10_15_7) AppleWebKit\/537.36 (KHTML, like Gecko) Chrome\/110.0.0.0 Safari\/537.36",
        "score": 0,
        "bonus": 0
    },
    "expt": {
        "saveURL": "submit.simple.php",
        "trials": 100,
        "practiceTrials": 2,
        "marblesSampled": 100,
        "probRed": 0.5,
        "lambdaAI": 5,
        "roleFirst": "sender",
        "roles": [
            "sender",
            "receiver"
        ],
        "cost": "unif",
        "goal": "under",
        "goalInstructTxt": "above",
        "catchTrials": [
            19,
            88,
            2,
            14,
            16,
            42,
            83,
            0,
            31,
            71
        ],
        "scoreTotal": {
            "player": -115,
            "opp": -169
        },
        "sona": {
            "experiment_id": 2228,
            "credit_token": "b315147ae43241ea9c65086cb510cfb7"
        },
        "pilot": false,
        "debug": false
    },
    "trials": [
        {
            "exptPart": "practice",
            "trialNumber": 1,
            "roleCurrent": "sender",
            "marblesSampled": 100,
            "probRed": 0.5,
            "lambda": 5,
            "drawnRed": 54,
            "reportedRed": 54,
            "inferredRed": 56,
            "playerTrialScore": 0,
            "oppTrialScore": -2,
            "playerTotalScore": 0,
            "oppTotalScore": -2,
            "waitTime": 2514.407944638643,
            "responseTime": 1680626586803,
            "catchQuestion": "How many <b class=\"r\">red<\/b> marbles did you actually draw (before any changes)? ",
            "catchKey": 54,
            "catchResponse": 54,
            "catchTime": 1680626586803,
            "trialTime": 0
        },
        {
            "exptPart": "practice",
            "trialNumber": 2,
            "roleCurrent": "receiver",
            "marblesSampled": 100,
            "probRed": 0.5,
            "lambda": 5,
            "drawnRed": 14,
            "reportedRed": 10,
            "inferredRed": 10,
            "playerTrialScore": -4,
            "oppTrialScore": 4,
            "playerTotalScore": -4,
            "oppTotalScore": 2,
            "waitTime": 5608.0406119786585,
            "responseTime": 1680626622872,
            "catchQuestion": "How many <b class=\"r\">red<\/b> marbles did your opponent report drawing? ",
            "catchKey": 10,
            "catchResponse": 10,
            "catchTime": 1680626622872,
            "trialTime": 0
        },
        {
            "exptPart": "trial",
            "trialNumber": 1,
            "roleCurrent": "sender",
            "marblesSampled": 100,
            "probRed": 0.5,
            "lambda": 5,
            "drawnRed": 21,
            "reportedRed": 21,
            "inferredRed": 26,
            "playerTrialScore": 0,
            "oppTrialScore": -5,
            "playerTotalScore": 0,
            "oppTotalScore": -5,
            "waitTime": 3059.359843519514,
            "responseTime": 1680626650088,
            "catchQuestion": "How many <b class=\"r\">red<\/b> marbles did you actually draw (before any changes)? ",
            "catchKey": 21,
            "catchResponse": 21,
            "catchTime": 1680626650088,
            "trialTime": 0
        },
        {
            "exptPart": "trial",
            "trialNumber": 2,
            "roleCurrent": "receiver",
            "marblesSampled": 100,
            "probRed": 0.5,
            "lambda": 5,
            "drawnRed": 78,
            "reportedRed": 77,
            "inferredRed": 80,
            "playerTrialScore": -2,
            "oppTrialScore": 0,
            "playerTotalScore": -2,
            "oppTotalScore": -5,
            "waitTime": 5455.028271810232,
            "responseTime": 1680626676237,
            "catchQuestion": "How many <b class=\"r\">red<\/b> marbles did you actually draw (before any changes)? ",
            "catchKey": -1,
            "catchResponse": -1,
            "catchTime": 1680626650088,
            "trialTime": 0
        },
        {
            "exptPart": "trial",
            "trialNumber": 3,
            "roleCurrent": "sender",
            "marblesSampled": 100,
            "probRed": 0.5,
            "lambda": 5,
            "drawnRed": 15,
            "reportedRed": 15,
            "inferredRed": 20,
            "playerTrialScore": 0,
            "oppTrialScore": -5,
            "playerTotalScore": -2,
            "oppTotalScore": -10,
            "waitTime": 2392.0549191084365,
            "responseTime": 1680626691278,
            "catchQuestion": "How many <b class=\"r\">red<\/b> marbles did you actually draw (before any changes)? ",
            "catchKey": 15,
            "catchResponse": 15,
            "catchTime": 1680626691278,
            "trialTime": 0
        },
        {
            "exptPart": "trial",
            "trialNumber": 4,
            "roleCurrent": "receiver",
            "marblesSampled": 100,
            "probRed": 0.5,
            "lambda": 5,
            "drawnRed": 58,
            "reportedRed": 54,
            "inferredRed": 60,
            "playerTrialScore": -2,
            "oppTrialScore": 0,
            "playerTotalScore": -4,
            "oppTotalScore": -10,
            "waitTime": 5189.500066007804,
            "responseTime": 1680626745444,
            "catchQuestion": "How many <b class=\"r\">red<\/b> marbles did you actually draw (before any changes)? ",
            "catchKey": -1,
            "catchResponse": -1,
            "catchTime": 1680626691278,
            "trialTime": 0
        },
        {
            "exptPart": "trial",
            "trialNumber": 5,
            "roleCurrent": "sender",
            "marblesSampled": 100,
            "probRed": 0.5,
            "lambda": 5,
            "drawnRed": 60,
            "reportedRed": 60,
            "inferredRed": 64,
            "playerTrialScore": 0,
            "oppTrialScore": -4,
            "playerTotalScore": -4,
            "oppTotalScore": -14,
            "waitTime": 3202.6416163477234,
            "responseTime": 1680626754730,
            "catchQuestion": "How many <b class=\"r\">red<\/b> marbles did you actually draw (before any changes)? ",
            "catchKey": -1,
            "catchResponse": -1,
            "catchTime": 1680626754730,
            "trialTime": 0
        },
        {
            "exptPart": "trial",
            "trialNumber": 6,
            "roleCurrent": "receiver",
            "marblesSampled": 100,
            "probRed": 0.5,
            "lambda": 5,
            "drawnRed": 79,
            "reportedRed": 77,
            "inferredRed": 80,
            "playerTrialScore": -1,
            "oppTrialScore": 0,
            "playerTotalScore": -5,
            "oppTotalScore": -14,
            "waitTime": 6112.99339965304,
            "responseTime": 1680626771621,
            "catchQuestion": "How many <b class=\"r\">red<\/b> marbles did you actually draw (before any changes)? ",
            "catchKey": -1,
            "catchResponse": -1,
            "catchTime": 1680626754730,
            "trialTime": 0
        },
        {
            "exptPart": "trial",
            "trialNumber": 7,
            "roleCurrent": "sender",
            "marblesSampled": 100,
            "probRed": 0.5,
            "lambda": 5,
            "drawnRed": 76,
            "reportedRed": 76,
            "inferredRed": 83,
            "playerTrialScore": 0,
            "oppTrialScore": -7,
            "playerTotalScore": -5,
            "oppTotalScore": -21,
            "waitTime": 2904.731016737456,
            "responseTime": 1680626783447,
            "catchQuestion": "How many <b class=\"r\">red<\/b> marbles did you actually draw (before any changes)? ",
            "catchKey": -1,
            "catchResponse": -1,
            "catchTime": 1680626754730,
            "trialTime": 0
        },
        {
            "exptPart": "trial",
            "trialNumber": 8,
            "roleCurrent": "receiver",
            "marblesSampled": 100,
            "probRed": 0.5,
            "lambda": 5,
            "drawnRed": 55,
            "reportedRed": 50,
            "inferredRed": 54,
            "playerTrialScore": -1,
            "oppTrialScore": 1,
            "playerTotalScore": -6,
            "oppTotalScore": -20,
            "waitTime": 7052.039364022999,
            "responseTime": 1680626796304,
            "catchQuestion": "How many <b class=\"r\">red<\/b> marbles did you actually draw (before any changes)? ",
            "catchKey": -1,
            "catchResponse": -1,
            "catchTime": 1680626754730,
            "trialTime": 0
        },
        {
            "exptPart": "trial",
            "trialNumber": 9,
            "roleCurrent": "sender",
            "marblesSampled": 100,
            "probRed": 0.5,
            "lambda": 5,
            "drawnRed": 67,
            "reportedRed": 67,
            "inferredRed": 75,
            "playerTrialScore": 0,
            "oppTrialScore": -8,
            "playerTotalScore": -6,
            "oppTotalScore": -28,
            "waitTime": 2700.0744515689685,
            "responseTime": 1680626804425,
            "catchQuestion": "How many <b class=\"r\">red<\/b> marbles did you actually draw (before any changes)? ",
            "catchKey": -1,
            "catchResponse": -1,
            "catchTime": 1680626754730,
            "trialTime": 0
        },
        {
            "exptPart": "trial",
            "trialNumber": 10,
            "roleCurrent": "receiver",
            "marblesSampled": 100,
            "probRed": 0.5,
            "lambda": 5,
            "drawnRed": 39,
            "reportedRed": 32,
            "inferredRed": 37,
            "playerTrialScore": -2,
            "oppTrialScore": 2,
            "playerTotalScore": -8,
            "oppTotalScore": -26,
            "waitTime": 5999.248878649065,
            "responseTime": 1680626817802,
            "catchQuestion": "How many <b class=\"r\">red<\/b> marbles did you actually draw (before any changes)? ",
            "catchKey": -1,
            "catchResponse": -1,
            "catchTime": 1680626817802,
            "trialTime": 0
        },
        {
            "exptPart": "trial",
            "trialNumber": 11,
            "roleCurrent": "sender",
            "marblesSampled": 100,
            "probRed": 0.5,
            "lambda": 5,
            "drawnRed": 40,
            "reportedRed": 40,
            "inferredRed": 47,
            "playerTrialScore": 0,
            "oppTrialScore": -7,
            "playerTotalScore": -8,
            "oppTotalScore": -33,
            "waitTime": 2123.3169791742466,
            "responseTime": 1680626830641,
            "catchQuestion": "How many <b class=\"r\">red<\/b> marbles did you actually draw (before any changes)? ",
            "catchKey": -1,
            "catchResponse": -1,
            "catchTime": 1680626817802,
            "trialTime": 0
        },
        {
            "exptPart": "trial",
            "trialNumber": 12,
            "roleCurrent": "receiver",
            "marblesSampled": 100,
            "probRed": 0.5,
            "lambda": 5,
            "drawnRed": 71,
            "reportedRed": 63,
            "inferredRed": 67,
            "playerTrialScore": -4,
            "oppTrialScore": 4,
            "playerTotalScore": -12,
            "oppTotalScore": -29,
            "waitTime": 7383.5789141715895,
            "responseTime": 1680626843831,
            "catchQuestion": "How many <b class=\"r\">red<\/b> marbles did you actually draw (before any changes)? ",
            "catchKey": -1,
            "catchResponse": -1,
            "catchTime": 1680626817802,
            "trialTime": 0
        },
        {
            "exptPart": "trial",
            "trialNumber": 13,
            "roleCurrent": "sender",
            "marblesSampled": 100,
            "probRed": 0.5,
            "lambda": 5,
            "drawnRed": 33,
            "reportedRed": 33,
            "inferredRed": 36,
            "playerTrialScore": 0,
            "oppTrialScore": -3,
            "playerTotalScore": -12,
            "oppTotalScore": -32,
            "waitTime": 3012.3862306305527,
            "responseTime": 1680626852068,
            "catchQuestion": "How many <b class=\"r\">red<\/b> marbles did you actually draw (before any changes)? ",
            "catchKey": -1,
            "catchResponse": -1,
            "catchTime": 1680626817802,
            "trialTime": 0
        },
        {
            "exptPart": "trial",
            "trialNumber": 14,
            "roleCurrent": "receiver",
            "marblesSampled": 100,
            "probRed": 0.5,
            "lambda": 5,
            "drawnRed": 60,
            "reportedRed": 54,
            "inferredRed": 58,
            "playerTrialScore": -2,
            "oppTrialScore": 2,
            "playerTotalScore": -14,
            "oppTotalScore": -30,
            "waitTime": 5802.357170716075,
            "responseTime": 1680626862991,
            "catchQuestion": "How many <b class=\"r\">red<\/b> marbles did you actually draw (before any changes)? ",
            "catchKey": -1,
            "catchResponse": -1,
            "catchTime": 1680626817802,
            "trialTime": 0
        },
        {
            "exptPart": "trial",
            "trialNumber": 15,
            "roleCurrent": "sender",
            "marblesSampled": 100,
            "probRed": 0.5,
            "lambda": 5,
            "drawnRed": 59,
            "reportedRed": 59,
            "inferredRed": 63,
            "playerTrialScore": 0,
            "oppTrialScore": -4,
            "playerTotalScore": -14,
            "oppTotalScore": -34,
            "waitTime": 3248.2000701569536,
            "responseTime": 1680626874233,
            "catchQuestion": "How many <b class=\"r\">red<\/b> marbles did you actually draw (before any changes)? ",
            "catchKey": 59,
            "catchResponse": 54,
            "catchTime": 1680626874233,
            "trialTime": 0
        },
        {
            "exptPart": "trial",
            "trialNumber": 16,
            "roleCurrent": "receiver",
            "marblesSampled": 100,
            "probRed": 0.5,
            "lambda": 5,
            "drawnRed": 50,
            "reportedRed": 45,
            "inferredRed": 50,
            "playerTrialScore": 0,
            "oppTrialScore": 0,
            "playerTotalScore": -14,
            "oppTotalScore": -34,
            "waitTime": 6759.750662472659,
            "responseTime": 1680626900546,
            "catchQuestion": "How many <b class=\"r\">red<\/b> marbles did you actually draw (before any changes)? ",
            "catchKey": -1,
            "catchResponse": -1,
            "catchTime": 1680626874233,
            "trialTime": 0
        },
        {
            "exptPart": "trial",
            "trialNumber": 17,
            "roleCurrent": "sender",
            "marblesSampled": 100,
            "probRed": 0.5,
            "lambda": 5,
            "drawnRed": 74,
            "reportedRed": 74,
            "inferredRed": 80,
            "playerTrialScore": 0,
            "oppTrialScore": -6,
            "playerTotalScore": -14,
            "oppTotalScore": -40,
            "waitTime": 2759.382893576323,
            "responseTime": 1680626908049,
            "catchQuestion": "How many <b class=\"r\">red<\/b> marbles did you actually draw (before any changes)? ",
            "catchKey": 74,
            "catchResponse": 74,
            "catchTime": 1680626908049,
            "trialTime": 0
        },
        {
            "exptPart": "trial",
            "trialNumber": 18,
            "roleCurrent": "receiver",
            "marblesSampled": 100,
            "probRed": 0.5,
            "lambda": 5,
            "drawnRed": 29,
            "reportedRed": 24,
            "inferredRed": 28,
            "playerTrialScore": -1,
            "oppTrialScore": 1,
            "playerTotalScore": -15,
            "oppTotalScore": -39,
            "waitTime": 7111.094077032867,
            "responseTime": 1680626925827,
            "catchQuestion": "How many <b class=\"r\">red<\/b> marbles did you actually draw (before any changes)? ",
            "catchKey": -1,
            "catchResponse": -1,
            "catchTime": 1680626908049,
            "trialTime": 0
        },
        {
            "exptPart": "trial",
            "trialNumber": 19,
            "roleCurrent": "sender",
            "marblesSampled": 100,
            "probRed": 0.5,
            "lambda": 5,
            "drawnRed": 78,
            "reportedRed": 78,
            "inferredRed": 87,
            "playerTrialScore": 0,
            "oppTrialScore": -9,
            "playerTotalScore": -15,
            "oppTotalScore": -48,
            "waitTime": 2316.840621464561,
            "responseTime": 1680626933448,
            "catchQuestion": "How many <b class=\"r\">red<\/b> marbles did you actually draw (before any changes)? ",
            "catchKey": -1,
            "catchResponse": -1,
            "catchTime": 1680626908049,
            "trialTime": 0
        },
        {
            "exptPart": "trial",
            "trialNumber": 20,
            "roleCurrent": "receiver",
            "marblesSampled": 100,
            "probRed": 0.5,
            "lambda": 5,
            "drawnRed": 32,
            "reportedRed": 32,
            "inferredRed": 35,
            "playerTrialScore": -3,
            "oppTrialScore": 0,
            "playerTotalScore": -18,
            "oppTotalScore": -48,
            "waitTime": 5282.029800412467,
            "responseTime": 1680626942288,
            "catchQuestion": "How many <b class=\"r\">red<\/b> marbles did your opponent report drawing? ",
            "catchKey": 32,
            "catchResponse": 32,
            "catchTime": 1680626942289,
            "trialTime": 0
        },
        {
            "exptPart": "trial",
            "trialNumber": 21,
            "roleCurrent": "sender",
            "marblesSampled": 100,
            "probRed": 0.5,
            "lambda": 5,
            "drawnRed": 66,
            "reportedRed": 66,
            "inferredRed": 67,
            "playerTrialScore": 0,
            "oppTrialScore": -1,
            "playerTotalScore": -18,
            "oppTotalScore": -49,
            "waitTime": 2369.789881273551,
            "responseTime": 1680626956278,
            "catchQuestion": "How many <b class=\"r\">red<\/b> marbles did your opponent report drawing? ",
            "catchKey": -1,
            "catchResponse": -1,
            "catchTime": 1680626942289,
            "trialTime": 0
        },
        {
            "exptPart": "trial",
            "trialNumber": 22,
            "roleCurrent": "receiver",
            "marblesSampled": 100,
            "probRed": 0.5,
            "lambda": 5,
            "drawnRed": 73,
            "reportedRed": 69,
            "inferredRed": 70,
            "playerTrialScore": -3,
            "oppTrialScore": 3,
            "playerTotalScore": -21,
            "oppTotalScore": -46,
            "waitTime": 7484.265185920972,
            "responseTime": 1680626971474,
            "catchQuestion": "How many <b class=\"r\">red<\/b> marbles did your opponent report drawing? ",
            "catchKey": -1,
            "catchResponse": -1,
            "catchTime": 1680626942289,
            "trialTime": 0
        },
        {
            "exptPart": "trial",
            "trialNumber": 23,
            "roleCurrent": "sender",
            "marblesSampled": 100,
            "probRed": 0.5,
            "lambda": 5,
            "drawnRed": 50,
            "reportedRed": 50,
            "inferredRed": 53,
            "playerTrialScore": 0,
            "oppTrialScore": -3,
            "playerTotalScore": -21,
            "oppTotalScore": -49,
            "waitTime": 2242.226801436164,
            "responseTime": 1680626979508,
            "catchQuestion": "How many <b class=\"r\">red<\/b> marbles did your opponent report drawing? ",
            "catchKey": -1,
            "catchResponse": -1,
            "catchTime": 1680626942289,
            "trialTime": 0
        },
        {
            "exptPart": "trial",
            "trialNumber": 24,
            "roleCurrent": "receiver",
            "marblesSampled": 100,
            "probRed": 0.5,
            "lambda": 5,
            "drawnRed": 54,
            "reportedRed": 51,
            "inferredRed": 54,
            "playerTrialScore": 0,
            "oppTrialScore": 0,
            "playerTotalScore": -21,
            "oppTotalScore": -49,
            "waitTime": 5359.310151333442,
            "responseTime": 1680626994816,
            "catchQuestion": "How many <b class=\"r\">red<\/b> marbles did your opponent report drawing? ",
            "catchKey": -1,
            "catchResponse": -1,
            "catchTime": 1680626942289,
            "trialTime": 0
        },
        {
            "exptPart": "trial",
            "trialNumber": 25,
            "roleCurrent": "sender",
            "marblesSampled": 100,
            "probRed": 0.5,
            "lambda": 5,
            "drawnRed": 55,
            "reportedRed": 55,
            "inferredRed": 62,
            "playerTrialScore": 0,
            "oppTrialScore": -7,
            "playerTotalScore": -21,
            "oppTotalScore": -56,
            "waitTime": 2834.534193786838,
            "responseTime": 1680627003071,
            "catchQuestion": "How many <b class=\"r\">red<\/b> marbles did your opponent report drawing? ",
            "catchKey": -1,
            "catchResponse": -1,
            "catchTime": 1680627003071,
            "trialTime": 0
        },
        {
            "exptPart": "trial",
            "trialNumber": 26,
            "roleCurrent": "receiver",
            "marblesSampled": 100,
            "probRed": 0.5,
            "lambda": 5,
            "drawnRed": 34,
            "reportedRed": 29,
            "inferredRed": 33,
            "playerTrialScore": -1,
            "oppTrialScore": 1,
            "playerTotalScore": -22,
            "oppTotalScore": -55,
            "waitTime": 6145.267291201615,
            "responseTime": 1680627016995,
            "catchQuestion": "How many <b class=\"r\">red<\/b> marbles did your opponent report drawing? ",
            "catchKey": -1,
            "catchResponse": -1,
            "catchTime": 1680627003071,
            "trialTime": 0
        },
        {
            "exptPart": "trial",
            "trialNumber": 27,
            "roleCurrent": "sender",
            "marblesSampled": 100,
            "probRed": 0.5,
            "lambda": 5,
            "drawnRed": 72,
            "reportedRed": 72,
            "inferredRed": 76,
            "playerTrialScore": 0,
            "oppTrialScore": -4,
            "playerTotalScore": -22,
            "oppTotalScore": -59,
            "waitTime": 2288.6077101386927,
            "responseTime": 1680627024616,
            "catchQuestion": "How many <b class=\"r\">red<\/b> marbles did your opponent report drawing? ",
            "catchKey": -1,
            "catchResponse": -1,
            "catchTime": 1680627003071,
            "trialTime": 0
        },
        {
            "exptPart": "trial",
            "trialNumber": 28,
            "roleCurrent": "receiver",
            "marblesSampled": 100,
            "probRed": 0.5,
            "lambda": 5,
            "drawnRed": 16,
            "reportedRed": 12,
            "inferredRed": 15,
            "playerTrialScore": -1,
            "oppTrialScore": 1,
            "playerTotalScore": -23,
            "oppTotalScore": -58,
            "waitTime": 7178.864219824406,
            "responseTime": 1680627036522,
            "catchQuestion": "How many <b class=\"r\">red<\/b> marbles did your opponent report drawing? ",
            "catchKey": -1,
            "catchResponse": -1,
            "catchTime": 1680627003071,
            "trialTime": 0
        },
        {
            "exptPart": "trial",
            "trialNumber": 29,
            "roleCurrent": "sender",
            "marblesSampled": 100,
            "probRed": 0.5,
            "lambda": 5,
            "drawnRed": 73,
            "reportedRed": 73,
            "inferredRed": 84,
            "playerTrialScore": 0,
            "oppTrialScore": -11,
            "playerTotalScore": -23,
            "oppTotalScore": -69,
            "waitTime": 2396.6508895603247,
            "responseTime": 1680627042926,
            "catchQuestion": "How many <b class=\"r\">red<\/b> marbles did your opponent report drawing? ",
            "catchKey": -1,
            "catchResponse": -1,
            "catchTime": 1680627003071,
            "trialTime": 0
        },
        {
            "exptPart": "trial",
            "trialNumber": 30,
            "roleCurrent": "receiver",
            "marblesSampled": 100,
            "probRed": 0.5,
            "lambda": 5,
            "drawnRed": 33,
            "reportedRed": 28,
            "inferredRed": 32,
            "playerTrialScore": -1,
            "oppTrialScore": 1,
            "playerTotalScore": -24,
            "oppTotalScore": -68,
            "waitTime": 5415.766149279625,
            "responseTime": 1680627053481,
            "catchQuestion": "How many <b class=\"r\">red<\/b> marbles did your opponent report drawing? ",
            "catchKey": -1,
            "catchResponse": -1,
            "catchTime": 1680627053481,
            "trialTime": 0
        },
        {
            "exptPart": "trial",
            "trialNumber": 31,
            "roleCurrent": "sender",
            "marblesSampled": 100,
            "probRed": 0.5,
            "lambda": 5,
            "drawnRed": 87,
            "reportedRed": 87,
            "inferredRed": 90,
            "playerTrialScore": 0,
            "oppTrialScore": -3,
            "playerTotalScore": -24,
            "oppTotalScore": -71,
            "waitTime": 2438.298132380055,
            "responseTime": 1680627066973,
            "catchQuestion": "How many <b class=\"r\">red<\/b> marbles did your opponent report drawing? ",
            "catchKey": -1,
            "catchResponse": -1,
            "catchTime": 1680627053481,
            "trialTime": 0
        },
        {
            "exptPart": "trial",
            "trialNumber": 32,
            "roleCurrent": "receiver",
            "marblesSampled": 100,
            "probRed": 0.5,
            "lambda": 5,
            "drawnRed": 69,
            "reportedRed": 66,
            "inferredRed": 68,
            "playerTrialScore": -1,
            "oppTrialScore": 1,
            "playerTotalScore": -25,
            "oppTotalScore": -70,
            "waitTime": 6900.124920726035,
            "responseTime": 1680627078864,
            "catchQuestion": "How many <b class=\"r\">red<\/b> marbles did your opponent report drawing? ",
            "catchKey": 66,
            "catchResponse": 66,
            "catchTime": 1680627078864,
            "trialTime": 0
        },
        {
            "exptPart": "trial",
            "trialNumber": 33,
            "roleCurrent": "sender",
            "marblesSampled": 100,
            "probRed": 0.5,
            "lambda": 5,
            "drawnRed": 59,
            "reportedRed": 59,
            "inferredRed": 65,
            "playerTrialScore": 0,
            "oppTrialScore": -6,
            "playerTotalScore": -25,
            "oppTotalScore": -76,
            "waitTime": 2797.377260400209,
            "responseTime": 1680627092088,
            "catchQuestion": "How many <b class=\"r\">red<\/b> marbles did your opponent report drawing? ",
            "catchKey": -1,
            "catchResponse": -1,
            "catchTime": 1680627078864,
            "trialTime": 0
        },
        {
            "exptPart": "trial",
            "trialNumber": 34,
            "roleCurrent": "receiver",
            "marblesSampled": 100,
            "probRed": 0.5,
            "lambda": 5,
            "drawnRed": 63,
            "reportedRed": 59,
            "inferredRed": 62,
            "playerTrialScore": -1,
            "oppTrialScore": 1,
            "playerTotalScore": -26,
            "oppTotalScore": -75,
            "waitTime": 5371.825730531743,
            "responseTime": 1680627103810,
            "catchQuestion": "How many <b class=\"r\">red<\/b> marbles did your opponent report drawing? ",
            "catchKey": -1,
            "catchResponse": -1,
            "catchTime": 1680627078864,
            "trialTime": 0
        },
        {
            "exptPart": "trial",
            "trialNumber": 35,
            "roleCurrent": "sender",
            "marblesSampled": 100,
            "probRed": 0.5,
            "lambda": 5,
            "drawnRed": 43,
            "reportedRed": 43,
            "inferredRed": 53,
            "playerTrialScore": 0,
            "oppTrialScore": -10,
            "playerTotalScore": -26,
            "oppTotalScore": -85,
            "waitTime": 2111.6265197573207,
            "responseTime": 1680627110798,
            "catchQuestion": "How many <b class=\"r\">red<\/b> marbles did your opponent report drawing? ",
            "catchKey": -1,
            "catchResponse": -1,
            "catchTime": 1680627110798,
            "trialTime": 0
        },
        {
            "exptPart": "trial",
            "trialNumber": 36,
            "roleCurrent": "receiver",
            "marblesSampled": 100,
            "probRed": 0.5,
            "lambda": 5,
            "drawnRed": 54,
            "reportedRed": 49,
            "inferredRed": 52,
            "playerTrialScore": -2,
            "oppTrialScore": 2,
            "playerTotalScore": -28,
            "oppTotalScore": -83,
            "waitTime": 5820.821441146596,
            "responseTime": 1680627124424,
            "catchQuestion": "How many <b class=\"r\">red<\/b> marbles did your opponent report drawing? ",
            "catchKey": -1,
            "catchResponse": -1,
            "catchTime": 1680627110798,
            "trialTime": 0
        },
        {
            "exptPart": "trial",
            "trialNumber": 37,
            "roleCurrent": "sender",
            "marblesSampled": 100,
            "probRed": 0.5,
            "lambda": 5,
            "drawnRed": 64,
            "reportedRed": 64,
            "inferredRed": 68,
            "playerTrialScore": 0,
            "oppTrialScore": -4,
            "playerTotalScore": -28,
            "oppTotalScore": -87,
            "waitTime": 2195.1839684770484,
            "responseTime": 1680627132228,
            "catchQuestion": "How many <b class=\"r\">red<\/b> marbles did your opponent report drawing? ",
            "catchKey": -1,
            "catchResponse": -1,
            "catchTime": 1680627110798,
            "trialTime": 0
        },
        {
            "exptPart": "trial",
            "trialNumber": 38,
            "roleCurrent": "receiver",
            "marblesSampled": 100,
            "probRed": 0.5,
            "lambda": 5,
            "drawnRed": 71,
            "reportedRed": 63,
            "inferredRed": 66,
            "playerTrialScore": -5,
            "oppTrialScore": 5,
            "playerTotalScore": -33,
            "oppTotalScore": -82,
            "waitTime": 7206.129233514176,
            "responseTime": 1680627145383,
            "catchQuestion": "How many <b class=\"r\">red<\/b> marbles did your opponent report drawing? ",
            "catchKey": -1,
            "catchResponse": -1,
            "catchTime": 1680627110798,
            "trialTime": 0
        },
        {
            "exptPart": "trial",
            "trialNumber": 39,
            "roleCurrent": "sender",
            "marblesSampled": 100,
            "probRed": 0.5,
            "lambda": 5,
            "drawnRed": 80,
            "reportedRed": 80,
            "inferredRed": 83,
            "playerTrialScore": 0,
            "oppTrialScore": -3,
            "playerTotalScore": -33,
            "oppTotalScore": -85,
            "waitTime": 2593.899334844865,
            "responseTime": 1680627152988,
            "catchQuestion": "How many <b class=\"r\">red<\/b> marbles did your opponent report drawing? ",
            "catchKey": -1,
            "catchResponse": -1,
            "catchTime": 1680627110798,
            "trialTime": 0
        },
        {
            "exptPart": "trial",
            "trialNumber": 40,
            "roleCurrent": "receiver",
            "marblesSampled": 100,
            "probRed": 0.5,
            "lambda": 5,
            "drawnRed": 51,
            "reportedRed": 49,
            "inferredRed": 52,
            "playerTrialScore": -1,
            "oppTrialScore": 0,
            "playerTotalScore": -34,
            "oppTotalScore": -85,
            "waitTime": 7026.950945937397,
            "responseTime": 1680627164811,
            "catchQuestion": "How many <b class=\"r\">red<\/b> marbles did your opponent report drawing? ",
            "catchKey": -1,
            "catchResponse": -1,
            "catchTime": 1680627164811,
            "trialTime": 0
        },
        {
            "exptPart": "trial",
            "trialNumber": 41,
            "roleCurrent": "sender",
            "marblesSampled": 100,
            "probRed": 0.5,
            "lambda": 5,
            "drawnRed": 33,
            "reportedRed": 33,
            "inferredRed": 40,
            "playerTrialScore": 0,
            "oppTrialScore": -7,
            "playerTotalScore": -34,
            "oppTotalScore": -92,
            "waitTime": 2353.3935449961596,
            "responseTime": 1680627176652,
            "catchQuestion": "How many <b class=\"r\">red<\/b> marbles did your opponent report drawing? ",
            "catchKey": -1,
            "catchResponse": -1,
            "catchTime": 1680627164811,
            "trialTime": 0
        },
        {
            "exptPart": "trial",
            "trialNumber": 42,
            "roleCurrent": "receiver",
            "marblesSampled": 100,
            "probRed": 0.5,
            "lambda": 5,
            "drawnRed": 34,
            "reportedRed": 29,
            "inferredRed": 30,
            "playerTrialScore": -4,
            "oppTrialScore": 4,
            "playerTotalScore": -38,
            "oppTotalScore": -88,
            "waitTime": 5510.398113719582,
            "responseTime": 1680627189026,
            "catchQuestion": "How many <b class=\"r\">red<\/b> marbles did your opponent report drawing? ",
            "catchKey": -1,
            "catchResponse": -1,
            "catchTime": 1680627164811,
            "trialTime": 0
        },
        {
            "exptPart": "trial",
            "trialNumber": 43,
            "roleCurrent": "sender",
            "marblesSampled": 100,
            "probRed": 0.5,
            "lambda": 5,
            "drawnRed": 63,
            "reportedRed": 63,
            "inferredRed": 67,
            "playerTrialScore": 0,
            "oppTrialScore": -4,
            "playerTotalScore": -38,
            "oppTotalScore": -92,
            "waitTime": 2838.3966560926337,
            "responseTime": 1680627198599,
            "catchQuestion": "How many <b class=\"r\">red<\/b> marbles did you actually draw (before any changes)? ",
            "catchKey": 63,
            "catchResponse": 63,
            "catchTime": 1680627198599,
            "trialTime": 0
        },
        {
            "exptPart": "trial",
            "trialNumber": 44,
            "roleCurrent": "receiver",
            "marblesSampled": 100,
            "probRed": 0.5,
            "lambda": 5,
            "drawnRed": 34,
            "reportedRed": 26,
            "inferredRed": 28,
            "playerTrialScore": -6,
            "oppTrialScore": 6,
            "playerTotalScore": -44,
            "oppTotalScore": -86,
            "waitTime": 5440.311708891984,
            "responseTime": 1680627217524,
            "catchQuestion": "How many <b class=\"r\">red<\/b> marbles did you actually draw (before any changes)? ",
            "catchKey": -1,
            "catchResponse": -1,
            "catchTime": 1680627198599,
            "trialTime": 0
        },
        {
            "exptPart": "trial",
            "trialNumber": 45,
            "roleCurrent": "sender",
            "marblesSampled": 100,
            "probRed": 0.5,
            "lambda": 5,
            "drawnRed": 81,
            "reportedRed": 81,
            "inferredRed": 88,
            "playerTrialScore": 0,
            "oppTrialScore": -7,
            "playerTotalScore": -44,
            "oppTotalScore": -93,
            "waitTime": 2337.390483394648,
            "responseTime": 1680627224462,
            "catchQuestion": "How many <b class=\"r\">red<\/b> marbles did you actually draw (before any changes)? ",
            "catchKey": -1,
            "catchResponse": -1,
            "catchTime": 1680627224462,
            "trialTime": 0
        },
        {
            "exptPart": "trial",
            "trialNumber": 46,
            "roleCurrent": "receiver",
            "marblesSampled": 100,
            "probRed": 0.5,
            "lambda": 5,
            "drawnRed": 56,
            "reportedRed": 55,
            "inferredRed": 57,
            "playerTrialScore": -1,
            "oppTrialScore": 0,
            "playerTotalScore": -45,
            "oppTotalScore": -93,
            "waitTime": 5747.832163355837,
            "responseTime": 1680627236470,
            "catchQuestion": "How many <b class=\"r\">red<\/b> marbles did you actually draw (before any changes)? ",
            "catchKey": -1,
            "catchResponse": -1,
            "catchTime": 1680627224462,
            "trialTime": 0
        },
        {
            "exptPart": "trial",
            "trialNumber": 47,
            "roleCurrent": "sender",
            "marblesSampled": 100,
            "probRed": 0.5,
            "lambda": 5,
            "drawnRed": 16,
            "reportedRed": 16,
            "inferredRed": 26,
            "playerTrialScore": 0,
            "oppTrialScore": -10,
            "playerTotalScore": -45,
            "oppTotalScore": -103,
            "waitTime": 2726.846485313733,
            "responseTime": 1680627246991,
            "catchQuestion": "How many <b class=\"r\">red<\/b> marbles did you actually draw (before any changes)? ",
            "catchKey": -1,
            "catchResponse": -1,
            "catchTime": 1680627224462,
            "trialTime": 0
        },
        {
            "exptPart": "trial",
            "trialNumber": 48,
            "roleCurrent": "receiver",
            "marblesSampled": 100,
            "probRed": 0.5,
            "lambda": 5,
            "drawnRed": 45,
            "reportedRed": 41,
            "inferredRed": 43,
            "playerTrialScore": -2,
            "oppTrialScore": 2,
            "playerTotalScore": -47,
            "oppTotalScore": -101,
            "waitTime": 5138.719498115384,
            "responseTime": 1680627255629,
            "catchQuestion": "How many <b class=\"r\">red<\/b> marbles did you actually draw (before any changes)? ",
            "catchKey": -1,
            "catchResponse": -1,
            "catchTime": 1680627224462,
            "trialTime": 0
        },
        {
            "exptPart": "trial",
            "trialNumber": 49,
            "roleCurrent": "sender",
            "marblesSampled": 100,
            "probRed": 0.5,
            "lambda": 5,
            "drawnRed": 34,
            "reportedRed": 34,
            "inferredRed": 36,
            "playerTrialScore": 0,
            "oppTrialScore": -2,
            "playerTotalScore": -47,
            "oppTotalScore": -103,
            "waitTime": 2679.4660116235036,
            "responseTime": 1680627263069,
            "catchQuestion": "How many <b class=\"r\">red<\/b> marbles did you actually draw (before any changes)? ",
            "catchKey": -1,
            "catchResponse": -1,
            "catchTime": 1680627224462,
            "trialTime": 0
        },
        {
            "exptPart": "trial",
            "trialNumber": 50,
            "roleCurrent": "receiver",
            "marblesSampled": 100,
            "probRed": 0.5,
            "lambda": 5,
            "drawnRed": 28,
            "reportedRed": 23,
            "inferredRed": 25,
            "playerTrialScore": -3,
            "oppTrialScore": 3,
            "playerTotalScore": -50,
            "oppTotalScore": -100,
            "waitTime": 6181.397044907442,
            "responseTime": 1680627273191,
            "catchQuestion": "How many <b class=\"r\">red<\/b> marbles did you actually draw (before any changes)? ",
            "catchKey": -1,
            "catchResponse": -1,
            "catchTime": 1680627273191,
            "trialTime": 0
        },
        {
            "exptPart": "trial",
            "trialNumber": 51,
            "roleCurrent": "sender",
            "marblesSampled": 100,
            "probRed": 0.5,
            "lambda": 5,
            "drawnRed": 28,
            "reportedRed": 28,
            "inferredRed": 32,
            "playerTrialScore": 0,
            "oppTrialScore": -4,
            "playerTotalScore": -50,
            "oppTotalScore": -104,
            "waitTime": 2827.074226401204,
            "responseTime": 1680627285797,
            "catchQuestion": "How many <b class=\"r\">red<\/b> marbles did you actually draw (before any changes)? ",
            "catchKey": -1,
            "catchResponse": -1,
            "catchTime": 1680627273191,
            "trialTime": 0
        },
        {
            "exptPart": "trial",
            "trialNumber": 52,
            "roleCurrent": "receiver",
            "marblesSampled": 100,
            "probRed": 0.5,
            "lambda": 5,
            "drawnRed": 68,
            "reportedRed": 62,
            "inferredRed": 65,
            "playerTrialScore": -3,
            "oppTrialScore": 3,
            "playerTotalScore": -53,
            "oppTotalScore": -101,
            "waitTime": 7138.577581839882,
            "responseTime": 1680627296368,
            "catchQuestion": "How many <b class=\"r\">red<\/b> marbles did you actually draw (before any changes)? ",
            "catchKey": -1,
            "catchResponse": -1,
            "catchTime": 1680627273191,
            "trialTime": 0
        },
        {
            "exptPart": "trial",
            "trialNumber": 53,
            "roleCurrent": "sender",
            "marblesSampled": 100,
            "probRed": 0.5,
            "lambda": 5,
            "drawnRed": 15,
            "reportedRed": 15,
            "inferredRed": 20,
            "playerTrialScore": 0,
            "oppTrialScore": -5,
            "playerTotalScore": -53,
            "oppTotalScore": -106,
            "waitTime": 2162.578469296265,
            "responseTime": 1680627304124,
            "catchQuestion": "How many <b class=\"r\">red<\/b> marbles did you actually draw (before any changes)? ",
            "catchKey": -1,
            "catchResponse": -1,
            "catchTime": 1680627273191,
            "trialTime": 0
        },
        {
            "exptPart": "trial",
            "trialNumber": 54,
            "roleCurrent": "receiver",
            "marblesSampled": 100,
            "probRed": 0.5,
            "lambda": 5,
            "drawnRed": 30,
            "reportedRed": 26,
            "inferredRed": 29,
            "playerTrialScore": -1,
            "oppTrialScore": 1,
            "playerTotalScore": -54,
            "oppTotalScore": -105,
            "waitTime": 5634.976465362731,
            "responseTime": 1680627313495,
            "catchQuestion": "How many <b class=\"r\">red<\/b> marbles did you actually draw (before any changes)? ",
            "catchKey": -1,
            "catchResponse": -1,
            "catchTime": 1680627273191,
            "trialTime": 0
        },
        {
            "exptPart": "trial",
            "trialNumber": 55,
            "roleCurrent": "sender",
            "marblesSampled": 100,
            "probRed": 0.5,
            "lambda": 5,
            "drawnRed": 56,
            "reportedRed": 56,
            "inferredRed": 57,
            "playerTrialScore": 0,
            "oppTrialScore": -1,
            "playerTotalScore": -54,
            "oppTotalScore": -106,
            "waitTime": 2656.66857150101,
            "responseTime": 1680627321249,
            "catchQuestion": "How many <b class=\"r\">red<\/b> marbles did you actually draw (before any changes)? ",
            "catchKey": -1,
            "catchResponse": -1,
            "catchTime": 1680627321249,
            "trialTime": 0
        },
        {
            "exptPart": "trial",
            "trialNumber": 56,
            "roleCurrent": "receiver",
            "marblesSampled": 100,
            "probRed": 0.5,
            "lambda": 5,
            "drawnRed": 45,
            "reportedRed": 33,
            "inferredRed": 35,
            "playerTrialScore": -10,
            "oppTrialScore": 10,
            "playerTotalScore": -64,
            "oppTotalScore": -96,
            "waitTime": 6541.3056860909455,
            "responseTime": 1680627337594,
            "catchQuestion": "How many <b class=\"r\">red<\/b> marbles did you actually draw (before any changes)? ",
            "catchKey": -1,
            "catchResponse": -1,
            "catchTime": 1680627321249,
            "trialTime": 0
        },
        {
            "exptPart": "trial",
            "trialNumber": 57,
            "roleCurrent": "sender",
            "marblesSampled": 100,
            "probRed": 0.5,
            "lambda": 5,
            "drawnRed": 61,
            "reportedRed": 61,
            "inferredRed": 65,
            "playerTrialScore": 0,
            "oppTrialScore": -4,
            "playerTotalScore": -64,
            "oppTotalScore": -100,
            "waitTime": 2118.1525374243656,
            "responseTime": 1680627345098,
            "catchQuestion": "How many <b class=\"r\">red<\/b> marbles did you actually draw (before any changes)? ",
            "catchKey": -1,
            "catchResponse": -1,
            "catchTime": 1680627321249,
            "trialTime": 0
        },
        {
            "exptPart": "trial",
            "trialNumber": 58,
            "roleCurrent": "receiver",
            "marblesSampled": 100,
            "probRed": 0.5,
            "lambda": 5,
            "drawnRed": 93,
            "reportedRed": 89,
            "inferredRed": 92,
            "playerTrialScore": -1,
            "oppTrialScore": 1,
            "playerTotalScore": -65,
            "oppTotalScore": -99,
            "waitTime": 7124.137865971837,
            "responseTime": 1680627356463,
            "catchQuestion": "How many <b class=\"r\">red<\/b> marbles did you actually draw (before any changes)? ",
            "catchKey": -1,
            "catchResponse": -1,
            "catchTime": 1680627321249,
            "trialTime": 0
        },
        {
            "exptPart": "trial",
            "trialNumber": 59,
            "roleCurrent": "sender",
            "marblesSampled": 100,
            "probRed": 0.5,
            "lambda": 5,
            "drawnRed": 24,
            "reportedRed": 24,
            "inferredRed": 27,
            "playerTrialScore": 0,
            "oppTrialScore": -3,
            "playerTotalScore": -65,
            "oppTotalScore": -102,
            "waitTime": 2645.6264758601565,
            "responseTime": 1680627363524,
            "catchQuestion": "How many <b class=\"r\">red<\/b> marbles did you actually draw (before any changes)? ",
            "catchKey": -1,
            "catchResponse": -1,
            "catchTime": 1680627321249,
            "trialTime": 0
        },
        {
            "exptPart": "trial",
            "trialNumber": 60,
            "roleCurrent": "receiver",
            "marblesSampled": 100,
            "probRed": 0.5,
            "lambda": 5,
            "drawnRed": 49,
            "reportedRed": 43,
            "inferredRed": 45,
            "playerTrialScore": -4,
            "oppTrialScore": 4,
            "playerTotalScore": -69,
            "oppTotalScore": -98,
            "waitTime": 5544.629787410109,
            "responseTime": 1680627375426,
            "catchQuestion": "How many <b class=\"r\">red<\/b> marbles did you actually draw (before any changes)? ",
            "catchKey": -1,
            "catchResponse": -1,
            "catchTime": 1680627375426,
            "trialTime": 0
        },
        {
            "exptPart": "trial",
            "trialNumber": 61,
            "roleCurrent": "sender",
            "marblesSampled": 100,
            "probRed": 0.5,
            "lambda": 5,
            "drawnRed": 34,
            "reportedRed": 34,
            "inferredRed": 38,
            "playerTrialScore": 0,
            "oppTrialScore": -4,
            "playerTotalScore": -69,
            "oppTotalScore": -102,
            "waitTime": 2221.69515738673,
            "responseTime": 1680627389548,
            "catchQuestion": "How many <b class=\"r\">red<\/b> marbles did you actually draw (before any changes)? ",
            "catchKey": -1,
            "catchResponse": -1,
            "catchTime": 1680627375426,
            "trialTime": 0
        },
        {
            "exptPart": "trial",
            "trialNumber": 62,
            "roleCurrent": "receiver",
            "marblesSampled": 100,
            "probRed": 0.5,
            "lambda": 5,
            "drawnRed": 74,
            "reportedRed": 71,
            "inferredRed": 74,
            "playerTrialScore": 0,
            "oppTrialScore": 0,
            "playerTotalScore": -69,
            "oppTotalScore": -102,
            "waitTime": 6522.626024691728,
            "responseTime": 1680627402188,
            "catchQuestion": "How many <b class=\"r\">red<\/b> marbles did you actually draw (before any changes)? ",
            "catchKey": -1,
            "catchResponse": -1,
            "catchTime": 1680627375426,
            "trialTime": 0
        },
        {
            "exptPart": "trial",
            "trialNumber": 63,
            "roleCurrent": "sender",
            "marblesSampled": 100,
            "probRed": 0.5,
            "lambda": 5,
            "drawnRed": 62,
            "reportedRed": 62,
            "inferredRed": 68,
            "playerTrialScore": 0,
            "oppTrialScore": -6,
            "playerTotalScore": -69,
            "oppTotalScore": -108,
            "waitTime": 2378.6153095992604,
            "responseTime": 1680627410343,
            "catchQuestion": "How many <b class=\"r\">red<\/b> marbles did you actually draw (before any changes)? ",
            "catchKey": -1,
            "catchResponse": -1,
            "catchTime": 1680627375426,
            "trialTime": 0
        },
        {
            "exptPart": "trial",
            "trialNumber": 64,
            "roleCurrent": "receiver",
            "marblesSampled": 100,
            "probRed": 0.5,
            "lambda": 5,
            "drawnRed": 68,
            "reportedRed": 63,
            "inferredRed": 65,
            "playerTrialScore": -3,
            "oppTrialScore": 3,
            "playerTotalScore": -72,
            "oppTotalScore": -105,
            "waitTime": 5740.5947688769265,
            "responseTime": 1680627420967,
            "catchQuestion": "How many <b class=\"r\">red<\/b> marbles did you actually draw (before any changes)? ",
            "catchKey": -1,
            "catchResponse": -1,
            "catchTime": 1680627375426,
            "trialTime": 0
        },
        {
            "exptPart": "trial",
            "trialNumber": 65,
            "roleCurrent": "sender",
            "marblesSampled": 100,
            "probRed": 0.5,
            "lambda": 5,
            "drawnRed": 34,
            "reportedRed": 34,
            "inferredRed": 40,
            "playerTrialScore": 0,
            "oppTrialScore": -6,
            "playerTotalScore": -72,
            "oppTotalScore": -111,
            "waitTime": 2282.9225955296197,
            "responseTime": 1680627428836,
            "catchQuestion": "How many <b class=\"r\">red<\/b> marbles did you actually draw (before any changes)? ",
            "catchKey": -1,
            "catchResponse": -1,
            "catchTime": 1680627428836,
            "trialTime": 0
        },
        {
            "exptPart": "trial",
            "trialNumber": 66,
            "roleCurrent": "receiver",
            "marblesSampled": 100,
            "probRed": 0.5,
            "lambda": 5,
            "drawnRed": 34,
            "reportedRed": 28,
            "inferredRed": 32,
            "playerTrialScore": -2,
            "oppTrialScore": 2,
            "playerTotalScore": -74,
            "oppTotalScore": -109,
            "waitTime": 5759.0247922387425,
            "responseTime": 1680627462503,
            "catchQuestion": "How many <b class=\"r\">red<\/b> marbles did you actually draw (before any changes)? ",
            "catchKey": -1,
            "catchResponse": -1,
            "catchTime": 1680627428836,
            "trialTime": 0
        },
        {
            "exptPart": "trial",
            "trialNumber": 67,
            "roleCurrent": "sender",
            "marblesSampled": 100,
            "probRed": 0.5,
            "lambda": 5,
            "drawnRed": 63,
            "reportedRed": 63,
            "inferredRed": 66,
            "playerTrialScore": 0,
            "oppTrialScore": -3,
            "playerTotalScore": -74,
            "oppTotalScore": -112,
            "waitTime": 2548.2351798599925,
            "responseTime": 1680627470143,
            "catchQuestion": "How many <b class=\"r\">red<\/b> marbles did you actually draw (before any changes)? ",
            "catchKey": -1,
            "catchResponse": -1,
            "catchTime": 1680627428836,
            "trialTime": 0
        },
        {
            "exptPart": "trial",
            "trialNumber": 68,
            "roleCurrent": "receiver",
            "marblesSampled": 100,
            "probRed": 0.5,
            "lambda": 5,
            "drawnRed": 76,
            "reportedRed": 70,
            "inferredRed": 75,
            "playerTrialScore": -1,
            "oppTrialScore": 1,
            "playerTotalScore": -75,
            "oppTotalScore": -111,
            "waitTime": 6361.266219276396,
            "responseTime": 1680627484200,
            "catchQuestion": "How many <b class=\"r\">red<\/b> marbles did you actually draw (before any changes)? ",
            "catchKey": -1,
            "catchResponse": -1,
            "catchTime": 1680627428836,
            "trialTime": 0
        },
        {
            "exptPart": "trial",
            "trialNumber": 69,
            "roleCurrent": "sender",
            "marblesSampled": 100,
            "probRed": 0.5,
            "lambda": 5,
            "drawnRed": 50,
            "reportedRed": 50,
            "inferredRed": 54,
            "playerTrialScore": 0,
            "oppTrialScore": -4,
            "playerTotalScore": -75,
            "oppTotalScore": -115,
            "waitTime": 3029.087360430738,
            "responseTime": 1680627492755,
            "catchQuestion": "How many <b class=\"r\">red<\/b> marbles did you actually draw (before any changes)? ",
            "catchKey": -1,
            "catchResponse": -1,
            "catchTime": 1680627428836,
            "trialTime": 0
        },
        {
            "exptPart": "trial",
            "trialNumber": 70,
            "roleCurrent": "receiver",
            "marblesSampled": 100,
            "probRed": 0.5,
            "lambda": 5,
            "drawnRed": 36,
            "reportedRed": 33,
            "inferredRed": 35,
            "playerTrialScore": -1,
            "oppTrialScore": 1,
            "playerTotalScore": -76,
            "oppTotalScore": -114,
            "waitTime": 6401.53734748056,
            "responseTime": 1680627503546,
            "catchQuestion": "How many <b class=\"r\">red<\/b> marbles did you actually draw (before any changes)? ",
            "catchKey": -1,
            "catchResponse": -1,
            "catchTime": 1680627503546,
            "trialTime": 0
        },
        {
            "exptPart": "trial",
            "trialNumber": 71,
            "roleCurrent": "sender",
            "marblesSampled": 100,
            "probRed": 0.5,
            "lambda": 5,
            "drawnRed": 22,
            "reportedRed": 22,
            "inferredRed": 29,
            "playerTrialScore": 0,
            "oppTrialScore": -7,
            "playerTotalScore": -76,
            "oppTotalScore": -121,
            "waitTime": 2716.8875878251,
            "responseTime": 1680627512117,
            "catchQuestion": "How many <b class=\"r\">red<\/b> marbles did you actually draw (before any changes)? ",
            "catchKey": -1,
            "catchResponse": -1,
            "catchTime": 1680627503546,
            "trialTime": 0
        },
        {
            "exptPart": "trial",
            "trialNumber": 72,
            "roleCurrent": "receiver",
            "marblesSampled": 100,
            "probRed": 0.5,
            "lambda": 5,
            "drawnRed": 63,
            "reportedRed": 61,
            "inferredRed": 65,
            "playerTrialScore": -2,
            "oppTrialScore": 0,
            "playerTotalScore": -78,
            "oppTotalScore": -121,
            "waitTime": 6527.166733137259,
            "responseTime": 1680627523388,
            "catchQuestion": "How many <b class=\"r\">red<\/b> marbles did your opponent report drawing? ",
            "catchKey": 61,
            "catchResponse": 61,
            "catchTime": 1680627523388,
            "trialTime": 0
        },
        {
            "exptPart": "trial",
            "trialNumber": 73,
            "roleCurrent": "sender",
            "marblesSampled": 100,
            "probRed": 0.5,
            "lambda": 5,
            "drawnRed": 58,
            "reportedRed": 58,
            "inferredRed": 62,
            "playerTrialScore": 0,
            "oppTrialScore": -4,
            "playerTotalScore": -78,
            "oppTotalScore": -125,
            "waitTime": 2679.937008044706,
            "responseTime": 1680627536397,
            "catchQuestion": "How many <b class=\"r\">red<\/b> marbles did your opponent report drawing? ",
            "catchKey": -1,
            "catchResponse": -1,
            "catchTime": 1680627523388,
            "trialTime": 0
        },
        {
            "exptPart": "trial",
            "trialNumber": 74,
            "roleCurrent": "receiver",
            "marblesSampled": 100,
            "probRed": 0.5,
            "lambda": 5,
            "drawnRed": 51,
            "reportedRed": 46,
            "inferredRed": 48,
            "playerTrialScore": -3,
            "oppTrialScore": 3,
            "playerTotalScore": -81,
            "oppTotalScore": -122,
            "waitTime": 7144.963399120831,
            "responseTime": 1680627548185,
            "catchQuestion": "How many <b class=\"r\">red<\/b> marbles did your opponent report drawing? ",
            "catchKey": -1,
            "catchResponse": -1,
            "catchTime": 1680627523388,
            "trialTime": 0
        },
        {
            "exptPart": "trial",
            "trialNumber": 75,
            "roleCurrent": "sender",
            "marblesSampled": 100,
            "probRed": 0.5,
            "lambda": 5,
            "drawnRed": 83,
            "reportedRed": 83,
            "inferredRed": 87,
            "playerTrialScore": 0,
            "oppTrialScore": -4,
            "playerTotalScore": -81,
            "oppTotalScore": -126,
            "waitTime": 2558.5448602520564,
            "responseTime": 1680627556242,
            "catchQuestion": "How many <b class=\"r\">red<\/b> marbles did your opponent report drawing? ",
            "catchKey": -1,
            "catchResponse": -1,
            "catchTime": 1680627556243,
            "trialTime": 0
        },
        {
            "exptPart": "trial",
            "trialNumber": 76,
            "roleCurrent": "receiver",
            "marblesSampled": 100,
            "probRed": 0.5,
            "lambda": 5,
            "drawnRed": 63,
            "reportedRed": 54,
            "inferredRed": 58,
            "playerTrialScore": -5,
            "oppTrialScore": 5,
            "playerTotalScore": -86,
            "oppTotalScore": -121,
            "waitTime": 7232.771357799367,
            "responseTime": 1680627570582,
            "catchQuestion": "How many <b class=\"r\">red<\/b> marbles did your opponent report drawing? ",
            "catchKey": -1,
            "catchResponse": -1,
            "catchTime": 1680627556243,
            "trialTime": 0
        },
        {
            "exptPart": "trial",
            "trialNumber": 77,
            "roleCurrent": "sender",
            "marblesSampled": 100,
            "probRed": 0.5,
            "lambda": 5,
            "drawnRed": 42,
            "reportedRed": 42,
            "inferredRed": 48,
            "playerTrialScore": 0,
            "oppTrialScore": -6,
            "playerTotalScore": -86,
            "oppTotalScore": -127,
            "waitTime": 2723.1166770279715,
            "responseTime": 1680627578070,
            "catchQuestion": "How many <b class=\"r\">red<\/b> marbles did your opponent report drawing? ",
            "catchKey": -1,
            "catchResponse": -1,
            "catchTime": 1680627556243,
            "trialTime": 0
        },
        {
            "exptPart": "trial",
            "trialNumber": 78,
            "roleCurrent": "receiver",
            "marblesSampled": 100,
            "probRed": 0.5,
            "lambda": 5,
            "drawnRed": 69,
            "reportedRed": 60,
            "inferredRed": 64,
            "playerTrialScore": -5,
            "oppTrialScore": 5,
            "playerTotalScore": -91,
            "oppTotalScore": -122,
            "waitTime": 5417.996024914573,
            "responseTime": 1680627588242,
            "catchQuestion": "How many <b class=\"r\">red<\/b> marbles did your opponent report drawing? ",
            "catchKey": -1,
            "catchResponse": -1,
            "catchTime": 1680627556243,
            "trialTime": 0
        },
        {
            "exptPart": "trial",
            "trialNumber": 79,
            "roleCurrent": "sender",
            "marblesSampled": 100,
            "probRed": 0.5,
            "lambda": 5,
            "drawnRed": 39,
            "reportedRed": 39,
            "inferredRed": 43,
            "playerTrialScore": 0,
            "oppTrialScore": -4,
            "playerTotalScore": -91,
            "oppTotalScore": -126,
            "waitTime": 2574.000955839386,
            "responseTime": 1680627595981,
            "catchQuestion": "How many <b class=\"r\">red<\/b> marbles did your opponent report drawing? ",
            "catchKey": -1,
            "catchResponse": -1,
            "catchTime": 1680627556243,
            "trialTime": 0
        },
        {
            "exptPart": "trial",
            "trialNumber": 80,
            "roleCurrent": "receiver",
            "marblesSampled": 100,
            "probRed": 0.5,
            "lambda": 5,
            "drawnRed": 72,
            "reportedRed": 71,
            "inferredRed": 74,
            "playerTrialScore": -2,
            "oppTrialScore": 0,
            "playerTotalScore": -93,
            "oppTotalScore": -126,
            "waitTime": 5223.382183231498,
            "responseTime": 1680627669371,
            "catchQuestion": "How many <b class=\"r\">red<\/b> marbles did your opponent report drawing? ",
            "catchKey": -1,
            "catchResponse": -1,
            "catchTime": 1680627669371,
            "trialTime": 0
        },
        {
            "exptPart": "trial",
            "trialNumber": 81,
            "roleCurrent": "sender",
            "marblesSampled": 100,
            "probRed": 0.5,
            "lambda": 5,
            "drawnRed": 41,
            "reportedRed": 41,
            "inferredRed": 47,
            "playerTrialScore": 0,
            "oppTrialScore": -6,
            "playerTotalScore": -93,
            "oppTotalScore": -132,
            "waitTime": 2530.097516418886,
            "responseTime": 1680627678560,
            "catchQuestion": "How many <b class=\"r\">red<\/b> marbles did your opponent report drawing? ",
            "catchKey": -1,
            "catchResponse": -1,
            "catchTime": 1680627669371,
            "trialTime": 0
        },
        {
            "exptPart": "trial",
            "trialNumber": 82,
            "roleCurrent": "receiver",
            "marblesSampled": 100,
            "probRed": 0.5,
            "lambda": 5,
            "drawnRed": 16,
            "reportedRed": 13,
            "inferredRed": 16,
            "playerTrialScore": 0,
            "oppTrialScore": 0,
            "playerTotalScore": -93,
            "oppTotalScore": -132,
            "waitTime": 6272.0904424099335,
            "responseTime": 1680627688648,
            "catchQuestion": "How many <b class=\"r\">red<\/b> marbles did your opponent report drawing? ",
            "catchKey": -1,
            "catchResponse": -1,
            "catchTime": 1680627669371,
            "trialTime": 0
        },
        {
            "exptPart": "trial",
            "trialNumber": 83,
            "roleCurrent": "sender",
            "marblesSampled": 100,
            "probRed": 0.5,
            "lambda": 5,
            "drawnRed": 85,
            "reportedRed": 85,
            "inferredRed": 94,
            "playerTrialScore": 0,
            "oppTrialScore": -9,
            "playerTotalScore": -93,
            "oppTotalScore": -141,
            "waitTime": 2564.9532004287494,
            "responseTime": 1680627695937,
            "catchQuestion": "How many <b class=\"r\">red<\/b> marbles did your opponent report drawing? ",
            "catchKey": -1,
            "catchResponse": -1,
            "catchTime": 1680627669371,
            "trialTime": 0
        },
        {
            "exptPart": "trial",
            "trialNumber": 84,
            "roleCurrent": "receiver",
            "marblesSampled": 100,
            "probRed": 0.5,
            "lambda": 5,
            "drawnRed": 62,
            "reportedRed": 56,
            "inferredRed": 58,
            "playerTrialScore": -4,
            "oppTrialScore": 4,
            "playerTotalScore": -97,
            "oppTotalScore": -137,
            "waitTime": 5132.267463313612,
            "responseTime": 1680627705426,
            "catchQuestion": "How many <b class=\"r\">red<\/b> marbles did your opponent report drawing? ",
            "catchKey": 56,
            "catchResponse": 54,
            "catchTime": 1680627705426,
            "trialTime": 0
        },
        {
            "exptPart": "trial",
            "trialNumber": 85,
            "roleCurrent": "sender",
            "marblesSampled": 100,
            "probRed": 0.5,
            "lambda": 5,
            "drawnRed": 32,
            "reportedRed": 32,
            "inferredRed": 40,
            "playerTrialScore": 0,
            "oppTrialScore": -8,
            "playerTotalScore": -97,
            "oppTotalScore": -145,
            "waitTime": 3142.863049700931,
            "responseTime": 1680627734877,
            "catchQuestion": "How many <b class=\"r\">red<\/b> marbles did your opponent report drawing? ",
            "catchKey": -1,
            "catchResponse": -1,
            "catchTime": 1680627734877,
            "trialTime": 0
        },
        {
            "exptPart": "trial",
            "trialNumber": 86,
            "roleCurrent": "receiver",
            "marblesSampled": 100,
            "probRed": 0.5,
            "lambda": 5,
            "drawnRed": 79,
            "reportedRed": 75,
            "inferredRed": 78,
            "playerTrialScore": -1,
            "oppTrialScore": 1,
            "playerTotalScore": -98,
            "oppTotalScore": -144,
            "waitTime": 7043.053875642101,
            "responseTime": 1680627746931,
            "catchQuestion": "How many <b class=\"r\">red<\/b> marbles did your opponent report drawing? ",
            "catchKey": -1,
            "catchResponse": -1,
            "catchTime": 1680627734877,
            "trialTime": 0
        },
        {
            "exptPart": "trial",
            "trialNumber": 87,
            "roleCurrent": "sender",
            "marblesSampled": 100,
            "probRed": 0.5,
            "lambda": 5,
            "drawnRed": 23,
            "reportedRed": 23,
            "inferredRed": 33,
            "playerTrialScore": 0,
            "oppTrialScore": -10,
            "playerTotalScore": -98,
            "oppTotalScore": -154,
            "waitTime": 2578.177716676717,
            "responseTime": 1680627754103,
            "catchQuestion": "How many <b class=\"r\">red<\/b> marbles did your opponent report drawing? ",
            "catchKey": -1,
            "catchResponse": -1,
            "catchTime": 1680627734877,
            "trialTime": 0
        },
        {
            "exptPart": "trial",
            "trialNumber": 88,
            "roleCurrent": "receiver",
            "marblesSampled": 100,
            "probRed": 0.5,
            "lambda": 5,
            "drawnRed": 38,
            "reportedRed": 36,
            "inferredRed": 39,
            "playerTrialScore": -1,
            "oppTrialScore": 0,
            "playerTotalScore": -99,
            "oppTotalScore": -154,
            "waitTime": 6209.4382109797625,
            "responseTime": 1680627764323,
            "catchQuestion": "How many <b class=\"r\">red<\/b> marbles did your opponent report drawing? ",
            "catchKey": -1,
            "catchResponse": -1,
            "catchTime": 1680627734877,
            "trialTime": 0
        },
        {
            "exptPart": "trial",
            "trialNumber": 89,
            "roleCurrent": "sender",
            "marblesSampled": 100,
            "probRed": 0.5,
            "lambda": 5,
            "drawnRed": 79,
            "reportedRed": 79,
            "inferredRed": 84,
            "playerTrialScore": 0,
            "oppTrialScore": -5,
            "playerTotalScore": -99,
            "oppTotalScore": -159,
            "waitTime": 2910.9457232380355,
            "responseTime": 1680627777065,
            "catchQuestion": "How many <b class=\"r\">red<\/b> marbles did you actually draw (before any changes)? ",
            "catchKey": 79,
            "catchResponse": 79,
            "catchTime": 1680627777065,
            "trialTime": 0
        },
        {
            "exptPart": "trial",
            "trialNumber": 90,
            "roleCurrent": "receiver",
            "marblesSampled": 100,
            "probRed": 0.5,
            "lambda": 5,
            "drawnRed": 30,
            "reportedRed": 26,
            "inferredRed": 29,
            "playerTrialScore": -1,
            "oppTrialScore": 1,
            "playerTotalScore": -100,
            "oppTotalScore": -158,
            "waitTime": 6629.956464913345,
            "responseTime": 1680627793058,
            "catchQuestion": "How many <b class=\"r\">red<\/b> marbles did you actually draw (before any changes)? ",
            "catchKey": -1,
            "catchResponse": -1,
            "catchTime": 1680627793058,
            "trialTime": 0
        },
        {
            "exptPart": "trial",
            "trialNumber": 91,
            "roleCurrent": "sender",
            "marblesSampled": 100,
            "probRed": 0.5,
            "lambda": 5,
            "drawnRed": 88,
            "reportedRed": 88,
            "inferredRed": 92,
            "playerTrialScore": 0,
            "oppTrialScore": -4,
            "playerTotalScore": -100,
            "oppTotalScore": -162,
            "waitTime": 3202.377928519793,
            "responseTime": 1680627804299,
            "catchQuestion": "How many <b class=\"r\">red<\/b> marbles did you actually draw (before any changes)? ",
            "catchKey": -1,
            "catchResponse": -1,
            "catchTime": 1680627793058,
            "trialTime": 0
        },
        {
            "exptPart": "trial",
            "trialNumber": 92,
            "roleCurrent": "receiver",
            "marblesSampled": 100,
            "probRed": 0.5,
            "lambda": 5,
            "drawnRed": 65,
            "reportedRed": 60,
            "inferredRed": 64,
            "playerTrialScore": -1,
            "oppTrialScore": 1,
            "playerTotalScore": -101,
            "oppTotalScore": -161,
            "waitTime": 5479.442034565616,
            "responseTime": 1680627814254,
            "catchQuestion": "How many <b class=\"r\">red<\/b> marbles did you actually draw (before any changes)? ",
            "catchKey": -1,
            "catchResponse": -1,
            "catchTime": 1680627793058,
            "trialTime": 0
        },
        {
            "exptPart": "trial",
            "trialNumber": 93,
            "roleCurrent": "sender",
            "marblesSampled": 100,
            "probRed": 0.5,
            "lambda": 5,
            "drawnRed": 58,
            "reportedRed": 58,
            "inferredRed": 63,
            "playerTrialScore": 0,
            "oppTrialScore": -5,
            "playerTotalScore": -101,
            "oppTotalScore": -166,
            "waitTime": 2635.0177436001686,
            "responseTime": 1680627821892,
            "catchQuestion": "How many <b class=\"r\">red<\/b> marbles did you actually draw (before any changes)? ",
            "catchKey": -1,
            "catchResponse": -1,
            "catchTime": 1680627793058,
            "trialTime": 0
        },
        {
            "exptPart": "trial",
            "trialNumber": 94,
            "roleCurrent": "receiver",
            "marblesSampled": 100,
            "probRed": 0.5,
            "lambda": 5,
            "drawnRed": 76,
            "reportedRed": 69,
            "inferredRed": 72,
            "playerTrialScore": -4,
            "oppTrialScore": 4,
            "playerTotalScore": -105,
            "oppTotalScore": -162,
            "waitTime": 6417.899817040594,
            "responseTime": 1680627831998,
            "catchQuestion": "How many <b class=\"r\">red<\/b> marbles did you actually draw (before any changes)? ",
            "catchKey": -1,
            "catchResponse": -1,
            "catchTime": 1680627793058,
            "trialTime": 0
        },
        {
            "exptPart": "trial",
            "trialNumber": 95,
            "roleCurrent": "sender",
            "marblesSampled": 100,
            "probRed": 0.5,
            "lambda": 5,
            "drawnRed": 84,
            "reportedRed": 84,
            "inferredRed": 90,
            "playerTrialScore": 0,
            "oppTrialScore": -6,
            "playerTotalScore": -105,
            "oppTotalScore": -168,
            "waitTime": 2157.8239413360006,
            "responseTime": 1680627838849,
            "catchQuestion": "How many <b class=\"r\">red<\/b> marbles did you actually draw (before any changes)? ",
            "catchKey": -1,
            "catchResponse": -1,
            "catchTime": 1680627838849,
            "trialTime": 0
        },
        {
            "exptPart": "trial",
            "trialNumber": 96,
            "roleCurrent": "receiver",
            "marblesSampled": 100,
            "probRed": 0.5,
            "lambda": 5,
            "drawnRed": 30,
            "reportedRed": 24,
            "inferredRed": 24,
            "playerTrialScore": -6,
            "oppTrialScore": 6,
            "playerTotalScore": -111,
            "oppTotalScore": -162,
            "waitTime": 6350.7662937387995,
            "responseTime": 1680627852090,
            "catchQuestion": "How many <b class=\"r\">red<\/b> marbles did you actually draw (before any changes)? ",
            "catchKey": -1,
            "catchResponse": -1,
            "catchTime": 1680627838849,
            "trialTime": 0
        },
        {
            "exptPart": "trial",
            "trialNumber": 97,
            "roleCurrent": "sender",
            "marblesSampled": 100,
            "probRed": 0.5,
            "lambda": 5,
            "drawnRed": 69,
            "reportedRed": 69,
            "inferredRed": 79,
            "playerTrialScore": 0,
            "oppTrialScore": -10,
            "playerTotalScore": -111,
            "oppTotalScore": -172,
            "waitTime": 2383.6283166742924,
            "responseTime": 1680627859164,
            "catchQuestion": "How many <b class=\"r\">red<\/b> marbles did you actually draw (before any changes)? ",
            "catchKey": -1,
            "catchResponse": -1,
            "catchTime": 1680627838849,
            "trialTime": 0
        },
        {
            "exptPart": "trial",
            "trialNumber": 98,
            "roleCurrent": "receiver",
            "marblesSampled": 100,
            "probRed": 0.5,
            "lambda": 5,
            "drawnRed": 68,
            "reportedRed": 65,
            "inferredRed": 65,
            "playerTrialScore": -3,
            "oppTrialScore": 3,
            "playerTotalScore": -114,
            "oppTotalScore": -169,
            "waitTime": 5739.093362557254,
            "responseTime": 1680627867634,
            "catchQuestion": "How many <b class=\"r\">red<\/b> marbles did you actually draw (before any changes)? ",
            "catchKey": -1,
            "catchResponse": -1,
            "catchTime": 1680627838849,
            "trialTime": 0
        },
        {
            "exptPart": "trial",
            "trialNumber": 99,
            "roleCurrent": "sender",
            "marblesSampled": 100,
            "probRed": 0.5,
            "lambda": 5,
            "drawnRed": 67,
            "reportedRed": 67,
            "inferredRed": 68,
            "playerTrialScore": 0,
            "oppTrialScore": -1,
            "playerTotalScore": -114,
            "oppTotalScore": -170,
            "waitTime": 2076.200185541931,
            "responseTime": 1680627874571,
            "catchQuestion": "How many <b class=\"r\">red<\/b> marbles did you actually draw (before any changes)? ",
            "catchKey": -1,
            "catchResponse": -1,
            "catchTime": 1680627838849,
            "trialTime": 0
        },
        {
            "exptPart": "trial",
            "trialNumber": 100,
            "roleCurrent": "receiver",
            "marblesSampled": 100,
            "probRed": 0.5,
            "lambda": 5,
            "drawnRed": 53,
            "reportedRed": 50,
            "inferredRed": 52,
            "playerTrialScore": -1,
            "oppTrialScore": 1,
            "playerTotalScore": -115,
            "oppTotalScore": -169,
            "waitTime": 6413.443862465967,
            "responseTime": 1680627885093,
            "catchQuestion": "How many <b class=\"r\">red<\/b> marbles did you actually draw (before any changes)? ",
            "catchKey": -1,
            "catchResponse": -1,
            "catchTime": 1680627885093,
            "trialTime": 0
        }
    ]
}