{
    "client": {
        "type": "sona",
        "experiment_id": 2228,
        "credit_token": "b315147ae43241ea9c65086cb510cfb7",
        "survey_code": "40685",
        "sid": "sona-40685",
        "window": {
            "width": 1280,
            "height": 621
        },
        "screen": {
            "width": 1280,
            "height": 800
        },
        "userAgent": "Mozilla\/5.0 (Macintosh; Intel Mac OS X 10_15_7) AppleWebKit\/537.36 (KHTML, like Gecko) Chrome\/110.0.0.0 Safari\/537.36",
        "score": 0,
        "bonus": 0
    },
    "expt": {
        "saveURL": "submit.simple.php",
        "trials": 100,
        "practiceTrials": 2,
        "marblesSampled": 100,
        "probRed": 0.5,
        "lambdaAI": 5,
        "roleFirst": "sender",
        "roles": [
            "sender",
            "receiver"
        ],
        "cost": "unif",
        "goal": "under",
        "goalInstructTxt": "above",
        "catchTrials": [
            83,
            5,
            14,
            39,
            27,
            57,
            41,
            93,
            3,
            6
        ],
        "scoreTotal": {
            "player": -714,
            "opp": 76
        },
        "sona": {
            "experiment_id": 2228,
            "credit_token": "b315147ae43241ea9c65086cb510cfb7"
        },
        "pilot": false,
        "debug": false
    },
    "trials": [
        {
            "exptPart": "practice",
            "trialNumber": 1,
            "roleCurrent": "sender",
            "marblesSampled": 100,
            "probRed": 0.5,
            "lambda": 5,
            "drawnRed": 25,
            "reportedRed": 38,
            "inferredRed": 41,
            "playerTrialScore": 0,
            "oppTrialScore": -16,
            "playerTotalScore": 0,
            "oppTotalScore": -16,
            "waitTime": 2210.8495556416483,
            "responseTime": 1678828012958,
            "catchQuestion": "How many <b class=\"r\">red<\/b> marbles did you actually draw (before any changes)? ",
            "catchKey": 25,
            "catchResponse": 24,
            "catchTime": 1678828012958,
            "trialTime": 0
        },
        {
            "exptPart": "practice",
            "trialNumber": 2,
            "roleCurrent": "receiver",
            "marblesSampled": 100,
            "probRed": 0.5,
            "lambda": 5,
            "drawnRed": 29,
            "reportedRed": 22,
            "inferredRed": 21,
            "playerTrialScore": -8,
            "oppTrialScore": 8,
            "playerTotalScore": -8,
            "oppTotalScore": -8,
            "waitTime": 5695.081778110838,
            "responseTime": 1678828063744,
            "catchQuestion": "How many <b class=\"r\">red<\/b> marbles did your opponent report drawing? ",
            "catchKey": 22,
            "catchResponse": 22,
            "catchTime": 1678828063744,
            "trialTime": 0
        },
        {
            "exptPart": "trial",
            "trialNumber": 1,
            "roleCurrent": "sender",
            "marblesSampled": 100,
            "probRed": 0.5,
            "lambda": 5,
            "drawnRed": 62,
            "reportedRed": 47,
            "inferredRed": 51,
            "playerTrialScore": 11,
            "oppTrialScore": -11,
            "playerTotalScore": 11,
            "oppTotalScore": -11,
            "waitTime": 2816.537807003023,
            "responseTime": 1678828096002,
            "catchQuestion": "How many <b class=\"r\">red<\/b> marbles did your opponent report drawing? ",
            "catchKey": -1,
            "catchResponse": -1,
            "catchTime": 1678828063744,
            "trialTime": 0
        },
        {
            "exptPart": "trial",
            "trialNumber": 2,
            "roleCurrent": "receiver",
            "marblesSampled": 100,
            "probRed": 0.5,
            "lambda": 5,
            "drawnRed": 37,
            "reportedRed": 32,
            "inferredRed": 33,
            "playerTrialScore": -4,
            "oppTrialScore": 4,
            "playerTotalScore": 7,
            "oppTotalScore": -7,
            "waitTime": 7443.994030827971,
            "responseTime": 1678828117235,
            "catchQuestion": "How many <b class=\"r\">red<\/b> marbles did your opponent report drawing? ",
            "catchKey": -1,
            "catchResponse": -1,
            "catchTime": 1678828063744,
            "trialTime": 0
        },
        {
            "exptPart": "trial",
            "trialNumber": 3,
            "roleCurrent": "sender",
            "marblesSampled": 100,
            "probRed": 0.5,
            "lambda": 5,
            "drawnRed": 89,
            "reportedRed": 89,
            "inferredRed": 95,
            "playerTrialScore": 0,
            "oppTrialScore": -6,
            "playerTotalScore": 7,
            "oppTotalScore": -13,
            "waitTime": 2091.4982549054785,
            "responseTime": 1678828129834,
            "catchQuestion": "How many <b class=\"r\">red<\/b> marbles did your opponent report drawing? ",
            "catchKey": -1,
            "catchResponse": -1,
            "catchTime": 1678828063744,
            "trialTime": 0
        },
        {
            "exptPart": "trial",
            "trialNumber": 4,
            "roleCurrent": "receiver",
            "marblesSampled": 100,
            "probRed": 0.5,
            "lambda": 5,
            "drawnRed": 65,
            "reportedRed": 59,
            "inferredRed": 49,
            "playerTrialScore": -16,
            "oppTrialScore": 16,
            "playerTotalScore": -9,
            "oppTotalScore": 3,
            "waitTime": 5579.53157414372,
            "responseTime": 1678828146602,
            "catchQuestion": "How many <b class=\"r\">red<\/b> marbles did your opponent report drawing? ",
            "catchKey": 59,
            "catchResponse": 59,
            "catchTime": 1678828146602,
            "trialTime": 0
        },
        {
            "exptPart": "trial",
            "trialNumber": 5,
            "roleCurrent": "sender",
            "marblesSampled": 100,
            "probRed": 0.5,
            "lambda": 5,
            "drawnRed": 73,
            "reportedRed": 73,
            "inferredRed": 79,
            "playerTrialScore": 0,
            "oppTrialScore": -6,
            "playerTotalScore": -9,
            "oppTotalScore": -3,
            "waitTime": 2254.4706257999824,
            "responseTime": 1678828158055,
            "catchQuestion": "How many <b class=\"r\">red<\/b> marbles did your opponent report drawing? ",
            "catchKey": -1,
            "catchResponse": -1,
            "catchTime": 1678828158055,
            "trialTime": 0
        },
        {
            "exptPart": "trial",
            "trialNumber": 6,
            "roleCurrent": "receiver",
            "marblesSampled": 100,
            "probRed": 0.5,
            "lambda": 5,
            "drawnRed": 76,
            "reportedRed": 72,
            "inferredRed": 73,
            "playerTrialScore": -3,
            "oppTrialScore": 3,
            "playerTotalScore": -12,
            "oppTotalScore": 0,
            "waitTime": 6031.47892974444,
            "responseTime": 1678828171509,
            "catchQuestion": "How many <b class=\"r\">red<\/b> marbles did your opponent report drawing? ",
            "catchKey": 72,
            "catchResponse": 72,
            "catchTime": 1678828171509,
            "trialTime": 0
        },
        {
            "exptPart": "trial",
            "trialNumber": 7,
            "roleCurrent": "sender",
            "marblesSampled": 100,
            "probRed": 0.5,
            "lambda": 5,
            "drawnRed": 31,
            "reportedRed": 33,
            "inferredRed": 40,
            "playerTrialScore": 0,
            "oppTrialScore": -9,
            "playerTotalScore": -12,
            "oppTotalScore": -9,
            "waitTime": 2456.019079407006,
            "responseTime": 1678828188452,
            "catchQuestion": "How many <b class=\"r\">red<\/b> marbles did you actually draw (before any changes)? ",
            "catchKey": 31,
            "catchResponse": 31,
            "catchTime": 1678828188452,
            "trialTime": 0
        },
        {
            "exptPart": "trial",
            "trialNumber": 8,
            "roleCurrent": "receiver",
            "marblesSampled": 100,
            "probRed": 0.5,
            "lambda": 5,
            "drawnRed": 43,
            "reportedRed": 39,
            "inferredRed": 44,
            "playerTrialScore": -1,
            "oppTrialScore": 0,
            "playerTotalScore": -13,
            "oppTotalScore": -9,
            "waitTime": 5774.0939790414195,
            "responseTime": 1678828201478,
            "catchQuestion": "How many <b class=\"r\">red<\/b> marbles did you actually draw (before any changes)? ",
            "catchKey": -1,
            "catchResponse": -1,
            "catchTime": 1678828188452,
            "trialTime": 0
        },
        {
            "exptPart": "trial",
            "trialNumber": 9,
            "roleCurrent": "sender",
            "marblesSampled": 100,
            "probRed": 0.5,
            "lambda": 5,
            "drawnRed": 48,
            "reportedRed": 48,
            "inferredRed": 48,
            "playerTrialScore": 0,
            "oppTrialScore": 0,
            "playerTotalScore": -13,
            "oppTotalScore": -9,
            "waitTime": 2337.2587459053602,
            "responseTime": 1678828208555,
            "catchQuestion": "How many <b class=\"r\">red<\/b> marbles did you actually draw (before any changes)? ",
            "catchKey": -1,
            "catchResponse": -1,
            "catchTime": 1678828188452,
            "trialTime": 0
        },
        {
            "exptPart": "trial",
            "trialNumber": 10,
            "roleCurrent": "receiver",
            "marblesSampled": 100,
            "probRed": 0.5,
            "lambda": 5,
            "drawnRed": 60,
            "reportedRed": 57,
            "inferredRed": 62,
            "playerTrialScore": -2,
            "oppTrialScore": 0,
            "playerTotalScore": -15,
            "oppTotalScore": -9,
            "waitTime": 5967.238970489159,
            "responseTime": 1678828222727,
            "catchQuestion": "How many <b class=\"r\">red<\/b> marbles did you actually draw (before any changes)? ",
            "catchKey": -1,
            "catchResponse": -1,
            "catchTime": 1678828222728,
            "trialTime": 0
        },
        {
            "exptPart": "trial",
            "trialNumber": 11,
            "roleCurrent": "sender",
            "marblesSampled": 100,
            "probRed": 0.5,
            "lambda": 5,
            "drawnRed": 10,
            "reportedRed": 10,
            "inferredRed": 12,
            "playerTrialScore": 0,
            "oppTrialScore": -2,
            "playerTotalScore": -15,
            "oppTotalScore": -11,
            "waitTime": 2715.316034898281,
            "responseTime": 1678828234011,
            "catchQuestion": "How many <b class=\"r\">red<\/b> marbles did you actually draw (before any changes)? ",
            "catchKey": -1,
            "catchResponse": -1,
            "catchTime": 1678828222728,
            "trialTime": 0
        },
        {
            "exptPart": "trial",
            "trialNumber": 12,
            "roleCurrent": "receiver",
            "marblesSampled": 100,
            "probRed": 0.5,
            "lambda": 5,
            "drawnRed": 46,
            "reportedRed": 41,
            "inferredRed": 41,
            "playerTrialScore": -5,
            "oppTrialScore": 5,
            "playerTotalScore": -20,
            "oppTotalScore": -6,
            "waitTime": 6723.63115557633,
            "responseTime": 1678828249899,
            "catchQuestion": "How many <b class=\"r\">red<\/b> marbles did you actually draw (before any changes)? ",
            "catchKey": -1,
            "catchResponse": -1,
            "catchTime": 1678828222728,
            "trialTime": 0
        },
        {
            "exptPart": "trial",
            "trialNumber": 13,
            "roleCurrent": "sender",
            "marblesSampled": 100,
            "probRed": 0.5,
            "lambda": 5,
            "drawnRed": 60,
            "reportedRed": 60,
            "inferredRed": 62,
            "playerTrialScore": 0,
            "oppTrialScore": -2,
            "playerTotalScore": -20,
            "oppTotalScore": -8,
            "waitTime": 2418.6769552615065,
            "responseTime": 1678828256714,
            "catchQuestion": "How many <b class=\"r\">red<\/b> marbles did you actually draw (before any changes)? ",
            "catchKey": -1,
            "catchResponse": -1,
            "catchTime": 1678828222728,
            "trialTime": 0
        },
        {
            "exptPart": "trial",
            "trialNumber": 14,
            "roleCurrent": "receiver",
            "marblesSampled": 100,
            "probRed": 0.5,
            "lambda": 5,
            "drawnRed": 48,
            "reportedRed": 44,
            "inferredRed": 44,
            "playerTrialScore": -4,
            "oppTrialScore": 4,
            "playerTotalScore": -24,
            "oppTotalScore": -4,
            "waitTime": 6196.597584008836,
            "responseTime": 1678828265434,
            "catchQuestion": "How many <b class=\"r\">red<\/b> marbles did you actually draw (before any changes)? ",
            "catchKey": -1,
            "catchResponse": -1,
            "catchTime": 1678828222728,
            "trialTime": 0
        },
        {
            "exptPart": "trial",
            "trialNumber": 15,
            "roleCurrent": "sender",
            "marblesSampled": 100,
            "probRed": 0.5,
            "lambda": 5,
            "drawnRed": 56,
            "reportedRed": 56,
            "inferredRed": 58,
            "playerTrialScore": 0,
            "oppTrialScore": -2,
            "playerTotalScore": -24,
            "oppTotalScore": -6,
            "waitTime": 2985.234889012163,
            "responseTime": 1678828382114,
            "catchQuestion": "How many <b class=\"r\">red<\/b> marbles did you actually draw (before any changes)? ",
            "catchKey": 56,
            "catchResponse": 56,
            "catchTime": 1678828382115,
            "trialTime": 0
        },
        {
            "exptPart": "trial",
            "trialNumber": 16,
            "roleCurrent": "receiver",
            "marblesSampled": 100,
            "probRed": 0.5,
            "lambda": 5,
            "drawnRed": 81,
            "reportedRed": 78,
            "inferredRed": 100,
            "playerTrialScore": -19,
            "oppTrialScore": 0,
            "playerTotalScore": -43,
            "oppTotalScore": -6,
            "waitTime": 5145.31007876359,
            "responseTime": 1678828401517,
            "catchQuestion": "How many <b class=\"r\">red<\/b> marbles did you actually draw (before any changes)? ",
            "catchKey": -1,
            "catchResponse": -1,
            "catchTime": 1678828382115,
            "trialTime": 0
        },
        {
            "exptPart": "trial",
            "trialNumber": 17,
            "roleCurrent": "sender",
            "marblesSampled": 100,
            "probRed": 0.5,
            "lambda": 5,
            "drawnRed": 57,
            "reportedRed": 57,
            "inferredRed": 59,
            "playerTrialScore": 0,
            "oppTrialScore": -2,
            "playerTotalScore": -43,
            "oppTotalScore": -8,
            "waitTime": 2224.1782289575253,
            "responseTime": 1678828442332,
            "catchQuestion": "How many <b class=\"r\">red<\/b> marbles did you actually draw (before any changes)? ",
            "catchKey": -1,
            "catchResponse": -1,
            "catchTime": 1678828382115,
            "trialTime": 0
        },
        {
            "exptPart": "trial",
            "trialNumber": 18,
            "roleCurrent": "receiver",
            "marblesSampled": 100,
            "probRed": 0.5,
            "lambda": 5,
            "drawnRed": 36,
            "reportedRed": 32,
            "inferredRed": 32,
            "playerTrialScore": -4,
            "oppTrialScore": 4,
            "playerTotalScore": -47,
            "oppTotalScore": -4,
            "waitTime": 6186.840291366594,
            "responseTime": 1678828458631,
            "catchQuestion": "How many <b class=\"r\">red<\/b> marbles did you actually draw (before any changes)? ",
            "catchKey": -1,
            "catchResponse": -1,
            "catchTime": 1678828382115,
            "trialTime": 0
        },
        {
            "exptPart": "trial",
            "trialNumber": 19,
            "roleCurrent": "sender",
            "marblesSampled": 100,
            "probRed": 0.5,
            "lambda": 5,
            "drawnRed": 46,
            "reportedRed": 46,
            "inferredRed": 50,
            "playerTrialScore": 0,
            "oppTrialScore": -4,
            "playerTotalScore": -47,
            "oppTotalScore": -8,
            "waitTime": 2124.2977219741124,
            "responseTime": 1678828470998,
            "catchQuestion": "How many <b class=\"r\">red<\/b> marbles did you actually draw (before any changes)? ",
            "catchKey": -1,
            "catchResponse": -1,
            "catchTime": 1678828382115,
            "trialTime": 0
        },
        {
            "exptPart": "trial",
            "trialNumber": 20,
            "roleCurrent": "receiver",
            "marblesSampled": 100,
            "probRed": 0.5,
            "lambda": 5,
            "drawnRed": 53,
            "reportedRed": 48,
            "inferredRed": 49,
            "playerTrialScore": -4,
            "oppTrialScore": 4,
            "playerTotalScore": -51,
            "oppTotalScore": -4,
            "waitTime": 5594.03551318991,
            "responseTime": 1678828527903,
            "catchQuestion": "How many <b class=\"r\">red<\/b> marbles did you actually draw (before any changes)? ",
            "catchKey": -1,
            "catchResponse": -1,
            "catchTime": 1678828527903,
            "trialTime": 0
        },
        {
            "exptPart": "trial",
            "trialNumber": 21,
            "roleCurrent": "sender",
            "marblesSampled": 100,
            "probRed": 0.5,
            "lambda": 5,
            "drawnRed": 36,
            "reportedRed": 36,
            "inferredRed": 40,
            "playerTrialScore": 0,
            "oppTrialScore": -4,
            "playerTotalScore": -51,
            "oppTotalScore": -8,
            "waitTime": 2338.530439182192,
            "responseTime": 1678828699227,
            "catchQuestion": "How many <b class=\"r\">red<\/b> marbles did you actually draw (before any changes)? ",
            "catchKey": -1,
            "catchResponse": -1,
            "catchTime": 1678828527903,
            "trialTime": 0
        },
        {
            "exptPart": "trial",
            "trialNumber": 22,
            "roleCurrent": "receiver",
            "marblesSampled": 100,
            "probRed": 0.5,
            "lambda": 5,
            "drawnRed": 53,
            "reportedRed": 48,
            "inferredRed": 10,
            "playerTrialScore": -43,
            "oppTrialScore": 43,
            "playerTotalScore": -94,
            "oppTotalScore": 35,
            "waitTime": 5394.593578890212,
            "responseTime": 1678828712302,
            "catchQuestion": "How many <b class=\"r\">red<\/b> marbles did you actually draw (before any changes)? ",
            "catchKey": -1,
            "catchResponse": -1,
            "catchTime": 1678828527903,
            "trialTime": 0
        },
        {
            "exptPart": "trial",
            "trialNumber": 23,
            "roleCurrent": "sender",
            "marblesSampled": 100,
            "probRed": 0.5,
            "lambda": 5,
            "drawnRed": 40,
            "reportedRed": 40,
            "inferredRed": 45,
            "playerTrialScore": 0,
            "oppTrialScore": -5,
            "playerTotalScore": -94,
            "oppTotalScore": 30,
            "waitTime": 2148.2033534964103,
            "responseTime": 1678828771425,
            "catchQuestion": "How many <b class=\"r\">red<\/b> marbles did you actually draw (before any changes)? ",
            "catchKey": -1,
            "catchResponse": -1,
            "catchTime": 1678828527903,
            "trialTime": 0
        },
        {
            "exptPart": "trial",
            "trialNumber": 24,
            "roleCurrent": "receiver",
            "marblesSampled": 100,
            "probRed": 0.5,
            "lambda": 5,
            "drawnRed": 33,
            "reportedRed": 28,
            "inferredRed": 29,
            "playerTrialScore": -4,
            "oppTrialScore": 4,
            "playerTotalScore": -98,
            "oppTotalScore": 34,
            "waitTime": 6170.328959834687,
            "responseTime": 1678828782324,
            "catchQuestion": "How many <b class=\"r\">red<\/b> marbles did you actually draw (before any changes)? ",
            "catchKey": -1,
            "catchResponse": -1,
            "catchTime": 1678828527903,
            "trialTime": 0
        },
        {
            "exptPart": "trial",
            "trialNumber": 25,
            "roleCurrent": "sender",
            "marblesSampled": 100,
            "probRed": 0.5,
            "lambda": 5,
            "drawnRed": 73,
            "reportedRed": 73,
            "inferredRed": 79,
            "playerTrialScore": 0,
            "oppTrialScore": -6,
            "playerTotalScore": -98,
            "oppTotalScore": 28,
            "waitTime": 2756.0202894719005,
            "responseTime": 1678828807852,
            "catchQuestion": "How many <b class=\"r\">red<\/b> marbles did you actually draw (before any changes)? ",
            "catchKey": -1,
            "catchResponse": -1,
            "catchTime": 1678828807852,
            "trialTime": 0
        },
        {
            "exptPart": "trial",
            "trialNumber": 26,
            "roleCurrent": "receiver",
            "marblesSampled": 100,
            "probRed": 0.5,
            "lambda": 5,
            "drawnRed": 22,
            "reportedRed": 18,
            "inferredRed": 20,
            "playerTrialScore": -2,
            "oppTrialScore": 2,
            "playerTotalScore": -100,
            "oppTotalScore": 30,
            "waitTime": 6913.671180185369,
            "responseTime": 1678828832273,
            "catchQuestion": "How many <b class=\"r\">red<\/b> marbles did you actually draw (before any changes)? ",
            "catchKey": -1,
            "catchResponse": -1,
            "catchTime": 1678828807852,
            "trialTime": 0
        },
        {
            "exptPart": "trial",
            "trialNumber": 27,
            "roleCurrent": "sender",
            "marblesSampled": 100,
            "probRed": 0.5,
            "lambda": 5,
            "drawnRed": 44,
            "reportedRed": 44,
            "inferredRed": 47,
            "playerTrialScore": 0,
            "oppTrialScore": -3,
            "playerTotalScore": -100,
            "oppTotalScore": 27,
            "waitTime": 2484.068400382902,
            "responseTime": 1678828860961,
            "catchQuestion": "How many <b class=\"r\">red<\/b> marbles did you actually draw (before any changes)? ",
            "catchKey": -1,
            "catchResponse": -1,
            "catchTime": 1678828807852,
            "trialTime": 0
        },
        {
            "exptPart": "trial",
            "trialNumber": 28,
            "roleCurrent": "receiver",
            "marblesSampled": 100,
            "probRed": 0.5,
            "lambda": 5,
            "drawnRed": 23,
            "reportedRed": 20,
            "inferredRed": 30,
            "playerTrialScore": -7,
            "oppTrialScore": 0,
            "playerTotalScore": -107,
            "oppTotalScore": 27,
            "waitTime": 7191.472425161241,
            "responseTime": 1678828935458,
            "catchQuestion": "How many <b class=\"r\">red<\/b> marbles did your opponent report drawing? ",
            "catchKey": 20,
            "catchResponse": 22,
            "catchTime": 1678828935458,
            "trialTime": 0
        },
        {
            "exptPart": "trial",
            "trialNumber": 29,
            "roleCurrent": "sender",
            "marblesSampled": 100,
            "probRed": 0.5,
            "lambda": 5,
            "drawnRed": 42,
            "reportedRed": 42,
            "inferredRed": 45,
            "playerTrialScore": 0,
            "oppTrialScore": -3,
            "playerTotalScore": -107,
            "oppTotalScore": 24,
            "waitTime": 2110.976292301235,
            "responseTime": 1678829302147,
            "catchQuestion": "How many <b class=\"r\">red<\/b> marbles did your opponent report drawing? ",
            "catchKey": -1,
            "catchResponse": -1,
            "catchTime": 1678828935458,
            "trialTime": 0
        },
        {
            "exptPart": "trial",
            "trialNumber": 30,
            "roleCurrent": "receiver",
            "marblesSampled": 100,
            "probRed": 0.5,
            "lambda": 5,
            "drawnRed": 42,
            "reportedRed": 39,
            "inferredRed": 44,
            "playerTrialScore": -2,
            "oppTrialScore": 0,
            "playerTotalScore": -109,
            "oppTotalScore": 24,
            "waitTime": 6819.799110729342,
            "responseTime": 1678829319585,
            "catchQuestion": "How many <b class=\"r\">red<\/b> marbles did your opponent report drawing? ",
            "catchKey": -1,
            "catchResponse": -1,
            "catchTime": 1678829319585,
            "trialTime": 0
        },
        {
            "exptPart": "trial",
            "trialNumber": 31,
            "roleCurrent": "sender",
            "marblesSampled": 100,
            "probRed": 0.5,
            "lambda": 5,
            "drawnRed": 85,
            "reportedRed": 85,
            "inferredRed": 91,
            "playerTrialScore": 0,
            "oppTrialScore": -6,
            "playerTotalScore": -109,
            "oppTotalScore": 18,
            "waitTime": 2896.133074514156,
            "responseTime": 1678829331710,
            "catchQuestion": "How many <b class=\"r\">red<\/b> marbles did your opponent report drawing? ",
            "catchKey": -1,
            "catchResponse": -1,
            "catchTime": 1678829319585,
            "trialTime": 0
        },
        {
            "exptPart": "trial",
            "trialNumber": 32,
            "roleCurrent": "receiver",
            "marblesSampled": 100,
            "probRed": 0.5,
            "lambda": 5,
            "drawnRed": 76,
            "reportedRed": 70,
            "inferredRed": 33,
            "playerTrialScore": -43,
            "oppTrialScore": 43,
            "playerTotalScore": -152,
            "oppTotalScore": 61,
            "waitTime": 6488.7779342220265,
            "responseTime": 1678829341301,
            "catchQuestion": "How many <b class=\"r\">red<\/b> marbles did your opponent report drawing? ",
            "catchKey": -1,
            "catchResponse": -1,
            "catchTime": 1678829319585,
            "trialTime": 0
        },
        {
            "exptPart": "trial",
            "trialNumber": 33,
            "roleCurrent": "sender",
            "marblesSampled": 100,
            "probRed": 0.5,
            "lambda": 5,
            "drawnRed": 24,
            "reportedRed": 24,
            "inferredRed": 29,
            "playerTrialScore": 0,
            "oppTrialScore": -5,
            "playerTotalScore": -152,
            "oppTotalScore": 56,
            "waitTime": 2945.2848869812133,
            "responseTime": 1678829531341,
            "catchQuestion": "How many <b class=\"r\">red<\/b> marbles did your opponent report drawing? ",
            "catchKey": -1,
            "catchResponse": -1,
            "catchTime": 1678829319585,
            "trialTime": 0
        },
        {
            "exptPart": "trial",
            "trialNumber": 34,
            "roleCurrent": "receiver",
            "marblesSampled": 100,
            "probRed": 0.5,
            "lambda": 5,
            "drawnRed": 78,
            "reportedRed": 75,
            "inferredRed": 100,
            "playerTrialScore": -22,
            "oppTrialScore": 0,
            "playerTotalScore": -174,
            "oppTotalScore": 56,
            "waitTime": 6528.487591792207,
            "responseTime": 1678829550720,
            "catchQuestion": "How many <b class=\"r\">red<\/b> marbles did your opponent report drawing? ",
            "catchKey": -1,
            "catchResponse": -1,
            "catchTime": 1678829319585,
            "trialTime": 0
        },
        {
            "exptPart": "trial",
            "trialNumber": 35,
            "roleCurrent": "sender",
            "marblesSampled": 100,
            "probRed": 0.5,
            "lambda": 5,
            "drawnRed": 28,
            "reportedRed": 34,
            "inferredRed": 38,
            "playerTrialScore": 0,
            "oppTrialScore": -10,
            "playerTotalScore": -174,
            "oppTotalScore": 46,
            "waitTime": 2752.14603962733,
            "responseTime": 1678829566253,
            "catchQuestion": "How many <b class=\"r\">red<\/b> marbles did your opponent report drawing? ",
            "catchKey": -1,
            "catchResponse": -1,
            "catchTime": 1678829566253,
            "trialTime": 0
        },
        {
            "exptPart": "trial",
            "trialNumber": 36,
            "roleCurrent": "receiver",
            "marblesSampled": 100,
            "probRed": 0.5,
            "lambda": 5,
            "drawnRed": 82,
            "reportedRed": 78,
            "inferredRed": 90,
            "playerTrialScore": -8,
            "oppTrialScore": 0,
            "playerTotalScore": -182,
            "oppTotalScore": 46,
            "waitTime": 6346.966679985168,
            "responseTime": 1678829581779,
            "catchQuestion": "How many <b class=\"r\">red<\/b> marbles did your opponent report drawing? ",
            "catchKey": -1,
            "catchResponse": -1,
            "catchTime": 1678829566253,
            "trialTime": 0
        },
        {
            "exptPart": "trial",
            "trialNumber": 37,
            "roleCurrent": "sender",
            "marblesSampled": 100,
            "probRed": 0.5,
            "lambda": 5,
            "drawnRed": 25,
            "reportedRed": 62,
            "inferredRed": 64,
            "playerTrialScore": 0,
            "oppTrialScore": -39,
            "playerTotalScore": -182,
            "oppTotalScore": 7,
            "waitTime": 2262.9299930154734,
            "responseTime": 1678829620037,
            "catchQuestion": "How many <b class=\"r\">red<\/b> marbles did your opponent report drawing? ",
            "catchKey": -1,
            "catchResponse": -1,
            "catchTime": 1678829566253,
            "trialTime": 0
        },
        {
            "exptPart": "trial",
            "trialNumber": 38,
            "roleCurrent": "receiver",
            "marblesSampled": 100,
            "probRed": 0.5,
            "lambda": 5,
            "drawnRed": 61,
            "reportedRed": 54,
            "inferredRed": 20,
            "playerTrialScore": -41,
            "oppTrialScore": 41,
            "playerTotalScore": -223,
            "oppTotalScore": 48,
            "waitTime": 6896.080256677093,
            "responseTime": 1678829630986,
            "catchQuestion": "How many <b class=\"r\">red<\/b> marbles did your opponent report drawing? ",
            "catchKey": -1,
            "catchResponse": -1,
            "catchTime": 1678829566253,
            "trialTime": 0
        },
        {
            "exptPart": "trial",
            "trialNumber": 39,
            "roleCurrent": "sender",
            "marblesSampled": 100,
            "probRed": 0.5,
            "lambda": 5,
            "drawnRed": 32,
            "reportedRed": 32,
            "inferredRed": 35,
            "playerTrialScore": 0,
            "oppTrialScore": -3,
            "playerTotalScore": -223,
            "oppTotalScore": 45,
            "waitTime": 2080.127346761192,
            "responseTime": 1678829641295,
            "catchQuestion": "How many <b class=\"r\">red<\/b> marbles did your opponent report drawing? ",
            "catchKey": -1,
            "catchResponse": -1,
            "catchTime": 1678829566253,
            "trialTime": 0
        },
        {
            "exptPart": "trial",
            "trialNumber": 40,
            "roleCurrent": "receiver",
            "marblesSampled": 100,
            "probRed": 0.5,
            "lambda": 5,
            "drawnRed": 43,
            "reportedRed": 39,
            "inferredRed": 100,
            "playerTrialScore": -57,
            "oppTrialScore": 0,
            "playerTotalScore": -280,
            "oppTotalScore": 45,
            "waitTime": 5622.34470531421,
            "responseTime": 1678829654362,
            "catchQuestion": "How many <b class=\"r\">red<\/b> marbles did your opponent report drawing? ",
            "catchKey": 39,
            "catchResponse": 70,
            "catchTime": 1678829654362,
            "trialTime": 0
        },
        {
            "exptPart": "trial",
            "trialNumber": 41,
            "roleCurrent": "sender",
            "marblesSampled": 100,
            "probRed": 0.5,
            "lambda": 5,
            "drawnRed": 39,
            "reportedRed": 44,
            "inferredRed": 42,
            "playerTrialScore": 0,
            "oppTrialScore": -3,
            "playerTotalScore": -280,
            "oppTotalScore": 42,
            "waitTime": 2146.7837179295284,
            "responseTime": 1678829743827,
            "catchQuestion": "How many <b class=\"r\">red<\/b> marbles did your opponent report drawing? ",
            "catchKey": -1,
            "catchResponse": -1,
            "catchTime": 1678829654362,
            "trialTime": 0
        },
        {
            "exptPart": "trial",
            "trialNumber": 42,
            "roleCurrent": "receiver",
            "marblesSampled": 100,
            "probRed": 0.5,
            "lambda": 5,
            "drawnRed": 27,
            "reportedRed": 26,
            "inferredRed": 60,
            "playerTrialScore": -33,
            "oppTrialScore": 0,
            "playerTotalScore": -313,
            "oppTotalScore": 42,
            "waitTime": 5455.439035576435,
            "responseTime": 1678829756294,
            "catchQuestion": "How many <b class=\"r\">red<\/b> marbles did your opponent report drawing? ",
            "catchKey": 26,
            "catchResponse": 26,
            "catchTime": 1678829756294,
            "trialTime": 0
        },
        {
            "exptPart": "trial",
            "trialNumber": 43,
            "roleCurrent": "sender",
            "marblesSampled": 100,
            "probRed": 0.5,
            "lambda": 5,
            "drawnRed": 23,
            "reportedRed": 26,
            "inferredRed": 27,
            "playerTrialScore": 0,
            "oppTrialScore": -4,
            "playerTotalScore": -313,
            "oppTotalScore": 38,
            "waitTime": 3086.8412057768974,
            "responseTime": 1678829773190,
            "catchQuestion": "How many <b class=\"r\">red<\/b> marbles did your opponent report drawing? ",
            "catchKey": -1,
            "catchResponse": -1,
            "catchTime": 1678829756294,
            "trialTime": 0
        },
        {
            "exptPart": "trial",
            "trialNumber": 44,
            "roleCurrent": "receiver",
            "marblesSampled": 100,
            "probRed": 0.5,
            "lambda": 5,
            "drawnRed": 75,
            "reportedRed": 68,
            "inferredRed": 44,
            "playerTrialScore": -31,
            "oppTrialScore": 31,
            "playerTotalScore": -344,
            "oppTotalScore": 69,
            "waitTime": 5158.697701572701,
            "responseTime": 1678829784585,
            "catchQuestion": "How many <b class=\"r\">red<\/b> marbles did your opponent report drawing? ",
            "catchKey": -1,
            "catchResponse": -1,
            "catchTime": 1678829756294,
            "trialTime": 0
        },
        {
            "exptPart": "trial",
            "trialNumber": 45,
            "roleCurrent": "sender",
            "marblesSampled": 100,
            "probRed": 0.5,
            "lambda": 5,
            "drawnRed": 37,
            "reportedRed": 38,
            "inferredRed": 49,
            "playerTrialScore": 0,
            "oppTrialScore": -12,
            "playerTotalScore": -344,
            "oppTotalScore": 57,
            "waitTime": 2175.380081865311,
            "responseTime": 1678829802296,
            "catchQuestion": "How many <b class=\"r\">red<\/b> marbles did your opponent report drawing? ",
            "catchKey": -1,
            "catchResponse": -1,
            "catchTime": 1678829802296,
            "trialTime": 0
        },
        {
            "exptPart": "trial",
            "trialNumber": 46,
            "roleCurrent": "receiver",
            "marblesSampled": 100,
            "probRed": 0.5,
            "lambda": 5,
            "drawnRed": 64,
            "reportedRed": 62,
            "inferredRed": 60,
            "playerTrialScore": -4,
            "oppTrialScore": 4,
            "playerTotalScore": -348,
            "oppTotalScore": 61,
            "waitTime": 7253.228710547454,
            "responseTime": 1678829816459,
            "catchQuestion": "How many <b class=\"r\">red<\/b> marbles did your opponent report drawing? ",
            "catchKey": -1,
            "catchResponse": -1,
            "catchTime": 1678829802296,
            "trialTime": 0
        },
        {
            "exptPart": "trial",
            "trialNumber": 47,
            "roleCurrent": "sender",
            "marblesSampled": 100,
            "probRed": 0.5,
            "lambda": 5,
            "drawnRed": 39,
            "reportedRed": 41,
            "inferredRed": 46,
            "playerTrialScore": 0,
            "oppTrialScore": -7,
            "playerTotalScore": -348,
            "oppTotalScore": 54,
            "waitTime": 2165.4561745532,
            "responseTime": 1678829825501,
            "catchQuestion": "How many <b class=\"r\">red<\/b> marbles did your opponent report drawing? ",
            "catchKey": -1,
            "catchResponse": -1,
            "catchTime": 1678829802296,
            "trialTime": 0
        },
        {
            "exptPart": "trial",
            "trialNumber": 48,
            "roleCurrent": "receiver",
            "marblesSampled": 100,
            "probRed": 0.5,
            "lambda": 5,
            "drawnRed": 87,
            "reportedRed": 80,
            "inferredRed": 70,
            "playerTrialScore": -17,
            "oppTrialScore": 17,
            "playerTotalScore": -365,
            "oppTotalScore": 71,
            "waitTime": 5241.330711853394,
            "responseTime": 1678829834368,
            "catchQuestion": "How many <b class=\"r\">red<\/b> marbles did your opponent report drawing? ",
            "catchKey": -1,
            "catchResponse": -1,
            "catchTime": 1678829802296,
            "trialTime": 0
        },
        {
            "exptPart": "trial",
            "trialNumber": 49,
            "roleCurrent": "sender",
            "marblesSampled": 100,
            "probRed": 0.5,
            "lambda": 5,
            "drawnRed": 47,
            "reportedRed": 48,
            "inferredRed": 52,
            "playerTrialScore": 0,
            "oppTrialScore": -5,
            "playerTotalScore": -365,
            "oppTotalScore": 66,
            "waitTime": 3202.566175327146,
            "responseTime": 1678829843442,
            "catchQuestion": "How many <b class=\"r\">red<\/b> marbles did your opponent report drawing? ",
            "catchKey": -1,
            "catchResponse": -1,
            "catchTime": 1678829802296,
            "trialTime": 0
        },
        {
            "exptPart": "trial",
            "trialNumber": 50,
            "roleCurrent": "receiver",
            "marblesSampled": 100,
            "probRed": 0.5,
            "lambda": 5,
            "drawnRed": 55,
            "reportedRed": 50,
            "inferredRed": 60,
            "playerTrialScore": -5,
            "oppTrialScore": 0,
            "playerTotalScore": -370,
            "oppTotalScore": 66,
            "waitTime": 6564.913261510311,
            "responseTime": 1678829856755,
            "catchQuestion": "How many <b class=\"r\">red<\/b> marbles did your opponent report drawing? ",
            "catchKey": -1,
            "catchResponse": -1,
            "catchTime": 1678829856755,
            "trialTime": 0
        },
        {
            "exptPart": "trial",
            "trialNumber": 51,
            "roleCurrent": "sender",
            "marblesSampled": 100,
            "probRed": 0.5,
            "lambda": 5,
            "drawnRed": 60,
            "reportedRed": 61,
            "inferredRed": 63,
            "playerTrialScore": 0,
            "oppTrialScore": -3,
            "playerTotalScore": -370,
            "oppTotalScore": 63,
            "waitTime": 2302.730652595463,
            "responseTime": 1678829867774,
            "catchQuestion": "How many <b class=\"r\">red<\/b> marbles did your opponent report drawing? ",
            "catchKey": -1,
            "catchResponse": -1,
            "catchTime": 1678829856755,
            "trialTime": 0
        },
        {
            "exptPart": "trial",
            "trialNumber": 52,
            "roleCurrent": "receiver",
            "marblesSampled": 100,
            "probRed": 0.5,
            "lambda": 5,
            "drawnRed": 36,
            "reportedRed": 31,
            "inferredRed": 7,
            "playerTrialScore": -29,
            "oppTrialScore": 29,
            "playerTotalScore": -399,
            "oppTotalScore": 92,
            "waitTime": 5648.651210620493,
            "responseTime": 1678829879130,
            "catchQuestion": "How many <b class=\"r\">red<\/b> marbles did your opponent report drawing? ",
            "catchKey": -1,
            "catchResponse": -1,
            "catchTime": 1678829856755,
            "trialTime": 0
        },
        {
            "exptPart": "trial",
            "trialNumber": 53,
            "roleCurrent": "sender",
            "marblesSampled": 100,
            "probRed": 0.5,
            "lambda": 5,
            "drawnRed": 16,
            "reportedRed": 17,
            "inferredRed": 22,
            "playerTrialScore": 0,
            "oppTrialScore": -6,
            "playerTotalScore": -399,
            "oppTotalScore": 86,
            "waitTime": 2783.204693010759,
            "responseTime": 1678830009355,
            "catchQuestion": "How many <b class=\"r\">red<\/b> marbles did your opponent report drawing? ",
            "catchKey": -1,
            "catchResponse": -1,
            "catchTime": 1678829856755,
            "trialTime": 0
        },
        {
            "exptPart": "trial",
            "trialNumber": 54,
            "roleCurrent": "receiver",
            "marblesSampled": 100,
            "probRed": 0.5,
            "lambda": 5,
            "drawnRed": 33,
            "reportedRed": 27,
            "inferredRed": 28,
            "playerTrialScore": -5,
            "oppTrialScore": 5,
            "playerTotalScore": -404,
            "oppTotalScore": 91,
            "waitTime": 5132.563594942476,
            "responseTime": 1678830018711,
            "catchQuestion": "How many <b class=\"r\">red<\/b> marbles did your opponent report drawing? ",
            "catchKey": -1,
            "catchResponse": -1,
            "catchTime": 1678829856755,
            "trialTime": 0
        },
        {
            "exptPart": "trial",
            "trialNumber": 55,
            "roleCurrent": "sender",
            "marblesSampled": 100,
            "probRed": 0.5,
            "lambda": 5,
            "drawnRed": 24,
            "reportedRed": 26,
            "inferredRed": 37,
            "playerTrialScore": 0,
            "oppTrialScore": -13,
            "playerTotalScore": -404,
            "oppTotalScore": 78,
            "waitTime": 2363.7875711848164,
            "responseTime": 1678830027678,
            "catchQuestion": "How many <b class=\"r\">red<\/b> marbles did your opponent report drawing? ",
            "catchKey": -1,
            "catchResponse": -1,
            "catchTime": 1678830027678,
            "trialTime": 0
        },
        {
            "exptPart": "trial",
            "trialNumber": 56,
            "roleCurrent": "receiver",
            "marblesSampled": 100,
            "probRed": 0.5,
            "lambda": 5,
            "drawnRed": 53,
            "reportedRed": 46,
            "inferredRed": 55,
            "playerTrialScore": -2,
            "oppTrialScore": 0,
            "playerTotalScore": -406,
            "oppTotalScore": 78,
            "waitTime": 7489.080185115658,
            "responseTime": 1678830039789,
            "catchQuestion": "How many <b class=\"r\">red<\/b> marbles did your opponent report drawing? ",
            "catchKey": -1,
            "catchResponse": -1,
            "catchTime": 1678830027678,
            "trialTime": 0
        },
        {
            "exptPart": "trial",
            "trialNumber": 57,
            "roleCurrent": "sender",
            "marblesSampled": 100,
            "probRed": 0.5,
            "lambda": 5,
            "drawnRed": 34,
            "reportedRed": 37,
            "inferredRed": 45,
            "playerTrialScore": 0,
            "oppTrialScore": -11,
            "playerTotalScore": -406,
            "oppTotalScore": 67,
            "waitTime": 2693.7952814497835,
            "responseTime": 1678830051881,
            "catchQuestion": "How many <b class=\"r\">red<\/b> marbles did your opponent report drawing? ",
            "catchKey": -1,
            "catchResponse": -1,
            "catchTime": 1678830027678,
            "trialTime": 0
        },
        {
            "exptPart": "trial",
            "trialNumber": 58,
            "roleCurrent": "receiver",
            "marblesSampled": 100,
            "probRed": 0.5,
            "lambda": 5,
            "drawnRed": 79,
            "reportedRed": 72,
            "inferredRed": 60,
            "playerTrialScore": -19,
            "oppTrialScore": 19,
            "playerTotalScore": -425,
            "oppTotalScore": 86,
            "waitTime": 7470.237596617278,
            "responseTime": 1678830062300,
            "catchQuestion": "How many <b class=\"r\">red<\/b> marbles did your opponent report drawing? ",
            "catchKey": 72,
            "catchResponse": 70,
            "catchTime": 1678830062300,
            "trialTime": 0
        },
        {
            "exptPart": "trial",
            "trialNumber": 59,
            "roleCurrent": "sender",
            "marblesSampled": 100,
            "probRed": 0.5,
            "lambda": 5,
            "drawnRed": 35,
            "reportedRed": 35,
            "inferredRed": 40,
            "playerTrialScore": 0,
            "oppTrialScore": -5,
            "playerTotalScore": -425,
            "oppTotalScore": 81,
            "waitTime": 2586.5065819444008,
            "responseTime": 1678830094142,
            "catchQuestion": "How many <b class=\"r\">red<\/b> marbles did your opponent report drawing? ",
            "catchKey": -1,
            "catchResponse": -1,
            "catchTime": 1678830062300,
            "trialTime": 0
        },
        {
            "exptPart": "trial",
            "trialNumber": 60,
            "roleCurrent": "receiver",
            "marblesSampled": 100,
            "probRed": 0.5,
            "lambda": 5,
            "drawnRed": 44,
            "reportedRed": 39,
            "inferredRed": 40,
            "playerTrialScore": -4,
            "oppTrialScore": 4,
            "playerTotalScore": -429,
            "oppTotalScore": 85,
            "waitTime": 7362.250506288713,
            "responseTime": 1678830106530,
            "catchQuestion": "How many <b class=\"r\">red<\/b> marbles did your opponent report drawing? ",
            "catchKey": -1,
            "catchResponse": -1,
            "catchTime": 1678830106530,
            "trialTime": 0
        },
        {
            "exptPart": "trial",
            "trialNumber": 61,
            "roleCurrent": "sender",
            "marblesSampled": 100,
            "probRed": 0.5,
            "lambda": 5,
            "drawnRed": 25,
            "reportedRed": 0,
            "inferredRed": 33,
            "playerTrialScore": 0,
            "oppTrialScore": -8,
            "playerTotalScore": -429,
            "oppTotalScore": 77,
            "waitTime": 2402.392951023386,
            "responseTime": 1678830139565,
            "catchQuestion": "How many <b class=\"r\">red<\/b> marbles did your opponent report drawing? ",
            "catchKey": -1,
            "catchResponse": -1,
            "catchTime": 1678830106530,
            "trialTime": 0
        },
        {
            "exptPart": "trial",
            "trialNumber": 62,
            "roleCurrent": "receiver",
            "marblesSampled": 100,
            "probRed": 0.5,
            "lambda": 5,
            "drawnRed": 53,
            "reportedRed": 46,
            "inferredRed": 22,
            "playerTrialScore": -31,
            "oppTrialScore": 31,
            "playerTotalScore": -460,
            "oppTotalScore": 108,
            "waitTime": 5218.38434582786,
            "responseTime": 1678830147575,
            "catchQuestion": "How many <b class=\"r\">red<\/b> marbles did your opponent report drawing? ",
            "catchKey": -1,
            "catchResponse": -1,
            "catchTime": 1678830106530,
            "trialTime": 0
        },
        {
            "exptPart": "trial",
            "trialNumber": 63,
            "roleCurrent": "sender",
            "marblesSampled": 100,
            "probRed": 0.5,
            "lambda": 5,
            "drawnRed": 27,
            "reportedRed": 27,
            "inferredRed": 34,
            "playerTrialScore": 0,
            "oppTrialScore": -7,
            "playerTotalScore": -460,
            "oppTotalScore": 101,
            "waitTime": 2923.177484975301,
            "responseTime": 1678830156021,
            "catchQuestion": "How many <b class=\"r\">red<\/b> marbles did your opponent report drawing? ",
            "catchKey": -1,
            "catchResponse": -1,
            "catchTime": 1678830106530,
            "trialTime": 0
        },
        {
            "exptPart": "trial",
            "trialNumber": 64,
            "roleCurrent": "receiver",
            "marblesSampled": 100,
            "probRed": 0.5,
            "lambda": 5,
            "drawnRed": 69,
            "reportedRed": 64,
            "inferredRed": 80,
            "playerTrialScore": -11,
            "oppTrialScore": 0,
            "playerTotalScore": -471,
            "oppTotalScore": 101,
            "waitTime": 6986.848154661511,
            "responseTime": 1678830167803,
            "catchQuestion": "How many <b class=\"r\">red<\/b> marbles did your opponent report drawing? ",
            "catchKey": -1,
            "catchResponse": -1,
            "catchTime": 1678830106530,
            "trialTime": 0
        },
        {
            "exptPart": "trial",
            "trialNumber": 65,
            "roleCurrent": "sender",
            "marblesSampled": 100,
            "probRed": 0.5,
            "lambda": 5,
            "drawnRed": 78,
            "reportedRed": 77,
            "inferredRed": 84,
            "playerTrialScore": 0,
            "oppTrialScore": -6,
            "playerTotalScore": -471,
            "oppTotalScore": 95,
            "waitTime": 2374.241393604194,
            "responseTime": 1678830177959,
            "catchQuestion": "How many <b class=\"r\">red<\/b> marbles did your opponent report drawing? ",
            "catchKey": -1,
            "catchResponse": -1,
            "catchTime": 1678830177960,
            "trialTime": 0
        },
        {
            "exptPart": "trial",
            "trialNumber": 66,
            "roleCurrent": "receiver",
            "marblesSampled": 100,
            "probRed": 0.5,
            "lambda": 5,
            "drawnRed": 53,
            "reportedRed": 44,
            "inferredRed": 80,
            "playerTrialScore": -27,
            "oppTrialScore": 0,
            "playerTotalScore": -498,
            "oppTotalScore": 95,
            "waitTime": 6701.702635799744,
            "responseTime": 1678830190895,
            "catchQuestion": "How many <b class=\"r\">red<\/b> marbles did your opponent report drawing? ",
            "catchKey": -1,
            "catchResponse": -1,
            "catchTime": 1678830177960,
            "trialTime": 0
        },
        {
            "exptPart": "trial",
            "trialNumber": 67,
            "roleCurrent": "sender",
            "marblesSampled": 100,
            "probRed": 0.5,
            "lambda": 5,
            "drawnRed": 23,
            "reportedRed": 23,
            "inferredRed": 27,
            "playerTrialScore": 0,
            "oppTrialScore": -4,
            "playerTotalScore": -498,
            "oppTotalScore": 91,
            "waitTime": 3163.2615302768045,
            "responseTime": 1678830199187,
            "catchQuestion": "How many <b class=\"r\">red<\/b> marbles did your opponent report drawing? ",
            "catchKey": -1,
            "catchResponse": -1,
            "catchTime": 1678830177960,
            "trialTime": 0
        },
        {
            "exptPart": "trial",
            "trialNumber": 68,
            "roleCurrent": "receiver",
            "marblesSampled": 100,
            "probRed": 0.5,
            "lambda": 5,
            "drawnRed": 29,
            "reportedRed": 26,
            "inferredRed": 80,
            "playerTrialScore": -51,
            "oppTrialScore": 0,
            "playerTotalScore": -549,
            "oppTotalScore": 91,
            "waitTime": 5601.3124019066345,
            "responseTime": 1678830209245,
            "catchQuestion": "How many <b class=\"r\">red<\/b> marbles did your opponent report drawing? ",
            "catchKey": -1,
            "catchResponse": -1,
            "catchTime": 1678830177960,
            "trialTime": 0
        },
        {
            "exptPart": "trial",
            "trialNumber": 69,
            "roleCurrent": "sender",
            "marblesSampled": 100,
            "probRed": 0.5,
            "lambda": 5,
            "drawnRed": 44,
            "reportedRed": 46,
            "inferredRed": 50,
            "playerTrialScore": 0,
            "oppTrialScore": -6,
            "playerTotalScore": -549,
            "oppTotalScore": 85,
            "waitTime": 3179.338727130673,
            "responseTime": 1678830218862,
            "catchQuestion": "How many <b class=\"r\">red<\/b> marbles did your opponent report drawing? ",
            "catchKey": -1,
            "catchResponse": -1,
            "catchTime": 1678830177960,
            "trialTime": 0
        },
        {
            "exptPart": "trial",
            "trialNumber": 70,
            "roleCurrent": "receiver",
            "marblesSampled": 100,
            "probRed": 0.5,
            "lambda": 5,
            "drawnRed": 19,
            "reportedRed": 16,
            "inferredRed": 20,
            "playerTrialScore": -1,
            "oppTrialScore": 0,
            "playerTotalScore": -550,
            "oppTotalScore": 85,
            "waitTime": 5838.5023508479935,
            "responseTime": 1678830231323,
            "catchQuestion": "How many <b class=\"r\">red<\/b> marbles did your opponent report drawing? ",
            "catchKey": -1,
            "catchResponse": -1,
            "catchTime": 1678830231323,
            "trialTime": 0
        },
        {
            "exptPart": "trial",
            "trialNumber": 71,
            "roleCurrent": "sender",
            "marblesSampled": 100,
            "probRed": 0.5,
            "lambda": 5,
            "drawnRed": 19,
            "reportedRed": 22,
            "inferredRed": 26,
            "playerTrialScore": 0,
            "oppTrialScore": -7,
            "playerTotalScore": -550,
            "oppTotalScore": 78,
            "waitTime": 2310.134648471698,
            "responseTime": 1678830243907,
            "catchQuestion": "How many <b class=\"r\">red<\/b> marbles did your opponent report drawing? ",
            "catchKey": -1,
            "catchResponse": -1,
            "catchTime": 1678830231323,
            "trialTime": 0
        },
        {
            "exptPart": "trial",
            "trialNumber": 72,
            "roleCurrent": "receiver",
            "marblesSampled": 100,
            "probRed": 0.5,
            "lambda": 5,
            "drawnRed": 27,
            "reportedRed": 22,
            "inferredRed": 23,
            "playerTrialScore": -4,
            "oppTrialScore": 4,
            "playerTotalScore": -554,
            "oppTotalScore": 82,
            "waitTime": 6133.880249922315,
            "responseTime": 1678830264480,
            "catchQuestion": "How many <b class=\"r\">red<\/b> marbles did your opponent report drawing? ",
            "catchKey": -1,
            "catchResponse": -1,
            "catchTime": 1678830231323,
            "trialTime": 0
        },
        {
            "exptPart": "trial",
            "trialNumber": 73,
            "roleCurrent": "sender",
            "marblesSampled": 100,
            "probRed": 0.5,
            "lambda": 5,
            "drawnRed": 94,
            "reportedRed": 100,
            "inferredRed": 100,
            "playerTrialScore": 0,
            "oppTrialScore": -6,
            "playerTotalScore": -554,
            "oppTotalScore": 76,
            "waitTime": 2539.7676090618997,
            "responseTime": 1678830287636,
            "catchQuestion": "How many <b class=\"r\">red<\/b> marbles did your opponent report drawing? ",
            "catchKey": -1,
            "catchResponse": -1,
            "catchTime": 1678830231323,
            "trialTime": 0
        },
        {
            "exptPart": "trial",
            "trialNumber": 74,
            "roleCurrent": "receiver",
            "marblesSampled": 100,
            "probRed": 0.5,
            "lambda": 5,
            "drawnRed": 76,
            "reportedRed": 71,
            "inferredRed": 71,
            "playerTrialScore": -5,
            "oppTrialScore": 5,
            "playerTotalScore": -559,
            "oppTotalScore": 81,
            "waitTime": 5221.750023517692,
            "responseTime": 1678830312445,
            "catchQuestion": "How many <b class=\"r\">red<\/b> marbles did your opponent report drawing? ",
            "catchKey": -1,
            "catchResponse": -1,
            "catchTime": 1678830231323,
            "trialTime": 0
        },
        {
            "exptPart": "trial",
            "trialNumber": 75,
            "roleCurrent": "sender",
            "marblesSampled": 100,
            "probRed": 0.5,
            "lambda": 5,
            "drawnRed": 68,
            "reportedRed": 69,
            "inferredRed": 73,
            "playerTrialScore": 0,
            "oppTrialScore": -5,
            "playerTotalScore": -559,
            "oppTotalScore": 76,
            "waitTime": 2533.12425769357,
            "responseTime": 1678830321777,
            "catchQuestion": "How many <b class=\"r\">red<\/b> marbles did your opponent report drawing? ",
            "catchKey": -1,
            "catchResponse": -1,
            "catchTime": 1678830321777,
            "trialTime": 0
        },
        {
            "exptPart": "trial",
            "trialNumber": 76,
            "roleCurrent": "receiver",
            "marblesSampled": 100,
            "probRed": 0.5,
            "lambda": 5,
            "drawnRed": 58,
            "reportedRed": 50,
            "inferredRed": 70,
            "playerTrialScore": -12,
            "oppTrialScore": 0,
            "playerTotalScore": -571,
            "oppTotalScore": 76,
            "waitTime": 5891.255665699653,
            "responseTime": 1678830337900,
            "catchQuestion": "How many <b class=\"r\">red<\/b> marbles did your opponent report drawing? ",
            "catchKey": -1,
            "catchResponse": -1,
            "catchTime": 1678830321777,
            "trialTime": 0
        },
        {
            "exptPart": "trial",
            "trialNumber": 77,
            "roleCurrent": "sender",
            "marblesSampled": 100,
            "probRed": 0.5,
            "lambda": 5,
            "drawnRed": 24,
            "reportedRed": 25,
            "inferredRed": 29,
            "playerTrialScore": 0,
            "oppTrialScore": -5,
            "playerTotalScore": -571,
            "oppTotalScore": 71,
            "waitTime": 3106.7992856721867,
            "responseTime": 1678830412500,
            "catchQuestion": "How many <b class=\"r\">red<\/b> marbles did your opponent report drawing? ",
            "catchKey": -1,
            "catchResponse": -1,
            "catchTime": 1678830321777,
            "trialTime": 0
        },
        {
            "exptPart": "trial",
            "trialNumber": 78,
            "roleCurrent": "receiver",
            "marblesSampled": 100,
            "probRed": 0.5,
            "lambda": 5,
            "drawnRed": 60,
            "reportedRed": 52,
            "inferredRed": 77,
            "playerTrialScore": -17,
            "oppTrialScore": 0,
            "playerTotalScore": -588,
            "oppTotalScore": 71,
            "waitTime": 5857.398618692156,
            "responseTime": 1678830424411,
            "catchQuestion": "How many <b class=\"r\">red<\/b> marbles did your opponent report drawing? ",
            "catchKey": -1,
            "catchResponse": -1,
            "catchTime": 1678830321777,
            "trialTime": 0
        },
        {
            "exptPart": "trial",
            "trialNumber": 79,
            "roleCurrent": "sender",
            "marblesSampled": 100,
            "probRed": 0.5,
            "lambda": 5,
            "drawnRed": 73,
            "reportedRed": 74,
            "inferredRed": 78,
            "playerTrialScore": 0,
            "oppTrialScore": -5,
            "playerTotalScore": -588,
            "oppTotalScore": 66,
            "waitTime": 2204.683040413086,
            "responseTime": 1678830434039,
            "catchQuestion": "How many <b class=\"r\">red<\/b> marbles did your opponent report drawing? ",
            "catchKey": -1,
            "catchResponse": -1,
            "catchTime": 1678830321777,
            "trialTime": 0
        },
        {
            "exptPart": "trial",
            "trialNumber": 80,
            "roleCurrent": "receiver",
            "marblesSampled": 100,
            "probRed": 0.5,
            "lambda": 5,
            "drawnRed": 58,
            "reportedRed": 51,
            "inferredRed": 55,
            "playerTrialScore": -3,
            "oppTrialScore": 3,
            "playerTotalScore": -591,
            "oppTotalScore": 69,
            "waitTime": 6603.238635110098,
            "responseTime": 1678830445381,
            "catchQuestion": "How many <b class=\"r\">red<\/b> marbles did your opponent report drawing? ",
            "catchKey": -1,
            "catchResponse": -1,
            "catchTime": 1678830445381,
            "trialTime": 0
        },
        {
            "exptPart": "trial",
            "trialNumber": 81,
            "roleCurrent": "sender",
            "marblesSampled": 100,
            "probRed": 0.5,
            "lambda": 5,
            "drawnRed": 41,
            "reportedRed": 41,
            "inferredRed": 46,
            "playerTrialScore": 0,
            "oppTrialScore": -5,
            "playerTotalScore": -591,
            "oppTotalScore": 64,
            "waitTime": 2600.5797232130535,
            "responseTime": 1678830454373,
            "catchQuestion": "How many <b class=\"r\">red<\/b> marbles did your opponent report drawing? ",
            "catchKey": -1,
            "catchResponse": -1,
            "catchTime": 1678830445381,
            "trialTime": 0
        },
        {
            "exptPart": "trial",
            "trialNumber": 82,
            "roleCurrent": "receiver",
            "marblesSampled": 100,
            "probRed": 0.5,
            "lambda": 5,
            "drawnRed": 50,
            "reportedRed": 46,
            "inferredRed": 44,
            "playerTrialScore": -6,
            "oppTrialScore": 6,
            "playerTotalScore": -597,
            "oppTotalScore": 70,
            "waitTime": 5145.4621456177865,
            "responseTime": 1678830464687,
            "catchQuestion": "How many <b class=\"r\">red<\/b> marbles did your opponent report drawing? ",
            "catchKey": -1,
            "catchResponse": -1,
            "catchTime": 1678830445381,
            "trialTime": 0
        },
        {
            "exptPart": "trial",
            "trialNumber": 83,
            "roleCurrent": "sender",
            "marblesSampled": 100,
            "probRed": 0.5,
            "lambda": 5,
            "drawnRed": 89,
            "reportedRed": 89,
            "inferredRed": 96,
            "playerTrialScore": 0,
            "oppTrialScore": -7,
            "playerTotalScore": -597,
            "oppTotalScore": 63,
            "waitTime": 2094.104940644209,
            "responseTime": 1678830472016,
            "catchQuestion": "How many <b class=\"r\">red<\/b> marbles did your opponent report drawing? ",
            "catchKey": -1,
            "catchResponse": -1,
            "catchTime": 1678830445381,
            "trialTime": 0
        },
        {
            "exptPart": "trial",
            "trialNumber": 84,
            "roleCurrent": "receiver",
            "marblesSampled": 100,
            "probRed": 0.5,
            "lambda": 5,
            "drawnRed": 51,
            "reportedRed": 49,
            "inferredRed": 55,
            "playerTrialScore": -4,
            "oppTrialScore": 0,
            "playerTotalScore": -601,
            "oppTotalScore": 63,
            "waitTime": 6541.961080503237,
            "responseTime": 1678830515308,
            "catchQuestion": "How many <b class=\"r\">red<\/b> marbles did your opponent report drawing? ",
            "catchKey": 49,
            "catchResponse": 55,
            "catchTime": 1678830515308,
            "trialTime": 0
        },
        {
            "exptPart": "trial",
            "trialNumber": 85,
            "roleCurrent": "sender",
            "marblesSampled": 100,
            "probRed": 0.5,
            "lambda": 5,
            "drawnRed": 22,
            "reportedRed": 23,
            "inferredRed": 29,
            "playerTrialScore": 0,
            "oppTrialScore": -7,
            "playerTotalScore": -601,
            "oppTotalScore": 56,
            "waitTime": 2984.744965315199,
            "responseTime": 1678830531265,
            "catchQuestion": "How many <b class=\"r\">red<\/b> marbles did your opponent report drawing? ",
            "catchKey": -1,
            "catchResponse": -1,
            "catchTime": 1678830531265,
            "trialTime": 0
        },
        {
            "exptPart": "trial",
            "trialNumber": 86,
            "roleCurrent": "receiver",
            "marblesSampled": 100,
            "probRed": 0.5,
            "lambda": 5,
            "drawnRed": 26,
            "reportedRed": 22,
            "inferredRed": 60,
            "playerTrialScore": -34,
            "oppTrialScore": 0,
            "playerTotalScore": -635,
            "oppTotalScore": 56,
            "waitTime": 7299.232343917581,
            "responseTime": 1678830549292,
            "catchQuestion": "How many <b class=\"r\">red<\/b> marbles did your opponent report drawing? ",
            "catchKey": -1,
            "catchResponse": -1,
            "catchTime": 1678830531265,
            "trialTime": 0
        },
        {
            "exptPart": "trial",
            "trialNumber": 87,
            "roleCurrent": "sender",
            "marblesSampled": 100,
            "probRed": 0.5,
            "lambda": 5,
            "drawnRed": 44,
            "reportedRed": 44,
            "inferredRed": 50,
            "playerTrialScore": 0,
            "oppTrialScore": -6,
            "playerTotalScore": -635,
            "oppTotalScore": 50,
            "waitTime": 2464.6559201540213,
            "responseTime": 1678830558307,
            "catchQuestion": "How many <b class=\"r\">red<\/b> marbles did your opponent report drawing? ",
            "catchKey": -1,
            "catchResponse": -1,
            "catchTime": 1678830531265,
            "trialTime": 0
        },
        {
            "exptPart": "trial",
            "trialNumber": 88,
            "roleCurrent": "receiver",
            "marblesSampled": 100,
            "probRed": 0.5,
            "lambda": 5,
            "drawnRed": 76,
            "reportedRed": 75,
            "inferredRed": 70,
            "playerTrialScore": -6,
            "oppTrialScore": 6,
            "playerTotalScore": -641,
            "oppTotalScore": 56,
            "waitTime": 6715.984093924535,
            "responseTime": 1678830568315,
            "catchQuestion": "How many <b class=\"r\">red<\/b> marbles did your opponent report drawing? ",
            "catchKey": -1,
            "catchResponse": -1,
            "catchTime": 1678830531265,
            "trialTime": 0
        },
        {
            "exptPart": "trial",
            "trialNumber": 89,
            "roleCurrent": "sender",
            "marblesSampled": 100,
            "probRed": 0.5,
            "lambda": 5,
            "drawnRed": 83,
            "reportedRed": 83,
            "inferredRed": 86,
            "playerTrialScore": 0,
            "oppTrialScore": -3,
            "playerTotalScore": -641,
            "oppTotalScore": 53,
            "waitTime": 2063.149898541493,
            "responseTime": 1678830581640,
            "catchQuestion": "How many <b class=\"r\">red<\/b> marbles did your opponent report drawing? ",
            "catchKey": -1,
            "catchResponse": -1,
            "catchTime": 1678830531265,
            "trialTime": 0
        },
        {
            "exptPart": "trial",
            "trialNumber": 90,
            "roleCurrent": "receiver",
            "marblesSampled": 100,
            "probRed": 0.5,
            "lambda": 5,
            "drawnRed": 82,
            "reportedRed": 76,
            "inferredRed": 80,
            "playerTrialScore": -2,
            "oppTrialScore": 2,
            "playerTotalScore": -643,
            "oppTotalScore": 55,
            "waitTime": 5662.3269341507785,
            "responseTime": 1678830592776,
            "catchQuestion": "How many <b class=\"r\">red<\/b> marbles did your opponent report drawing? ",
            "catchKey": -1,
            "catchResponse": -1,
            "catchTime": 1678830592776,
            "trialTime": 0
        },
        {
            "exptPart": "trial",
            "trialNumber": 91,
            "roleCurrent": "sender",
            "marblesSampled": 100,
            "probRed": 0.5,
            "lambda": 5,
            "drawnRed": 19,
            "reportedRed": 19,
            "inferredRed": 21,
            "playerTrialScore": 0,
            "oppTrialScore": -2,
            "playerTotalScore": -643,
            "oppTotalScore": 53,
            "waitTime": 2202.062876067889,
            "responseTime": 1678830602487,
            "catchQuestion": "How many <b class=\"r\">red<\/b> marbles did your opponent report drawing? ",
            "catchKey": -1,
            "catchResponse": -1,
            "catchTime": 1678830592776,
            "trialTime": 0
        },
        {
            "exptPart": "trial",
            "trialNumber": 92,
            "roleCurrent": "receiver",
            "marblesSampled": 100,
            "probRed": 0.5,
            "lambda": 5,
            "drawnRed": 40,
            "reportedRed": 33,
            "inferredRed": 60,
            "playerTrialScore": -20,
            "oppTrialScore": 0,
            "playerTotalScore": -663,
            "oppTotalScore": 53,
            "waitTime": 5823.820774744203,
            "responseTime": 1678830619850,
            "catchQuestion": "How many <b class=\"r\">red<\/b> marbles did your opponent report drawing? ",
            "catchKey": -1,
            "catchResponse": -1,
            "catchTime": 1678830592776,
            "trialTime": 0
        },
        {
            "exptPart": "trial",
            "trialNumber": 93,
            "roleCurrent": "sender",
            "marblesSampled": 100,
            "probRed": 0.5,
            "lambda": 5,
            "drawnRed": 71,
            "reportedRed": 71,
            "inferredRed": 74,
            "playerTrialScore": 0,
            "oppTrialScore": -3,
            "playerTotalScore": -663,
            "oppTotalScore": 50,
            "waitTime": 3229.2832784335765,
            "responseTime": 1678830629046,
            "catchQuestion": "How many <b class=\"r\">red<\/b> marbles did your opponent report drawing? ",
            "catchKey": -1,
            "catchResponse": -1,
            "catchTime": 1678830592776,
            "trialTime": 0
        },
        {
            "exptPart": "trial",
            "trialNumber": 94,
            "roleCurrent": "receiver",
            "marblesSampled": 100,
            "probRed": 0.5,
            "lambda": 5,
            "drawnRed": 34,
            "reportedRed": 29,
            "inferredRed": 50,
            "playerTrialScore": -16,
            "oppTrialScore": 0,
            "playerTotalScore": -679,
            "oppTotalScore": 50,
            "waitTime": 5144.304097028933,
            "responseTime": 1678830637118,
            "catchQuestion": "How many <b class=\"r\">red<\/b> marbles did your opponent report drawing? ",
            "catchKey": 29,
            "catchResponse": 29,
            "catchTime": 1678830637118,
            "trialTime": 0
        },
        {
            "exptPart": "trial",
            "trialNumber": 95,
            "roleCurrent": "sender",
            "marblesSampled": 100,
            "probRed": 0.5,
            "lambda": 5,
            "drawnRed": 19,
            "reportedRed": 18,
            "inferredRed": 22,
            "playerTrialScore": 0,
            "oppTrialScore": -3,
            "playerTotalScore": -679,
            "oppTotalScore": 47,
            "waitTime": 2263.2325393343303,
            "responseTime": 1678830649067,
            "catchQuestion": "How many <b class=\"r\">red<\/b> marbles did your opponent report drawing? ",
            "catchKey": -1,
            "catchResponse": -1,
            "catchTime": 1678830649067,
            "trialTime": 0
        },
        {
            "exptPart": "trial",
            "trialNumber": 96,
            "roleCurrent": "receiver",
            "marblesSampled": 100,
            "probRed": 0.5,
            "lambda": 5,
            "drawnRed": 33,
            "reportedRed": 28,
            "inferredRed": 7,
            "playerTrialScore": -26,
            "oppTrialScore": 26,
            "playerTotalScore": -705,
            "oppTotalScore": 73,
            "waitTime": 6311.80633733287,
            "responseTime": 1678830660362,
            "catchQuestion": "How many <b class=\"r\">red<\/b> marbles did your opponent report drawing? ",
            "catchKey": -1,
            "catchResponse": -1,
            "catchTime": 1678830649067,
            "trialTime": 0
        },
        {
            "exptPart": "trial",
            "trialNumber": 97,
            "roleCurrent": "sender",
            "marblesSampled": 100,
            "probRed": 0.5,
            "lambda": 5,
            "drawnRed": 34,
            "reportedRed": 34,
            "inferredRed": 37,
            "playerTrialScore": 0,
            "oppTrialScore": -3,
            "playerTotalScore": -705,
            "oppTotalScore": 70,
            "waitTime": 2921.975146089086,
            "responseTime": 1678830676503,
            "catchQuestion": "How many <b class=\"r\">red<\/b> marbles did your opponent report drawing? ",
            "catchKey": -1,
            "catchResponse": -1,
            "catchTime": 1678830649067,
            "trialTime": 0
        },
        {
            "exptPart": "trial",
            "trialNumber": 98,
            "roleCurrent": "receiver",
            "marblesSampled": 100,
            "probRed": 0.5,
            "lambda": 5,
            "drawnRed": 61,
            "reportedRed": 55,
            "inferredRed": 55,
            "playerTrialScore": -6,
            "oppTrialScore": 6,
            "playerTotalScore": -711,
            "oppTotalScore": 76,
            "waitTime": 5447.159565689495,
            "responseTime": 1678830690231,
            "catchQuestion": "How many <b class=\"r\">red<\/b> marbles did your opponent report drawing? ",
            "catchKey": -1,
            "catchResponse": -1,
            "catchTime": 1678830649067,
            "trialTime": 0
        },
        {
            "exptPart": "trial",
            "trialNumber": 99,
            "roleCurrent": "sender",
            "marblesSampled": 100,
            "probRed": 0.5,
            "lambda": 5,
            "drawnRed": 54,
            "reportedRed": 54,
            "inferredRed": 57,
            "playerTrialScore": 0,
            "oppTrialScore": -3,
            "playerTotalScore": -711,
            "oppTotalScore": 73,
            "waitTime": 2193.7025375921485,
            "responseTime": 1678830703584,
            "catchQuestion": "How many <b class=\"r\">red<\/b> marbles did your opponent report drawing? ",
            "catchKey": -1,
            "catchResponse": -1,
            "catchTime": 1678830649067,
            "trialTime": 0
        },
        {
            "exptPart": "trial",
            "trialNumber": 100,
            "roleCurrent": "receiver",
            "marblesSampled": 100,
            "probRed": 0.5,
            "lambda": 5,
            "drawnRed": 49,
            "reportedRed": 45,
            "inferredRed": 46,
            "playerTrialScore": -3,
            "oppTrialScore": 3,
            "playerTotalScore": -714,
            "oppTotalScore": 76,
            "waitTime": 6242.291312549313,
            "responseTime": 1678830714586,
            "catchQuestion": "How many <b class=\"r\">red<\/b> marbles did your opponent report drawing? ",
            "catchKey": -1,
            "catchResponse": -1,
            "catchTime": 1678830714586,
            "trialTime": 0
        }
    ]
}