{
    "client": {
        "type": "sona",
        "experiment_id": 2228,
        "credit_token": "b315147ae43241ea9c65086cb510cfb7",
        "survey_code": "46523",
        "sid": "sona-46523",
        "window": {
            "width": 1792,
            "height": 1041
        },
        "screen": {
            "width": 1792,
            "height": 1120
        },
        "userAgent": "Mozilla\/5.0 (Macintosh; Intel Mac OS X 10_15_7) AppleWebKit\/537.36 (KHTML, like Gecko) Chrome\/110.0.0.0 Safari\/537.36",
        "score": 0,
        "bonus": 0
    },
    "expt": {
        "saveURL": "submit.simple.php",
        "trials": 100,
        "practiceTrials": 2,
        "marblesSampled": 100,
        "probRed": 0.5,
        "lambdaAI": 5,
        "roleFirst": "receiver",
        "roles": [
            "sender",
            "receiver"
        ],
        "cost": "unif",
        "goal": "over",
        "goalInstructTxt": "below",
        "catchTrials": [
            36,
            71,
            86,
            61,
            74,
            21,
            0,
            17,
            48,
            13
        ],
        "scoreTotal": {
            "player": 377,
            "opp": -1036
        },
        "sona": {
            "experiment_id": 2228,
            "credit_token": "b315147ae43241ea9c65086cb510cfb7"
        },
        "pilot": false,
        "debug": false
    },
    "trials": [
        {
            "exptPart": "practice",
            "trialNumber": 1,
            "roleCurrent": "sender",
            "marblesSampled": 100,
            "probRed": 0.5,
            "lambda": 5,
            "drawnRed": 59,
            "reportedRed": 72,
            "inferredRed": 68,
            "playerTrialScore": 9,
            "oppTrialScore": -9,
            "playerTotalScore": 9,
            "oppTotalScore": -9,
            "waitTime": 2112.918687702744,
            "responseTime": 1678833097386,
            "catchQuestion": "How many <b class=\"r\">red<\/b> marbles did you actually draw (before any changes)? ",
            "catchKey": 59,
            "catchResponse": 64,
            "catchTime": 1678833097386,
            "trialTime": 0
        },
        {
            "exptPart": "practice",
            "trialNumber": 2,
            "roleCurrent": "receiver",
            "marblesSampled": 100,
            "probRed": 0.5,
            "lambda": 5,
            "drawnRed": 30,
            "reportedRed": 37,
            "inferredRed": 25,
            "playerTrialScore": -5,
            "oppTrialScore": 0,
            "playerTotalScore": 4,
            "oppTotalScore": -9,
            "waitTime": 6484.9826243252755,
            "responseTime": 1678833155949,
            "catchQuestion": "How many <b class=\"r\">red<\/b> marbles did your opponent report drawing? ",
            "catchKey": 37,
            "catchResponse": 37,
            "catchTime": 1678833155949,
            "trialTime": 0
        },
        {
            "exptPart": "trial",
            "trialNumber": 1,
            "roleCurrent": "receiver",
            "marblesSampled": 100,
            "probRed": 0.5,
            "lambda": 5,
            "drawnRed": 39,
            "reportedRed": 44,
            "inferredRed": 55,
            "playerTrialScore": -16,
            "oppTrialScore": 16,
            "playerTotalScore": -16,
            "oppTotalScore": 16,
            "waitTime": 5382.474303934579,
            "responseTime": 1678833251752,
            "catchQuestion": "How many <b class=\"r\">red<\/b> marbles did your opponent report drawing? ",
            "catchKey": 44,
            "catchResponse": 44,
            "catchTime": 1678833251752,
            "trialTime": 0
        },
        {
            "exptPart": "trial",
            "trialNumber": 2,
            "roleCurrent": "sender",
            "marblesSampled": 100,
            "probRed": 0.5,
            "lambda": 5,
            "drawnRed": 83,
            "reportedRed": 84,
            "inferredRed": 76,
            "playerTrialScore": 0,
            "oppTrialScore": -7,
            "playerTotalScore": -16,
            "oppTotalScore": 9,
            "waitTime": 3118.3736849882716,
            "responseTime": 1678833274365,
            "catchQuestion": "How many <b class=\"r\">red<\/b> marbles did your opponent report drawing? ",
            "catchKey": -1,
            "catchResponse": -1,
            "catchTime": 1678833251752,
            "trialTime": 0
        },
        {
            "exptPart": "trial",
            "trialNumber": 3,
            "roleCurrent": "receiver",
            "marblesSampled": 100,
            "probRed": 0.5,
            "lambda": 5,
            "drawnRed": 69,
            "reportedRed": 72,
            "inferredRed": 66,
            "playerTrialScore": -3,
            "oppTrialScore": 0,
            "playerTotalScore": -19,
            "oppTotalScore": 9,
            "waitTime": 5234.925032859392,
            "responseTime": 1678833289546,
            "catchQuestion": "How many <b class=\"r\">red<\/b> marbles did your opponent report drawing? ",
            "catchKey": -1,
            "catchResponse": -1,
            "catchTime": 1678833251752,
            "trialTime": 0
        },
        {
            "exptPart": "trial",
            "trialNumber": 4,
            "roleCurrent": "sender",
            "marblesSampled": 100,
            "probRed": 0.5,
            "lambda": 5,
            "drawnRed": 50,
            "reportedRed": 57,
            "inferredRed": 53,
            "playerTrialScore": 3,
            "oppTrialScore": -3,
            "playerTotalScore": -16,
            "oppTotalScore": 6,
            "waitTime": 2203.406827518057,
            "responseTime": 1678833318096,
            "catchQuestion": "How many <b class=\"r\">red<\/b> marbles did your opponent report drawing? ",
            "catchKey": -1,
            "catchResponse": -1,
            "catchTime": 1678833251752,
            "trialTime": 0
        },
        {
            "exptPart": "trial",
            "trialNumber": 5,
            "roleCurrent": "receiver",
            "marblesSampled": 100,
            "probRed": 0.5,
            "lambda": 5,
            "drawnRed": 75,
            "reportedRed": 80,
            "inferredRed": 35,
            "playerTrialScore": -40,
            "oppTrialScore": 0,
            "playerTotalScore": -56,
            "oppTotalScore": 6,
            "waitTime": 6840.324635171096,
            "responseTime": 1678833336372,
            "catchQuestion": "How many <b class=\"r\">red<\/b> marbles did your opponent report drawing? ",
            "catchKey": -1,
            "catchResponse": -1,
            "catchTime": 1678833336372,
            "trialTime": 0
        },
        {
            "exptPart": "trial",
            "trialNumber": 6,
            "roleCurrent": "sender",
            "marblesSampled": 100,
            "probRed": 0.5,
            "lambda": 5,
            "drawnRed": 72,
            "reportedRed": 79,
            "inferredRed": 72,
            "playerTrialScore": 0,
            "oppTrialScore": 0,
            "playerTotalScore": -56,
            "oppTotalScore": 6,
            "waitTime": 2755.9612744630267,
            "responseTime": 1678833388389,
            "catchQuestion": "How many <b class=\"r\">red<\/b> marbles did your opponent report drawing? ",
            "catchKey": -1,
            "catchResponse": -1,
            "catchTime": 1678833336372,
            "trialTime": 0
        },
        {
            "exptPart": "trial",
            "trialNumber": 7,
            "roleCurrent": "receiver",
            "marblesSampled": 100,
            "probRed": 0.5,
            "lambda": 5,
            "drawnRed": 35,
            "reportedRed": 42,
            "inferredRed": 34,
            "playerTrialScore": -1,
            "oppTrialScore": 0,
            "playerTotalScore": -57,
            "oppTotalScore": 6,
            "waitTime": 6219.001707311568,
            "responseTime": 1678833438962,
            "catchQuestion": "How many <b class=\"r\">red<\/b> marbles did your opponent report drawing? ",
            "catchKey": -1,
            "catchResponse": -1,
            "catchTime": 1678833336372,
            "trialTime": 0
        },
        {
            "exptPart": "trial",
            "trialNumber": 8,
            "roleCurrent": "sender",
            "marblesSampled": 100,
            "probRed": 0.5,
            "lambda": 5,
            "drawnRed": 22,
            "reportedRed": 102,
            "inferredRed": 100,
            "playerTrialScore": 78,
            "oppTrialScore": -78,
            "playerTotalScore": 21,
            "oppTotalScore": -72,
            "waitTime": 2607.982750622561,
            "responseTime": 1678833519562,
            "catchQuestion": "How many <b class=\"r\">red<\/b> marbles did your opponent report drawing? ",
            "catchKey": -1,
            "catchResponse": -1,
            "catchTime": 1678833336372,
            "trialTime": 0
        },
        {
            "exptPart": "trial",
            "trialNumber": 9,
            "roleCurrent": "receiver",
            "marblesSampled": 100,
            "probRed": 0.5,
            "lambda": 5,
            "drawnRed": 63,
            "reportedRed": 72,
            "inferredRed": 45,
            "playerTrialScore": -18,
            "oppTrialScore": 0,
            "playerTotalScore": 3,
            "oppTotalScore": -72,
            "waitTime": 6132.051286614249,
            "responseTime": 1678833532232,
            "catchQuestion": "How many <b class=\"r\">red<\/b> marbles did your opponent report drawing? ",
            "catchKey": -1,
            "catchResponse": -1,
            "catchTime": 1678833336372,
            "trialTime": 0
        },
        {
            "exptPart": "trial",
            "trialNumber": 10,
            "roleCurrent": "sender",
            "marblesSampled": 100,
            "probRed": 0.5,
            "lambda": 5,
            "drawnRed": 67,
            "reportedRed": 81,
            "inferredRed": 74,
            "playerTrialScore": 7,
            "oppTrialScore": -7,
            "playerTotalScore": 10,
            "oppTotalScore": -79,
            "waitTime": 2322.8957767737634,
            "responseTime": 1678833549319,
            "catchQuestion": "How many <b class=\"r\">red<\/b> marbles did your opponent report drawing? ",
            "catchKey": -1,
            "catchResponse": -1,
            "catchTime": 1678833549319,
            "trialTime": 0
        },
        {
            "exptPart": "trial",
            "trialNumber": 11,
            "roleCurrent": "receiver",
            "marblesSampled": 100,
            "probRed": 0.5,
            "lambda": 5,
            "drawnRed": 55,
            "reportedRed": 61,
            "inferredRed": 43,
            "playerTrialScore": -12,
            "oppTrialScore": 0,
            "playerTotalScore": -2,
            "oppTotalScore": -79,
            "waitTime": 6384.660524270681,
            "responseTime": 1678833598206,
            "catchQuestion": "How many <b class=\"r\">red<\/b> marbles did your opponent report drawing? ",
            "catchKey": -1,
            "catchResponse": -1,
            "catchTime": 1678833549319,
            "trialTime": 0
        },
        {
            "exptPart": "trial",
            "trialNumber": 12,
            "roleCurrent": "sender",
            "marblesSampled": 100,
            "probRed": 0.5,
            "lambda": 5,
            "drawnRed": 60,
            "reportedRed": 70,
            "inferredRed": 62,
            "playerTrialScore": 2,
            "oppTrialScore": -2,
            "playerTotalScore": 0,
            "oppTotalScore": -81,
            "waitTime": 2348.92439198182,
            "responseTime": 1678833616823,
            "catchQuestion": "How many <b class=\"r\">red<\/b> marbles did your opponent report drawing? ",
            "catchKey": -1,
            "catchResponse": -1,
            "catchTime": 1678833549319,
            "trialTime": 0
        },
        {
            "exptPart": "trial",
            "trialNumber": 13,
            "roleCurrent": "receiver",
            "marblesSampled": 100,
            "probRed": 0.5,
            "lambda": 5,
            "drawnRed": 19,
            "reportedRed": 20,
            "inferredRed": 12,
            "playerTrialScore": -7,
            "oppTrialScore": 0,
            "playerTotalScore": -7,
            "oppTotalScore": -81,
            "waitTime": 6742.414222760693,
            "responseTime": 1678833629651,
            "catchQuestion": "How many <b class=\"r\">red<\/b> marbles did your opponent report drawing? ",
            "catchKey": -1,
            "catchResponse": -1,
            "catchTime": 1678833549319,
            "trialTime": 0
        },
        {
            "exptPart": "trial",
            "trialNumber": 14,
            "roleCurrent": "sender",
            "marblesSampled": 100,
            "probRed": 0.5,
            "lambda": 5,
            "drawnRed": 50,
            "reportedRed": 72,
            "inferredRed": 67,
            "playerTrialScore": 17,
            "oppTrialScore": -17,
            "playerTotalScore": 10,
            "oppTotalScore": -98,
            "waitTime": 2733.221020672654,
            "responseTime": 1678833652318,
            "catchQuestion": "How many <b class=\"r\">red<\/b> marbles did you actually draw (before any changes)? ",
            "catchKey": 50,
            "catchResponse": 57,
            "catchTime": 1678833652318,
            "trialTime": 0
        },
        {
            "exptPart": "trial",
            "trialNumber": 15,
            "roleCurrent": "receiver",
            "marblesSampled": 100,
            "probRed": 0.5,
            "lambda": 5,
            "drawnRed": 56,
            "reportedRed": 61,
            "inferredRed": 34,
            "playerTrialScore": -22,
            "oppTrialScore": 0,
            "playerTotalScore": -12,
            "oppTotalScore": -98,
            "waitTime": 6927.699264443999,
            "responseTime": 1678833685717,
            "catchQuestion": "How many <b class=\"r\">red<\/b> marbles did you actually draw (before any changes)? ",
            "catchKey": -1,
            "catchResponse": -1,
            "catchTime": 1678833685717,
            "trialTime": 0
        },
        {
            "exptPart": "trial",
            "trialNumber": 16,
            "roleCurrent": "sender",
            "marblesSampled": 100,
            "probRed": 0.5,
            "lambda": 5,
            "drawnRed": 18,
            "reportedRed": 39,
            "inferredRed": 35,
            "playerTrialScore": 17,
            "oppTrialScore": -17,
            "playerTotalScore": 5,
            "oppTotalScore": -115,
            "waitTime": 2266.466017849805,
            "responseTime": 1678833714562,
            "catchQuestion": "How many <b class=\"r\">red<\/b> marbles did you actually draw (before any changes)? ",
            "catchKey": -1,
            "catchResponse": -1,
            "catchTime": 1678833685717,
            "trialTime": 0
        },
        {
            "exptPart": "trial",
            "trialNumber": 17,
            "roleCurrent": "receiver",
            "marblesSampled": 100,
            "probRed": 0.5,
            "lambda": 5,
            "drawnRed": 36,
            "reportedRed": 43,
            "inferredRed": 12,
            "playerTrialScore": -24,
            "oppTrialScore": 0,
            "playerTotalScore": -19,
            "oppTotalScore": -115,
            "waitTime": 5625.251302490662,
            "responseTime": 1678833723538,
            "catchQuestion": "How many <b class=\"r\">red<\/b> marbles did you actually draw (before any changes)? ",
            "catchKey": -1,
            "catchResponse": -1,
            "catchTime": 1678833685717,
            "trialTime": 0
        },
        {
            "exptPart": "trial",
            "trialNumber": 18,
            "roleCurrent": "sender",
            "marblesSampled": 100,
            "probRed": 0.5,
            "lambda": 5,
            "drawnRed": 63,
            "reportedRed": 81,
            "inferredRed": 75,
            "playerTrialScore": 12,
            "oppTrialScore": -12,
            "playerTotalScore": -7,
            "oppTotalScore": -127,
            "waitTime": 3127.6256695906172,
            "responseTime": 1678833764090,
            "catchQuestion": "How many <b class=\"r\">red<\/b> marbles did you actually draw (before any changes)? ",
            "catchKey": 63,
            "catchResponse": 63,
            "catchTime": 1678833764090,
            "trialTime": 0
        },
        {
            "exptPart": "trial",
            "trialNumber": 19,
            "roleCurrent": "receiver",
            "marblesSampled": 100,
            "probRed": 0.5,
            "lambda": 5,
            "drawnRed": 73,
            "reportedRed": 76,
            "inferredRed": 56,
            "playerTrialScore": -17,
            "oppTrialScore": 0,
            "playerTotalScore": -24,
            "oppTotalScore": -127,
            "waitTime": 5850.487500969125,
            "responseTime": 1678833784847,
            "catchQuestion": "How many <b class=\"r\">red<\/b> marbles did you actually draw (before any changes)? ",
            "catchKey": -1,
            "catchResponse": -1,
            "catchTime": 1678833764090,
            "trialTime": 0
        },
        {
            "exptPart": "trial",
            "trialNumber": 20,
            "roleCurrent": "sender",
            "marblesSampled": 100,
            "probRed": 0.5,
            "lambda": 5,
            "drawnRed": 85,
            "reportedRed": 44,
            "inferredRed": 39,
            "playerTrialScore": 0,
            "oppTrialScore": -46,
            "playerTotalScore": -24,
            "oppTotalScore": -173,
            "waitTime": 2324.4321188596587,
            "responseTime": 1678833831195,
            "catchQuestion": "How many <b class=\"r\">red<\/b> marbles did you actually draw (before any changes)? ",
            "catchKey": -1,
            "catchResponse": -1,
            "catchTime": 1678833831195,
            "trialTime": 0
        },
        {
            "exptPart": "trial",
            "trialNumber": 21,
            "roleCurrent": "receiver",
            "marblesSampled": 100,
            "probRed": 0.5,
            "lambda": 5,
            "drawnRed": 14,
            "reportedRed": 19,
            "inferredRed": 4,
            "playerTrialScore": -10,
            "oppTrialScore": 0,
            "playerTotalScore": -34,
            "oppTotalScore": -173,
            "waitTime": 7299.940514986915,
            "responseTime": 1678833849119,
            "catchQuestion": "How many <b class=\"r\">red<\/b> marbles did you actually draw (before any changes)? ",
            "catchKey": -1,
            "catchResponse": -1,
            "catchTime": 1678833831195,
            "trialTime": 0
        },
        {
            "exptPart": "trial",
            "trialNumber": 22,
            "roleCurrent": "sender",
            "marblesSampled": 100,
            "probRed": 0.5,
            "lambda": 5,
            "drawnRed": 20,
            "reportedRed": 20,
            "inferredRed": 10,
            "playerTrialScore": 0,
            "oppTrialScore": -10,
            "playerTotalScore": -34,
            "oppTotalScore": -183,
            "waitTime": 3033.8524944026403,
            "responseTime": 1678833905018,
            "catchQuestion": "How many <b class=\"r\">red<\/b> marbles did you actually draw (before any changes)? ",
            "catchKey": 20,
            "catchResponse": 20,
            "catchTime": 1678833905018,
            "trialTime": 0
        },
        {
            "exptPart": "trial",
            "trialNumber": 23,
            "roleCurrent": "receiver",
            "marblesSampled": 100,
            "probRed": 0.5,
            "lambda": 5,
            "drawnRed": 42,
            "reportedRed": 46,
            "inferredRed": 34,
            "playerTrialScore": -8,
            "oppTrialScore": 0,
            "playerTotalScore": -42,
            "oppTotalScore": -183,
            "waitTime": 6030.242071805273,
            "responseTime": 1678833923093,
            "catchQuestion": "How many <b class=\"r\">red<\/b> marbles did you actually draw (before any changes)? ",
            "catchKey": -1,
            "catchResponse": -1,
            "catchTime": 1678833905018,
            "trialTime": 0
        },
        {
            "exptPart": "trial",
            "trialNumber": 24,
            "roleCurrent": "sender",
            "marblesSampled": 100,
            "probRed": 0.5,
            "lambda": 5,
            "drawnRed": 43,
            "reportedRed": 74,
            "inferredRed": 68,
            "playerTrialScore": 25,
            "oppTrialScore": -25,
            "playerTotalScore": -17,
            "oppTotalScore": -208,
            "waitTime": 2859.001614238304,
            "responseTime": 1678833957042,
            "catchQuestion": "How many <b class=\"r\">red<\/b> marbles did you actually draw (before any changes)? ",
            "catchKey": -1,
            "catchResponse": -1,
            "catchTime": 1678833905018,
            "trialTime": 0
        },
        {
            "exptPart": "trial",
            "trialNumber": 25,
            "roleCurrent": "receiver",
            "marblesSampled": 100,
            "probRed": 0.5,
            "lambda": 5,
            "drawnRed": 53,
            "reportedRed": 58,
            "inferredRed": 52,
            "playerTrialScore": -1,
            "oppTrialScore": 0,
            "playerTotalScore": -18,
            "oppTotalScore": -208,
            "waitTime": 6338.52033103288,
            "responseTime": 1678833970279,
            "catchQuestion": "How many <b class=\"r\">red<\/b> marbles did you actually draw (before any changes)? ",
            "catchKey": -1,
            "catchResponse": -1,
            "catchTime": 1678833970279,
            "trialTime": 0
        },
        {
            "exptPart": "trial",
            "trialNumber": 26,
            "roleCurrent": "sender",
            "marblesSampled": 100,
            "probRed": 0.5,
            "lambda": 5,
            "drawnRed": 37,
            "reportedRed": 56,
            "inferredRed": 54,
            "playerTrialScore": 17,
            "oppTrialScore": -17,
            "playerTotalScore": -1,
            "oppTotalScore": -225,
            "waitTime": 2833.3567467418925,
            "responseTime": 1678834020017,
            "catchQuestion": "How many <b class=\"r\">red<\/b> marbles did you actually draw (before any changes)? ",
            "catchKey": -1,
            "catchResponse": -1,
            "catchTime": 1678833970279,
            "trialTime": 0
        },
        {
            "exptPart": "trial",
            "trialNumber": 27,
            "roleCurrent": "receiver",
            "marblesSampled": 100,
            "probRed": 0.5,
            "lambda": 5,
            "drawnRed": 47,
            "reportedRed": 47,
            "inferredRed": 23,
            "playerTrialScore": -24,
            "oppTrialScore": 0,
            "playerTotalScore": -25,
            "oppTotalScore": -225,
            "waitTime": 6893.677284728807,
            "responseTime": 1678834031256,
            "catchQuestion": "How many <b class=\"r\">red<\/b> marbles did you actually draw (before any changes)? ",
            "catchKey": -1,
            "catchResponse": -1,
            "catchTime": 1678833970279,
            "trialTime": 0
        },
        {
            "exptPart": "trial",
            "trialNumber": 28,
            "roleCurrent": "sender",
            "marblesSampled": 100,
            "probRed": 0.5,
            "lambda": 5,
            "drawnRed": 59,
            "reportedRed": 68,
            "inferredRed": 59,
            "playerTrialScore": 0,
            "oppTrialScore": 0,
            "playerTotalScore": -25,
            "oppTotalScore": -225,
            "waitTime": 2234.6764836096636,
            "responseTime": 1678834044805,
            "catchQuestion": "How many <b class=\"r\">red<\/b> marbles did you actually draw (before any changes)? ",
            "catchKey": -1,
            "catchResponse": -1,
            "catchTime": 1678833970279,
            "trialTime": 0
        },
        {
            "exptPart": "trial",
            "trialNumber": 29,
            "roleCurrent": "receiver",
            "marblesSampled": 100,
            "probRed": 0.5,
            "lambda": 5,
            "drawnRed": 35,
            "reportedRed": 43,
            "inferredRed": 25,
            "playerTrialScore": -10,
            "oppTrialScore": 0,
            "playerTotalScore": -35,
            "oppTotalScore": -225,
            "waitTime": 5878.814518177605,
            "responseTime": 1678834053845,
            "catchQuestion": "How many <b class=\"r\">red<\/b> marbles did you actually draw (before any changes)? ",
            "catchKey": -1,
            "catchResponse": -1,
            "catchTime": 1678833970279,
            "trialTime": 0
        },
        {
            "exptPart": "trial",
            "trialNumber": 30,
            "roleCurrent": "sender",
            "marblesSampled": 100,
            "probRed": 0.5,
            "lambda": 5,
            "drawnRed": 36,
            "reportedRed": 47,
            "inferredRed": 39,
            "playerTrialScore": 3,
            "oppTrialScore": -3,
            "playerTotalScore": -32,
            "oppTotalScore": -228,
            "waitTime": 2405.9501483552503,
            "responseTime": 1678834070278,
            "catchQuestion": "How many <b class=\"r\">red<\/b> marbles did you actually draw (before any changes)? ",
            "catchKey": -1,
            "catchResponse": -1,
            "catchTime": 1678834070278,
            "trialTime": 0
        },
        {
            "exptPart": "trial",
            "trialNumber": 31,
            "roleCurrent": "receiver",
            "marblesSampled": 100,
            "probRed": 0.5,
            "lambda": 5,
            "drawnRed": 35,
            "reportedRed": 37,
            "inferredRed": 12,
            "playerTrialScore": -23,
            "oppTrialScore": 0,
            "playerTotalScore": -55,
            "oppTotalScore": -228,
            "waitTime": 7210.560132820696,
            "responseTime": 1678834085356,
            "catchQuestion": "How many <b class=\"r\">red<\/b> marbles did you actually draw (before any changes)? ",
            "catchKey": -1,
            "catchResponse": -1,
            "catchTime": 1678834070278,
            "trialTime": 0
        },
        {
            "exptPart": "trial",
            "trialNumber": 32,
            "roleCurrent": "sender",
            "marblesSampled": 100,
            "probRed": 0.5,
            "lambda": 5,
            "drawnRed": 44,
            "reportedRed": 59,
            "inferredRed": 55,
            "playerTrialScore": 11,
            "oppTrialScore": -11,
            "playerTotalScore": -44,
            "oppTotalScore": -239,
            "waitTime": 2953.6255357925393,
            "responseTime": 1678834104929,
            "catchQuestion": "How many <b class=\"r\">red<\/b> marbles did you actually draw (before any changes)? ",
            "catchKey": -1,
            "catchResponse": -1,
            "catchTime": 1678834070278,
            "trialTime": 0
        },
        {
            "exptPart": "trial",
            "trialNumber": 33,
            "roleCurrent": "receiver",
            "marblesSampled": 100,
            "probRed": 0.5,
            "lambda": 5,
            "drawnRed": 47,
            "reportedRed": 49,
            "inferredRed": 36,
            "playerTrialScore": -11,
            "oppTrialScore": 0,
            "playerTotalScore": -55,
            "oppTotalScore": -239,
            "waitTime": 5749.727443973608,
            "responseTime": 1678834116944,
            "catchQuestion": "How many <b class=\"r\">red<\/b> marbles did you actually draw (before any changes)? ",
            "catchKey": -1,
            "catchResponse": -1,
            "catchTime": 1678834070278,
            "trialTime": 0
        },
        {
            "exptPart": "trial",
            "trialNumber": 34,
            "roleCurrent": "sender",
            "marblesSampled": 100,
            "probRed": 0.5,
            "lambda": 5,
            "drawnRed": 39,
            "reportedRed": 45,
            "inferredRed": 40,
            "playerTrialScore": 1,
            "oppTrialScore": -1,
            "playerTotalScore": -54,
            "oppTotalScore": -240,
            "waitTime": 2688.4863222874174,
            "responseTime": 1678834129670,
            "catchQuestion": "How many <b class=\"r\">red<\/b> marbles did you actually draw (before any changes)? ",
            "catchKey": -1,
            "catchResponse": -1,
            "catchTime": 1678834070278,
            "trialTime": 0
        },
        {
            "exptPart": "trial",
            "trialNumber": 35,
            "roleCurrent": "receiver",
            "marblesSampled": 100,
            "probRed": 0.5,
            "lambda": 5,
            "drawnRed": 38,
            "reportedRed": 43,
            "inferredRed": 38,
            "playerTrialScore": 0,
            "oppTrialScore": 0,
            "playerTotalScore": -54,
            "oppTotalScore": -240,
            "waitTime": 6298.779800014379,
            "responseTime": 1678834142528,
            "catchQuestion": "How many <b class=\"r\">red<\/b> marbles did you actually draw (before any changes)? ",
            "catchKey": -1,
            "catchResponse": -1,
            "catchTime": 1678834142528,
            "trialTime": 0
        },
        {
            "exptPart": "trial",
            "trialNumber": 36,
            "roleCurrent": "sender",
            "marblesSampled": 100,
            "probRed": 0.5,
            "lambda": 5,
            "drawnRed": 77,
            "reportedRed": 44,
            "inferredRed": 39,
            "playerTrialScore": 0,
            "oppTrialScore": -38,
            "playerTotalScore": -54,
            "oppTotalScore": -278,
            "waitTime": 2948.365572789863,
            "responseTime": 1678834188563,
            "catchQuestion": "How many <b class=\"r\">red<\/b> marbles did you actually draw (before any changes)? ",
            "catchKey": -1,
            "catchResponse": -1,
            "catchTime": 1678834142528,
            "trialTime": 0
        },
        {
            "exptPart": "trial",
            "trialNumber": 37,
            "roleCurrent": "receiver",
            "marblesSampled": 100,
            "probRed": 0.5,
            "lambda": 5,
            "drawnRed": 44,
            "reportedRed": 51,
            "inferredRed": 43,
            "playerTrialScore": -1,
            "oppTrialScore": 0,
            "playerTotalScore": -55,
            "oppTotalScore": -278,
            "waitTime": 6674.889440624362,
            "responseTime": 1678834209529,
            "catchQuestion": "How many <b class=\"r\">red<\/b> marbles did your opponent report drawing? ",
            "catchKey": 51,
            "catchResponse": 43,
            "catchTime": 1678834209529,
            "trialTime": 0
        },
        {
            "exptPart": "trial",
            "trialNumber": 38,
            "roleCurrent": "sender",
            "marblesSampled": 100,
            "probRed": 0.5,
            "lambda": 5,
            "drawnRed": 14,
            "reportedRed": 39,
            "inferredRed": 37,
            "playerTrialScore": 23,
            "oppTrialScore": -23,
            "playerTotalScore": -32,
            "oppTotalScore": -301,
            "waitTime": 2104.1159102867728,
            "responseTime": 1678834255677,
            "catchQuestion": "How many <b class=\"r\">red<\/b> marbles did your opponent report drawing? ",
            "catchKey": -1,
            "catchResponse": -1,
            "catchTime": 1678834209529,
            "trialTime": 0
        },
        {
            "exptPart": "trial",
            "trialNumber": 39,
            "roleCurrent": "receiver",
            "marblesSampled": 100,
            "probRed": 0.5,
            "lambda": 5,
            "drawnRed": 79,
            "reportedRed": 87,
            "inferredRed": 67,
            "playerTrialScore": -12,
            "oppTrialScore": 0,
            "playerTotalScore": -44,
            "oppTotalScore": -301,
            "waitTime": 5542.176015684759,
            "responseTime": 1678834266118,
            "catchQuestion": "How many <b class=\"r\">red<\/b> marbles did your opponent report drawing? ",
            "catchKey": -1,
            "catchResponse": -1,
            "catchTime": 1678834209529,
            "trialTime": 0
        },
        {
            "exptPart": "trial",
            "trialNumber": 40,
            "roleCurrent": "sender",
            "marblesSampled": 100,
            "probRed": 0.5,
            "lambda": 5,
            "drawnRed": 71,
            "reportedRed": 76,
            "inferredRed": 72,
            "playerTrialScore": 1,
            "oppTrialScore": -1,
            "playerTotalScore": -43,
            "oppTotalScore": -302,
            "waitTime": 2316.867632080549,
            "responseTime": 1678834311345,
            "catchQuestion": "How many <b class=\"r\">red<\/b> marbles did your opponent report drawing? ",
            "catchKey": -1,
            "catchResponse": -1,
            "catchTime": 1678834311345,
            "trialTime": 0
        },
        {
            "exptPart": "trial",
            "trialNumber": 41,
            "roleCurrent": "receiver",
            "marblesSampled": 100,
            "probRed": 0.5,
            "lambda": 5,
            "drawnRed": 58,
            "reportedRed": 64,
            "inferredRed": 55,
            "playerTrialScore": -3,
            "oppTrialScore": 0,
            "playerTotalScore": -46,
            "oppTotalScore": -302,
            "waitTime": 5427.824939996307,
            "responseTime": 1678834324168,
            "catchQuestion": "How many <b class=\"r\">red<\/b> marbles did your opponent report drawing? ",
            "catchKey": -1,
            "catchResponse": -1,
            "catchTime": 1678834311345,
            "trialTime": 0
        },
        {
            "exptPart": "trial",
            "trialNumber": 42,
            "roleCurrent": "sender",
            "marblesSampled": 100,
            "probRed": 0.5,
            "lambda": 5,
            "drawnRed": 80,
            "reportedRed": 91,
            "inferredRed": 87,
            "playerTrialScore": 7,
            "oppTrialScore": -7,
            "playerTotalScore": -39,
            "oppTotalScore": -309,
            "waitTime": 2622.482206681243,
            "responseTime": 1678834345650,
            "catchQuestion": "How many <b class=\"r\">red<\/b> marbles did your opponent report drawing? ",
            "catchKey": -1,
            "catchResponse": -1,
            "catchTime": 1678834311345,
            "trialTime": 0
        },
        {
            "exptPart": "trial",
            "trialNumber": 43,
            "roleCurrent": "receiver",
            "marblesSampled": 100,
            "probRed": 0.5,
            "lambda": 5,
            "drawnRed": 80,
            "reportedRed": 83,
            "inferredRed": 76,
            "playerTrialScore": -4,
            "oppTrialScore": 0,
            "playerTotalScore": -43,
            "oppTotalScore": -309,
            "waitTime": 6906.655348392398,
            "responseTime": 1678834359186,
            "catchQuestion": "How many <b class=\"r\">red<\/b> marbles did your opponent report drawing? ",
            "catchKey": -1,
            "catchResponse": -1,
            "catchTime": 1678834311345,
            "trialTime": 0
        },
        {
            "exptPart": "trial",
            "trialNumber": 44,
            "roleCurrent": "sender",
            "marblesSampled": 100,
            "probRed": 0.5,
            "lambda": 5,
            "drawnRed": 50,
            "reportedRed": 68,
            "inferredRed": 65,
            "playerTrialScore": 15,
            "oppTrialScore": -15,
            "playerTotalScore": -28,
            "oppTotalScore": -324,
            "waitTime": 2496.0354401196173,
            "responseTime": 1678834387174,
            "catchQuestion": "How many <b class=\"r\">red<\/b> marbles did your opponent report drawing? ",
            "catchKey": -1,
            "catchResponse": -1,
            "catchTime": 1678834311345,
            "trialTime": 0
        },
        {
            "exptPart": "trial",
            "trialNumber": 45,
            "roleCurrent": "receiver",
            "marblesSampled": 100,
            "probRed": 0.5,
            "lambda": 5,
            "drawnRed": 66,
            "reportedRed": 69,
            "inferredRed": 45,
            "playerTrialScore": -21,
            "oppTrialScore": 0,
            "playerTotalScore": -49,
            "oppTotalScore": -324,
            "waitTime": 5191.116195926888,
            "responseTime": 1678834396157,
            "catchQuestion": "How many <b class=\"r\">red<\/b> marbles did your opponent report drawing? ",
            "catchKey": -1,
            "catchResponse": -1,
            "catchTime": 1678834396157,
            "trialTime": 0
        },
        {
            "exptPart": "trial",
            "trialNumber": 46,
            "roleCurrent": "sender",
            "marblesSampled": 100,
            "probRed": 0.5,
            "lambda": 5,
            "drawnRed": 41,
            "reportedRed": 54,
            "inferredRed": 51,
            "playerTrialScore": 10,
            "oppTrialScore": -10,
            "playerTotalScore": -39,
            "oppTotalScore": -334,
            "waitTime": 2325.8153200396328,
            "responseTime": 1678834419585,
            "catchQuestion": "How many <b class=\"r\">red<\/b> marbles did your opponent report drawing? ",
            "catchKey": -1,
            "catchResponse": -1,
            "catchTime": 1678834396157,
            "trialTime": 0
        },
        {
            "exptPart": "trial",
            "trialNumber": 47,
            "roleCurrent": "receiver",
            "marblesSampled": 100,
            "probRed": 0.5,
            "lambda": 5,
            "drawnRed": 76,
            "reportedRed": 82,
            "inferredRed": 65,
            "playerTrialScore": -11,
            "oppTrialScore": 0,
            "playerTotalScore": -50,
            "oppTotalScore": -334,
            "waitTime": 6903.943941269996,
            "responseTime": 1678834430026,
            "catchQuestion": "How many <b class=\"r\">red<\/b> marbles did your opponent report drawing? ",
            "catchKey": -1,
            "catchResponse": -1,
            "catchTime": 1678834396157,
            "trialTime": 0
        },
        {
            "exptPart": "trial",
            "trialNumber": 48,
            "roleCurrent": "sender",
            "marblesSampled": 100,
            "probRed": 0.5,
            "lambda": 5,
            "drawnRed": 36,
            "reportedRed": 46,
            "inferredRed": 35,
            "playerTrialScore": 0,
            "oppTrialScore": -1,
            "playerTotalScore": -50,
            "oppTotalScore": -335,
            "waitTime": 2939.1069036231415,
            "responseTime": 1678834448847,
            "catchQuestion": "How many <b class=\"r\">red<\/b> marbles did your opponent report drawing? ",
            "catchKey": -1,
            "catchResponse": -1,
            "catchTime": 1678834396157,
            "trialTime": 0
        },
        {
            "exptPart": "trial",
            "trialNumber": 49,
            "roleCurrent": "receiver",
            "marblesSampled": 100,
            "probRed": 0.5,
            "lambda": 5,
            "drawnRed": 52,
            "reportedRed": 55,
            "inferredRed": 34,
            "playerTrialScore": -18,
            "oppTrialScore": 0,
            "playerTotalScore": -68,
            "oppTotalScore": -335,
            "waitTime": 5192.531279992627,
            "responseTime": 1678834459202,
            "catchQuestion": "How many <b class=\"r\">red<\/b> marbles did your opponent report drawing? ",
            "catchKey": 55,
            "catchResponse": 55,
            "catchTime": 1678834459202,
            "trialTime": 0
        },
        {
            "exptPart": "trial",
            "trialNumber": 50,
            "roleCurrent": "sender",
            "marblesSampled": 100,
            "probRed": 0.5,
            "lambda": 5,
            "drawnRed": 24,
            "reportedRed": 39,
            "inferredRed": 31,
            "playerTrialScore": 7,
            "oppTrialScore": -7,
            "playerTotalScore": -61,
            "oppTotalScore": -342,
            "waitTime": 2464.004122086805,
            "responseTime": 1678834496485,
            "catchQuestion": "How many <b class=\"r\">red<\/b> marbles did your opponent report drawing? ",
            "catchKey": -1,
            "catchResponse": -1,
            "catchTime": 1678834496485,
            "trialTime": 0
        },
        {
            "exptPart": "trial",
            "trialNumber": 51,
            "roleCurrent": "receiver",
            "marblesSampled": 100,
            "probRed": 0.5,
            "lambda": 5,
            "drawnRed": 50,
            "reportedRed": 56,
            "inferredRed": 43,
            "playerTrialScore": -7,
            "oppTrialScore": 0,
            "playerTotalScore": -68,
            "oppTotalScore": -342,
            "waitTime": 5276.947997906602,
            "responseTime": 1678834512464,
            "catchQuestion": "How many <b class=\"r\">red<\/b> marbles did your opponent report drawing? ",
            "catchKey": -1,
            "catchResponse": -1,
            "catchTime": 1678834496485,
            "trialTime": 0
        },
        {
            "exptPart": "trial",
            "trialNumber": 52,
            "roleCurrent": "sender",
            "marblesSampled": 100,
            "probRed": 0.5,
            "lambda": 5,
            "drawnRed": 76,
            "reportedRed": 94,
            "inferredRed": 93,
            "playerTrialScore": 17,
            "oppTrialScore": -17,
            "playerTotalScore": -51,
            "oppTotalScore": -359,
            "waitTime": 2807.460917533101,
            "responseTime": 1678834541758,
            "catchQuestion": "How many <b class=\"r\">red<\/b> marbles did your opponent report drawing? ",
            "catchKey": -1,
            "catchResponse": -1,
            "catchTime": 1678834496485,
            "trialTime": 0
        },
        {
            "exptPart": "trial",
            "trialNumber": 53,
            "roleCurrent": "receiver",
            "marblesSampled": 100,
            "probRed": 0.5,
            "lambda": 5,
            "drawnRed": 72,
            "reportedRed": 78,
            "inferredRed": 56,
            "playerTrialScore": -16,
            "oppTrialScore": 0,
            "playerTotalScore": -67,
            "oppTotalScore": -359,
            "waitTime": 6932.05980416553,
            "responseTime": 1678834551817,
            "catchQuestion": "How many <b class=\"r\">red<\/b> marbles did your opponent report drawing? ",
            "catchKey": -1,
            "catchResponse": -1,
            "catchTime": 1678834496485,
            "trialTime": 0
        },
        {
            "exptPart": "trial",
            "trialNumber": 54,
            "roleCurrent": "sender",
            "marblesSampled": 100,
            "probRed": 0.5,
            "lambda": 5,
            "drawnRed": 0,
            "reportedRed": 100,
            "inferredRed": 93,
            "playerTrialScore": 93,
            "oppTrialScore": -93,
            "playerTotalScore": 26,
            "oppTotalScore": -452,
            "waitTime": 2082.9770917540045,
            "responseTime": 1678834624440,
            "catchQuestion": "How many <b class=\"r\">red<\/b> marbles did your opponent report drawing? ",
            "catchKey": -1,
            "catchResponse": -1,
            "catchTime": 1678834496485,
            "trialTime": 0
        },
        {
            "exptPart": "trial",
            "trialNumber": 55,
            "roleCurrent": "receiver",
            "marblesSampled": 100,
            "probRed": 0.5,
            "lambda": 5,
            "drawnRed": 74,
            "reportedRed": 78,
            "inferredRed": 42,
            "playerTrialScore": -32,
            "oppTrialScore": 0,
            "playerTotalScore": -6,
            "oppTotalScore": -452,
            "waitTime": 5326.821914550082,
            "responseTime": 1678834636241,
            "catchQuestion": "How many <b class=\"r\">red<\/b> marbles did your opponent report drawing? ",
            "catchKey": -1,
            "catchResponse": -1,
            "catchTime": 1678834636241,
            "trialTime": 0
        },
        {
            "exptPart": "trial",
            "trialNumber": 56,
            "roleCurrent": "sender",
            "marblesSampled": 100,
            "probRed": 0.5,
            "lambda": 5,
            "drawnRed": 30,
            "reportedRed": 55,
            "inferredRed": 49,
            "playerTrialScore": 19,
            "oppTrialScore": -19,
            "playerTotalScore": 13,
            "oppTotalScore": -471,
            "waitTime": 2220.1041926823236,
            "responseTime": 1678834701530,
            "catchQuestion": "How many <b class=\"r\">red<\/b> marbles did your opponent report drawing? ",
            "catchKey": -1,
            "catchResponse": -1,
            "catchTime": 1678834636241,
            "trialTime": 0
        },
        {
            "exptPart": "trial",
            "trialNumber": 57,
            "roleCurrent": "receiver",
            "marblesSampled": 100,
            "probRed": 0.5,
            "lambda": 5,
            "drawnRed": 80,
            "reportedRed": 87,
            "inferredRed": 57,
            "playerTrialScore": -23,
            "oppTrialScore": 0,
            "playerTotalScore": -10,
            "oppTotalScore": -471,
            "waitTime": 7191.676368911486,
            "responseTime": 1678834712890,
            "catchQuestion": "How many <b class=\"r\">red<\/b> marbles did your opponent report drawing? ",
            "catchKey": -1,
            "catchResponse": -1,
            "catchTime": 1678834636241,
            "trialTime": 0
        },
        {
            "exptPart": "trial",
            "trialNumber": 58,
            "roleCurrent": "sender",
            "marblesSampled": 100,
            "probRed": 0.5,
            "lambda": 5,
            "drawnRed": 90,
            "reportedRed": 100,
            "inferredRed": 97,
            "playerTrialScore": 7,
            "oppTrialScore": -7,
            "playerTotalScore": -3,
            "oppTotalScore": -478,
            "waitTime": 2234.977456801057,
            "responseTime": 1678834728806,
            "catchQuestion": "How many <b class=\"r\">red<\/b> marbles did your opponent report drawing? ",
            "catchKey": -1,
            "catchResponse": -1,
            "catchTime": 1678834636241,
            "trialTime": 0
        },
        {
            "exptPart": "trial",
            "trialNumber": 59,
            "roleCurrent": "receiver",
            "marblesSampled": 100,
            "probRed": 0.5,
            "lambda": 5,
            "drawnRed": 32,
            "reportedRed": 34,
            "inferredRed": 26,
            "playerTrialScore": -6,
            "oppTrialScore": 0,
            "playerTotalScore": -9,
            "oppTotalScore": -478,
            "waitTime": 6556.778778994946,
            "responseTime": 1678834741859,
            "catchQuestion": "How many <b class=\"r\">red<\/b> marbles did your opponent report drawing? ",
            "catchKey": -1,
            "catchResponse": -1,
            "catchTime": 1678834636241,
            "trialTime": 0
        },
        {
            "exptPart": "trial",
            "trialNumber": 60,
            "roleCurrent": "sender",
            "marblesSampled": 100,
            "probRed": 0.5,
            "lambda": 5,
            "drawnRed": 57,
            "reportedRed": 100,
            "inferredRed": 93,
            "playerTrialScore": 36,
            "oppTrialScore": -36,
            "playerTotalScore": 27,
            "oppTotalScore": -514,
            "waitTime": 2645.5709184733505,
            "responseTime": 1678834778752,
            "catchQuestion": "How many <b class=\"r\">red<\/b> marbles did your opponent report drawing? ",
            "catchKey": -1,
            "catchResponse": -1,
            "catchTime": 1678834778752,
            "trialTime": 0
        },
        {
            "exptPart": "trial",
            "trialNumber": 61,
            "roleCurrent": "receiver",
            "marblesSampled": 100,
            "probRed": 0.5,
            "lambda": 5,
            "drawnRed": 59,
            "reportedRed": 65,
            "inferredRed": 43,
            "playerTrialScore": -16,
            "oppTrialScore": 0,
            "playerTotalScore": 11,
            "oppTotalScore": -514,
            "waitTime": 7071.714315663654,
            "responseTime": 1678834791469,
            "catchQuestion": "How many <b class=\"r\">red<\/b> marbles did your opponent report drawing? ",
            "catchKey": -1,
            "catchResponse": -1,
            "catchTime": 1678834778752,
            "trialTime": 0
        },
        {
            "exptPart": "trial",
            "trialNumber": 62,
            "roleCurrent": "sender",
            "marblesSampled": 100,
            "probRed": 0.5,
            "lambda": 5,
            "drawnRed": 50,
            "reportedRed": 64,
            "inferredRed": 59,
            "playerTrialScore": 9,
            "oppTrialScore": -9,
            "playerTotalScore": 20,
            "oppTotalScore": -523,
            "waitTime": 2405.261720348002,
            "responseTime": 1678834805898,
            "catchQuestion": "How many <b class=\"r\">red<\/b> marbles did you actually draw (before any changes)? ",
            "catchKey": 50,
            "catchResponse": 50,
            "catchTime": 1678834805898,
            "trialTime": 0
        },
        {
            "exptPart": "trial",
            "trialNumber": 63,
            "roleCurrent": "receiver",
            "marblesSampled": 100,
            "probRed": 0.5,
            "lambda": 5,
            "drawnRed": 61,
            "reportedRed": 65,
            "inferredRed": 45,
            "playerTrialScore": -16,
            "oppTrialScore": 0,
            "playerTotalScore": 4,
            "oppTotalScore": -523,
            "waitTime": 7340.910563992125,
            "responseTime": 1678834823523,
            "catchQuestion": "How many <b class=\"r\">red<\/b> marbles did you actually draw (before any changes)? ",
            "catchKey": -1,
            "catchResponse": -1,
            "catchTime": 1678834805898,
            "trialTime": 0
        },
        {
            "exptPart": "trial",
            "trialNumber": 64,
            "roleCurrent": "sender",
            "marblesSampled": 100,
            "probRed": 0.5,
            "lambda": 5,
            "drawnRed": 71,
            "reportedRed": 100,
            "inferredRed": 87,
            "playerTrialScore": 16,
            "oppTrialScore": -16,
            "playerTotalScore": 20,
            "oppTotalScore": -539,
            "waitTime": 3023.5336218439325,
            "responseTime": 1678834852974,
            "catchQuestion": "How many <b class=\"r\">red<\/b> marbles did you actually draw (before any changes)? ",
            "catchKey": -1,
            "catchResponse": -1,
            "catchTime": 1678834805898,
            "trialTime": 0
        },
        {
            "exptPart": "trial",
            "trialNumber": 65,
            "roleCurrent": "receiver",
            "marblesSampled": 100,
            "probRed": 0.5,
            "lambda": 5,
            "drawnRed": 34,
            "reportedRed": 38,
            "inferredRed": 23,
            "playerTrialScore": -11,
            "oppTrialScore": 0,
            "playerTotalScore": 9,
            "oppTotalScore": -539,
            "waitTime": 5353.770272481865,
            "responseTime": 1678834861295,
            "catchQuestion": "How many <b class=\"r\">red<\/b> marbles did you actually draw (before any changes)? ",
            "catchKey": -1,
            "catchResponse": -1,
            "catchTime": 1678834861295,
            "trialTime": 0
        },
        {
            "exptPart": "trial",
            "trialNumber": 66,
            "roleCurrent": "sender",
            "marblesSampled": 100,
            "probRed": 0.5,
            "lambda": 5,
            "drawnRed": 39,
            "reportedRed": 65,
            "inferredRed": 58,
            "playerTrialScore": 19,
            "oppTrialScore": -19,
            "playerTotalScore": 28,
            "oppTotalScore": -558,
            "waitTime": 2614.7878163330693,
            "responseTime": 1678834890007,
            "catchQuestion": "How many <b class=\"r\">red<\/b> marbles did you actually draw (before any changes)? ",
            "catchKey": -1,
            "catchResponse": -1,
            "catchTime": 1678834861295,
            "trialTime": 0
        },
        {
            "exptPart": "trial",
            "trialNumber": 67,
            "roleCurrent": "receiver",
            "marblesSampled": 100,
            "probRed": 0.5,
            "lambda": 5,
            "drawnRed": 28,
            "reportedRed": 36,
            "inferredRed": 23,
            "playerTrialScore": -5,
            "oppTrialScore": 0,
            "playerTotalScore": 23,
            "oppTotalScore": -558,
            "waitTime": 5389.267208839984,
            "responseTime": 1678834900450,
            "catchQuestion": "How many <b class=\"r\">red<\/b> marbles did you actually draw (before any changes)? ",
            "catchKey": -1,
            "catchResponse": -1,
            "catchTime": 1678834861295,
            "trialTime": 0
        },
        {
            "exptPart": "trial",
            "trialNumber": 68,
            "roleCurrent": "sender",
            "marblesSampled": 100,
            "probRed": 0.5,
            "lambda": 5,
            "drawnRed": 66,
            "reportedRed": 84,
            "inferredRed": 79,
            "playerTrialScore": 13,
            "oppTrialScore": -13,
            "playerTotalScore": 36,
            "oppTotalScore": -571,
            "waitTime": 2346.926171440662,
            "responseTime": 1678834944510,
            "catchQuestion": "How many <b class=\"r\">red<\/b> marbles did you actually draw (before any changes)? ",
            "catchKey": -1,
            "catchResponse": -1,
            "catchTime": 1678834861295,
            "trialTime": 0
        },
        {
            "exptPart": "trial",
            "trialNumber": 69,
            "roleCurrent": "receiver",
            "marblesSampled": 100,
            "probRed": 0.5,
            "lambda": 5,
            "drawnRed": 58,
            "reportedRed": 61,
            "inferredRed": 54,
            "playerTrialScore": -4,
            "oppTrialScore": 0,
            "playerTotalScore": 32,
            "oppTotalScore": -571,
            "waitTime": 5165.502873176183,
            "responseTime": 1678834952858,
            "catchQuestion": "How many <b class=\"r\">red<\/b> marbles did you actually draw (before any changes)? ",
            "catchKey": -1,
            "catchResponse": -1,
            "catchTime": 1678834861295,
            "trialTime": 0
        },
        {
            "exptPart": "trial",
            "trialNumber": 70,
            "roleCurrent": "sender",
            "marblesSampled": 100,
            "probRed": 0.5,
            "lambda": 5,
            "drawnRed": 14,
            "reportedRed": 39,
            "inferredRed": 32,
            "playerTrialScore": 18,
            "oppTrialScore": -18,
            "playerTotalScore": 50,
            "oppTotalScore": -589,
            "waitTime": 2120.87294212683,
            "responseTime": 1678834980119,
            "catchQuestion": "How many <b class=\"r\">red<\/b> marbles did you actually draw (before any changes)? ",
            "catchKey": -1,
            "catchResponse": -1,
            "catchTime": 1678834980119,
            "trialTime": 0
        },
        {
            "exptPart": "trial",
            "trialNumber": 71,
            "roleCurrent": "receiver",
            "marblesSampled": 100,
            "probRed": 0.5,
            "lambda": 5,
            "drawnRed": 46,
            "reportedRed": 52,
            "inferredRed": 43,
            "playerTrialScore": -3,
            "oppTrialScore": 0,
            "playerTotalScore": 47,
            "oppTotalScore": -589,
            "waitTime": 5142.7965744742605,
            "responseTime": 1678834992586,
            "catchQuestion": "How many <b class=\"r\">red<\/b> marbles did you actually draw (before any changes)? ",
            "catchKey": -1,
            "catchResponse": -1,
            "catchTime": 1678834980119,
            "trialTime": 0
        },
        {
            "exptPart": "trial",
            "trialNumber": 72,
            "roleCurrent": "sender",
            "marblesSampled": 100,
            "probRed": 0.5,
            "lambda": 5,
            "drawnRed": 73,
            "reportedRed": 100,
            "inferredRed": 91,
            "playerTrialScore": 18,
            "oppTrialScore": -18,
            "playerTotalScore": 65,
            "oppTotalScore": -607,
            "waitTime": 2663.1309363863234,
            "responseTime": 1678835017954,
            "catchQuestion": "How many <b class=\"r\">red<\/b> marbles did you actually draw (before any changes)? ",
            "catchKey": 73,
            "catchResponse": 73,
            "catchTime": 1678835017954,
            "trialTime": 0
        },
        {
            "exptPart": "trial",
            "trialNumber": 73,
            "roleCurrent": "receiver",
            "marblesSampled": 100,
            "probRed": 0.5,
            "lambda": 5,
            "drawnRed": 68,
            "reportedRed": 74,
            "inferredRed": 56,
            "playerTrialScore": -12,
            "oppTrialScore": 0,
            "playerTotalScore": 53,
            "oppTotalScore": -607,
            "waitTime": 5572.966966170718,
            "responseTime": 1678835032940,
            "catchQuestion": "How many <b class=\"r\">red<\/b> marbles did you actually draw (before any changes)? ",
            "catchKey": -1,
            "catchResponse": -1,
            "catchTime": 1678835017954,
            "trialTime": 0
        },
        {
            "exptPart": "trial",
            "trialNumber": 74,
            "roleCurrent": "sender",
            "marblesSampled": 100,
            "probRed": 0.5,
            "lambda": 5,
            "drawnRed": 58,
            "reportedRed": 77,
            "inferredRed": 75,
            "playerTrialScore": 17,
            "oppTrialScore": -17,
            "playerTotalScore": 70,
            "oppTotalScore": -624,
            "waitTime": 2170.2371782694177,
            "responseTime": 1678835052045,
            "catchQuestion": "How many <b class=\"r\">red<\/b> marbles did you actually draw (before any changes)? ",
            "catchKey": -1,
            "catchResponse": -1,
            "catchTime": 1678835017954,
            "trialTime": 0
        },
        {
            "exptPart": "trial",
            "trialNumber": 75,
            "roleCurrent": "receiver",
            "marblesSampled": 100,
            "probRed": 0.5,
            "lambda": 5,
            "drawnRed": 45,
            "reportedRed": 54,
            "inferredRed": 43,
            "playerTrialScore": -2,
            "oppTrialScore": 0,
            "playerTotalScore": 68,
            "oppTotalScore": -624,
            "waitTime": 6174.137456333859,
            "responseTime": 1678835061152,
            "catchQuestion": "How many <b class=\"r\">red<\/b> marbles did your opponent report drawing? ",
            "catchKey": 54,
            "catchResponse": 53,
            "catchTime": 1678835061152,
            "trialTime": 0
        },
        {
            "exptPart": "trial",
            "trialNumber": 76,
            "roleCurrent": "sender",
            "marblesSampled": 100,
            "probRed": 0.5,
            "lambda": 5,
            "drawnRed": 27,
            "reportedRed": 77,
            "inferredRed": 75,
            "playerTrialScore": 48,
            "oppTrialScore": -48,
            "playerTotalScore": 116,
            "oppTotalScore": -672,
            "waitTime": 2985.2467045287594,
            "responseTime": 1678835110216,
            "catchQuestion": "How many <b class=\"r\">red<\/b> marbles did your opponent report drawing? ",
            "catchKey": -1,
            "catchResponse": -1,
            "catchTime": 1678835061152,
            "trialTime": 0
        },
        {
            "exptPart": "trial",
            "trialNumber": 77,
            "roleCurrent": "receiver",
            "marblesSampled": 100,
            "probRed": 0.5,
            "lambda": 5,
            "drawnRed": 70,
            "reportedRed": 80,
            "inferredRed": 56,
            "playerTrialScore": -14,
            "oppTrialScore": 0,
            "playerTotalScore": 102,
            "oppTotalScore": -672,
            "waitTime": 6176.647287992848,
            "responseTime": 1678835119500,
            "catchQuestion": "How many <b class=\"r\">red<\/b> marbles did your opponent report drawing? ",
            "catchKey": -1,
            "catchResponse": -1,
            "catchTime": 1678835061152,
            "trialTime": 0
        },
        {
            "exptPart": "trial",
            "trialNumber": 78,
            "roleCurrent": "sender",
            "marblesSampled": 100,
            "probRed": 0.5,
            "lambda": 5,
            "drawnRed": 37,
            "reportedRed": 66,
            "inferredRed": 58,
            "playerTrialScore": 21,
            "oppTrialScore": -21,
            "playerTotalScore": 123,
            "oppTotalScore": -693,
            "waitTime": 2660.2882082373762,
            "responseTime": 1678835145294,
            "catchQuestion": "How many <b class=\"r\">red<\/b> marbles did your opponent report drawing? ",
            "catchKey": -1,
            "catchResponse": -1,
            "catchTime": 1678835061152,
            "trialTime": 0
        },
        {
            "exptPart": "trial",
            "trialNumber": 79,
            "roleCurrent": "receiver",
            "marblesSampled": 100,
            "probRed": 0.5,
            "lambda": 5,
            "drawnRed": 24,
            "reportedRed": 30,
            "inferredRed": 26,
            "playerTrialScore": -2,
            "oppTrialScore": 2,
            "playerTotalScore": 121,
            "oppTotalScore": -691,
            "waitTime": 5409.499925543337,
            "responseTime": 1678835154123,
            "catchQuestion": "How many <b class=\"r\">red<\/b> marbles did your opponent report drawing? ",
            "catchKey": -1,
            "catchResponse": -1,
            "catchTime": 1678835061152,
            "trialTime": 0
        },
        {
            "exptPart": "trial",
            "trialNumber": 80,
            "roleCurrent": "sender",
            "marblesSampled": 100,
            "probRed": 0.5,
            "lambda": 5,
            "drawnRed": 34,
            "reportedRed": 63,
            "inferredRed": 62,
            "playerTrialScore": 28,
            "oppTrialScore": -28,
            "playerTotalScore": 149,
            "oppTotalScore": -719,
            "waitTime": 2931.9731724465737,
            "responseTime": 1678835179352,
            "catchQuestion": "How many <b class=\"r\">red<\/b> marbles did your opponent report drawing? ",
            "catchKey": -1,
            "catchResponse": -1,
            "catchTime": 1678835179352,
            "trialTime": 0
        },
        {
            "exptPart": "trial",
            "trialNumber": 81,
            "roleCurrent": "receiver",
            "marblesSampled": 100,
            "probRed": 0.5,
            "lambda": 5,
            "drawnRed": 60,
            "reportedRed": 68,
            "inferredRed": 57,
            "playerTrialScore": -3,
            "oppTrialScore": 0,
            "playerTotalScore": 146,
            "oppTotalScore": -719,
            "waitTime": 6661.12218180053,
            "responseTime": 1678835190271,
            "catchQuestion": "How many <b class=\"r\">red<\/b> marbles did your opponent report drawing? ",
            "catchKey": -1,
            "catchResponse": -1,
            "catchTime": 1678835179352,
            "trialTime": 0
        },
        {
            "exptPart": "trial",
            "trialNumber": 82,
            "roleCurrent": "sender",
            "marblesSampled": 100,
            "probRed": 0.5,
            "lambda": 5,
            "drawnRed": 58,
            "reportedRed": 80,
            "inferredRed": 73,
            "playerTrialScore": 15,
            "oppTrialScore": -15,
            "playerTotalScore": 161,
            "oppTotalScore": -734,
            "waitTime": 2143.186481541594,
            "responseTime": 1678835211875,
            "catchQuestion": "How many <b class=\"r\">red<\/b> marbles did your opponent report drawing? ",
            "catchKey": -1,
            "catchResponse": -1,
            "catchTime": 1678835179352,
            "trialTime": 0
        },
        {
            "exptPart": "trial",
            "trialNumber": 83,
            "roleCurrent": "receiver",
            "marblesSampled": 100,
            "probRed": 0.5,
            "lambda": 5,
            "drawnRed": 53,
            "reportedRed": 58,
            "inferredRed": 45,
            "playerTrialScore": -8,
            "oppTrialScore": 0,
            "playerTotalScore": 153,
            "oppTotalScore": -734,
            "waitTime": 6589.994264253795,
            "responseTime": 1678835223651,
            "catchQuestion": "How many <b class=\"r\">red<\/b> marbles did your opponent report drawing? ",
            "catchKey": -1,
            "catchResponse": -1,
            "catchTime": 1678835179352,
            "trialTime": 0
        },
        {
            "exptPart": "trial",
            "trialNumber": 84,
            "roleCurrent": "sender",
            "marblesSampled": 100,
            "probRed": 0.5,
            "lambda": 5,
            "drawnRed": 59,
            "reportedRed": 100,
            "inferredRed": 94,
            "playerTrialScore": 35,
            "oppTrialScore": -35,
            "playerTotalScore": 188,
            "oppTotalScore": -769,
            "waitTime": 3030.179812853561,
            "responseTime": 1678835262572,
            "catchQuestion": "How many <b class=\"r\">red<\/b> marbles did your opponent report drawing? ",
            "catchKey": -1,
            "catchResponse": -1,
            "catchTime": 1678835179352,
            "trialTime": 0
        },
        {
            "exptPart": "trial",
            "trialNumber": 85,
            "roleCurrent": "receiver",
            "marblesSampled": 100,
            "probRed": 0.5,
            "lambda": 5,
            "drawnRed": 80,
            "reportedRed": 86,
            "inferredRed": 67,
            "playerTrialScore": -13,
            "oppTrialScore": 0,
            "playerTotalScore": 175,
            "oppTotalScore": -769,
            "waitTime": 5638.844907636589,
            "responseTime": 1678835321350,
            "catchQuestion": "How many <b class=\"r\">red<\/b> marbles did your opponent report drawing? ",
            "catchKey": -1,
            "catchResponse": -1,
            "catchTime": 1678835321350,
            "trialTime": 0
        },
        {
            "exptPart": "trial",
            "trialNumber": 86,
            "roleCurrent": "sender",
            "marblesSampled": 100,
            "probRed": 0.5,
            "lambda": 5,
            "drawnRed": 68,
            "reportedRed": 91,
            "inferredRed": 88,
            "playerTrialScore": 20,
            "oppTrialScore": -20,
            "playerTotalScore": 195,
            "oppTotalScore": -789,
            "waitTime": 2881.9659541794977,
            "responseTime": 1678835351876,
            "catchQuestion": "How many <b class=\"r\">red<\/b> marbles did your opponent report drawing? ",
            "catchKey": -1,
            "catchResponse": -1,
            "catchTime": 1678835321350,
            "trialTime": 0
        },
        {
            "exptPart": "trial",
            "trialNumber": 87,
            "roleCurrent": "receiver",
            "marblesSampled": 100,
            "probRed": 0.5,
            "lambda": 5,
            "drawnRed": 68,
            "reportedRed": 73,
            "inferredRed": 56,
            "playerTrialScore": -12,
            "oppTrialScore": 0,
            "playerTotalScore": 183,
            "oppTotalScore": -789,
            "waitTime": 5282.2821360167645,
            "responseTime": 1678835363464,
            "catchQuestion": "How many <b class=\"r\">red<\/b> marbles did your opponent report drawing? ",
            "catchKey": 73,
            "catchResponse": 73,
            "catchTime": 1678835363464,
            "trialTime": 0
        },
        {
            "exptPart": "trial",
            "trialNumber": 88,
            "roleCurrent": "sender",
            "marblesSampled": 100,
            "probRed": 0.5,
            "lambda": 5,
            "drawnRed": 70,
            "reportedRed": 100,
            "inferredRed": 94,
            "playerTrialScore": 24,
            "oppTrialScore": -24,
            "playerTotalScore": 207,
            "oppTotalScore": -813,
            "waitTime": 2257.6481300043406,
            "responseTime": 1678835402847,
            "catchQuestion": "How many <b class=\"r\">red<\/b> marbles did your opponent report drawing? ",
            "catchKey": -1,
            "catchResponse": -1,
            "catchTime": 1678835363464,
            "trialTime": 0
        },
        {
            "exptPart": "trial",
            "trialNumber": 89,
            "roleCurrent": "receiver",
            "marblesSampled": 100,
            "probRed": 0.5,
            "lambda": 5,
            "drawnRed": 30,
            "reportedRed": 37,
            "inferredRed": 25,
            "playerTrialScore": -5,
            "oppTrialScore": 0,
            "playerTotalScore": 202,
            "oppTotalScore": -813,
            "waitTime": 6600.370960902665,
            "responseTime": 1678835414376,
            "catchQuestion": "How many <b class=\"r\">red<\/b> marbles did your opponent report drawing? ",
            "catchKey": -1,
            "catchResponse": -1,
            "catchTime": 1678835363464,
            "trialTime": 0
        },
        {
            "exptPart": "trial",
            "trialNumber": 90,
            "roleCurrent": "sender",
            "marblesSampled": 100,
            "probRed": 0.5,
            "lambda": 5,
            "drawnRed": 27,
            "reportedRed": 87,
            "inferredRed": 82,
            "playerTrialScore": 55,
            "oppTrialScore": -55,
            "playerTotalScore": 257,
            "oppTotalScore": -868,
            "waitTime": 2713.7036272505884,
            "responseTime": 1678835461023,
            "catchQuestion": "How many <b class=\"r\">red<\/b> marbles did your opponent report drawing? ",
            "catchKey": -1,
            "catchResponse": -1,
            "catchTime": 1678835461023,
            "trialTime": 0
        },
        {
            "exptPart": "trial",
            "trialNumber": 91,
            "roleCurrent": "receiver",
            "marblesSampled": 100,
            "probRed": 0.5,
            "lambda": 5,
            "drawnRed": 27,
            "reportedRed": 31,
            "inferredRed": 24,
            "playerTrialScore": -3,
            "oppTrialScore": 0,
            "playerTotalScore": 254,
            "oppTotalScore": -868,
            "waitTime": 6553.855065143351,
            "responseTime": 1678835473194,
            "catchQuestion": "How many <b class=\"r\">red<\/b> marbles did your opponent report drawing? ",
            "catchKey": -1,
            "catchResponse": -1,
            "catchTime": 1678835461023,
            "trialTime": 0
        },
        {
            "exptPart": "trial",
            "trialNumber": 92,
            "roleCurrent": "sender",
            "marblesSampled": 100,
            "probRed": 0.5,
            "lambda": 5,
            "drawnRed": 53,
            "reportedRed": 87,
            "inferredRed": 80,
            "playerTrialScore": 27,
            "oppTrialScore": -27,
            "playerTotalScore": 281,
            "oppTotalScore": -895,
            "waitTime": 2598.524909145172,
            "responseTime": 1678835506665,
            "catchQuestion": "How many <b class=\"r\">red<\/b> marbles did your opponent report drawing? ",
            "catchKey": -1,
            "catchResponse": -1,
            "catchTime": 1678835461023,
            "trialTime": 0
        },
        {
            "exptPart": "trial",
            "trialNumber": 93,
            "roleCurrent": "receiver",
            "marblesSampled": 100,
            "probRed": 0.5,
            "lambda": 5,
            "drawnRed": 64,
            "reportedRed": 67,
            "inferredRed": 56,
            "playerTrialScore": -8,
            "oppTrialScore": 0,
            "playerTotalScore": 273,
            "oppTotalScore": -895,
            "waitTime": 6731.924221772793,
            "responseTime": 1678835516633,
            "catchQuestion": "How many <b class=\"r\">red<\/b> marbles did your opponent report drawing? ",
            "catchKey": -1,
            "catchResponse": -1,
            "catchTime": 1678835461023,
            "trialTime": 0
        },
        {
            "exptPart": "trial",
            "trialNumber": 94,
            "roleCurrent": "sender",
            "marblesSampled": 100,
            "probRed": 0.5,
            "lambda": 5,
            "drawnRed": 75,
            "reportedRed": 100,
            "inferredRed": 100,
            "playerTrialScore": 25,
            "oppTrialScore": -25,
            "playerTotalScore": 298,
            "oppTotalScore": -920,
            "waitTime": 2286.176647813105,
            "responseTime": 1678835553489,
            "catchQuestion": "How many <b class=\"r\">red<\/b> marbles did your opponent report drawing? ",
            "catchKey": -1,
            "catchResponse": -1,
            "catchTime": 1678835461023,
            "trialTime": 0
        },
        {
            "exptPart": "trial",
            "trialNumber": 95,
            "roleCurrent": "receiver",
            "marblesSampled": 100,
            "probRed": 0.5,
            "lambda": 5,
            "drawnRed": 52,
            "reportedRed": 58,
            "inferredRed": 34,
            "playerTrialScore": -18,
            "oppTrialScore": 0,
            "playerTotalScore": 280,
            "oppTotalScore": -920,
            "waitTime": 6587.551690617363,
            "responseTime": 1678835563286,
            "catchQuestion": "How many <b class=\"r\">red<\/b> marbles did your opponent report drawing? ",
            "catchKey": -1,
            "catchResponse": -1,
            "catchTime": 1678835563286,
            "trialTime": 0
        },
        {
            "exptPart": "trial",
            "trialNumber": 96,
            "roleCurrent": "sender",
            "marblesSampled": 100,
            "probRed": 0.5,
            "lambda": 5,
            "drawnRed": 31,
            "reportedRed": 100,
            "inferredRed": 93,
            "playerTrialScore": 62,
            "oppTrialScore": -62,
            "playerTotalScore": 342,
            "oppTotalScore": -982,
            "waitTime": 2307.4323883368024,
            "responseTime": 1678835617359,
            "catchQuestion": "How many <b class=\"r\">red<\/b> marbles did your opponent report drawing? ",
            "catchKey": -1,
            "catchResponse": -1,
            "catchTime": 1678835563286,
            "trialTime": 0
        },
        {
            "exptPart": "trial",
            "trialNumber": 97,
            "roleCurrent": "receiver",
            "marblesSampled": 100,
            "probRed": 0.5,
            "lambda": 5,
            "drawnRed": 29,
            "reportedRed": 33,
            "inferredRed": 23,
            "playerTrialScore": -6,
            "oppTrialScore": 0,
            "playerTotalScore": 336,
            "oppTotalScore": -982,
            "waitTime": 6792.042442529497,
            "responseTime": 1678835629876,
            "catchQuestion": "How many <b class=\"r\">red<\/b> marbles did your opponent report drawing? ",
            "catchKey": -1,
            "catchResponse": -1,
            "catchTime": 1678835563286,
            "trialTime": 0
        },
        {
            "exptPart": "trial",
            "trialNumber": 98,
            "roleCurrent": "sender",
            "marblesSampled": 100,
            "probRed": 0.5,
            "lambda": 5,
            "drawnRed": 84,
            "reportedRed": 100,
            "inferredRed": 98,
            "playerTrialScore": 14,
            "oppTrialScore": -14,
            "playerTotalScore": 350,
            "oppTotalScore": -996,
            "waitTime": 3013.980522919903,
            "responseTime": 1678835650931,
            "catchQuestion": "How many <b class=\"r\">red<\/b> marbles did your opponent report drawing? ",
            "catchKey": -1,
            "catchResponse": -1,
            "catchTime": 1678835563286,
            "trialTime": 0
        },
        {
            "exptPart": "trial",
            "trialNumber": 99,
            "roleCurrent": "receiver",
            "marblesSampled": 100,
            "probRed": 0.5,
            "lambda": 5,
            "drawnRed": 51,
            "reportedRed": 59,
            "inferredRed": 38,
            "playerTrialScore": -13,
            "oppTrialScore": 0,
            "playerTotalScore": 337,
            "oppTotalScore": -996,
            "waitTime": 6669.997325206401,
            "responseTime": 1678835671374,
            "catchQuestion": "How many <b class=\"r\">red<\/b> marbles did your opponent report drawing? ",
            "catchKey": -1,
            "catchResponse": -1,
            "catchTime": 1678835563286,
            "trialTime": 0
        },
        {
            "exptPart": "trial",
            "trialNumber": 100,
            "roleCurrent": "sender",
            "marblesSampled": 100,
            "probRed": 0.5,
            "lambda": 5,
            "drawnRed": 55,
            "reportedRed": 100,
            "inferredRed": 95,
            "playerTrialScore": 40,
            "oppTrialScore": -40,
            "playerTotalScore": 377,
            "oppTotalScore": -1036,
            "waitTime": 2127.1011011127393,
            "responseTime": 1678835707269,
            "catchQuestion": "How many <b class=\"r\">red<\/b> marbles did your opponent report drawing? ",
            "catchKey": -1,
            "catchResponse": -1,
            "catchTime": 1678835707269,
            "trialTime": 0
        }
    ]
}