{
    "client": {
        "type": "sona",
        "experiment_id": 2228,
        "credit_token": "b315147ae43241ea9c65086cb510cfb7",
        "survey_code": "40394",
        "sid": "sona-40394",
        "window": {
            "width": 1324,
            "height": 710
        },
        "screen": {
            "width": 1440,
            "height": 900
        },
        "userAgent": "Mozilla\/5.0 (Macintosh; Intel Mac OS X 10_15_7) AppleWebKit\/605.1.15 (KHTML, like Gecko) Version\/16.3 Safari\/605.1.15",
        "score": 0,
        "bonus": 0
    },
    "expt": {
        "saveURL": "submit.simple.php",
        "trials": 100,
        "practiceTrials": 2,
        "marblesSampled": 100,
        "probRed": 0.5,
        "lambdaAI": 5,
        "roleFirst": "sender",
        "roles": [
            "sender",
            "receiver"
        ],
        "cost": "linear",
        "goal": "under",
        "goalInstructTxt": "above",
        "catchTrials": [
            16,
            41,
            6,
            63,
            46,
            49,
            70,
            30,
            53,
            47
        ],
        "scoreTotal": {
            "player": -27,
            "opp": -59
        },
        "sona": {
            "experiment_id": 2228,
            "credit_token": "b315147ae43241ea9c65086cb510cfb7"
        },
        "pilot": false,
        "debug": false
    },
    "trials": [
        {
            "exptPart": "practice",
            "trialNumber": 1,
            "roleCurrent": "sender",
            "marblesSampled": 100,
            "probRed": 0.5,
            "lambda": 5,
            "drawnRed": 43,
            "reportedRed": 38,
            "inferredRed": 39,
            "playerTrialScore": 4,
            "oppTrialScore": -4,
            "playerTotalScore": 4,
            "oppTotalScore": -4,
            "waitTime": 2081.9265019170507,
            "responseTime": 1680659891979,
            "catchQuestion": "How many <b class=\"r\">red<\/b> marbles did you actually draw (before any changes)? ",
            "catchKey": 43,
            "catchResponse": 43,
            "catchTime": 1680659891980,
            "trialTime": 0
        },
        {
            "exptPart": "practice",
            "trialNumber": 2,
            "roleCurrent": "receiver",
            "marblesSampled": 100,
            "probRed": 0.5,
            "lambda": 5,
            "drawnRed": 42,
            "reportedRed": 38,
            "inferredRed": 42,
            "playerTrialScore": 0,
            "oppTrialScore": 0,
            "playerTotalScore": 4,
            "oppTotalScore": -4,
            "waitTime": 6732.938513775605,
            "responseTime": 1680659939120,
            "catchQuestion": "How many <b class=\"r\">red<\/b> marbles did your opponent report drawing? ",
            "catchKey": 38,
            "catchResponse": 42,
            "catchTime": 1680659939120,
            "trialTime": 0
        },
        {
            "exptPart": "trial",
            "trialNumber": 1,
            "roleCurrent": "sender",
            "marblesSampled": 100,
            "probRed": 0.5,
            "lambda": 5,
            "drawnRed": 67,
            "reportedRed": 60,
            "inferredRed": 64,
            "playerTrialScore": 3,
            "oppTrialScore": -3,
            "playerTotalScore": 3,
            "oppTotalScore": -3,
            "waitTime": 2238.0264885112915,
            "responseTime": 1680660015793,
            "catchQuestion": "How many <b class=\"r\">red<\/b> marbles did your opponent report drawing? ",
            "catchKey": -1,
            "catchResponse": -1,
            "catchTime": 1680659939120,
            "trialTime": 0
        },
        {
            "exptPart": "trial",
            "trialNumber": 2,
            "roleCurrent": "receiver",
            "marblesSampled": 100,
            "probRed": 0.5,
            "lambda": 5,
            "drawnRed": 69,
            "reportedRed": 66,
            "inferredRed": 60,
            "playerTrialScore": -9,
            "oppTrialScore": 9,
            "playerTotalScore": -6,
            "oppTotalScore": 6,
            "waitTime": 6146.173545567186,
            "responseTime": 1680660034562,
            "catchQuestion": "How many <b class=\"r\">red<\/b> marbles did your opponent report drawing? ",
            "catchKey": -1,
            "catchResponse": -1,
            "catchTime": 1680659939120,
            "trialTime": 0
        },
        {
            "exptPart": "trial",
            "trialNumber": 3,
            "roleCurrent": "sender",
            "marblesSampled": 100,
            "probRed": 0.5,
            "lambda": 5,
            "drawnRed": 65,
            "reportedRed": 60,
            "inferredRed": 62,
            "playerTrialScore": 3,
            "oppTrialScore": -3,
            "playerTotalScore": -3,
            "oppTotalScore": 3,
            "waitTime": 2321.4235852095626,
            "responseTime": 1680660078494,
            "catchQuestion": "How many <b class=\"r\">red<\/b> marbles did your opponent report drawing? ",
            "catchKey": -1,
            "catchResponse": -1,
            "catchTime": 1680659939120,
            "trialTime": 0
        },
        {
            "exptPart": "trial",
            "trialNumber": 4,
            "roleCurrent": "receiver",
            "marblesSampled": 100,
            "probRed": 0.5,
            "lambda": 5,
            "drawnRed": 54,
            "reportedRed": 47,
            "inferredRed": 60,
            "playerTrialScore": -6,
            "oppTrialScore": 0,
            "playerTotalScore": -9,
            "oppTotalScore": 3,
            "waitTime": 7053.462428636856,
            "responseTime": 1680660092861,
            "catchQuestion": "How many <b class=\"r\">red<\/b> marbles did your opponent report drawing? ",
            "catchKey": -1,
            "catchResponse": -1,
            "catchTime": 1680659939120,
            "trialTime": 0
        },
        {
            "exptPart": "trial",
            "trialNumber": 5,
            "roleCurrent": "sender",
            "marblesSampled": 100,
            "probRed": 0.5,
            "lambda": 5,
            "drawnRed": 35,
            "reportedRed": 30,
            "inferredRed": 35,
            "playerTrialScore": 0,
            "oppTrialScore": 0,
            "playerTotalScore": -9,
            "oppTotalScore": 3,
            "waitTime": 3067.315022974194,
            "responseTime": 1680660128962,
            "catchQuestion": "How many <b class=\"r\">red<\/b> marbles did your opponent report drawing? ",
            "catchKey": -1,
            "catchResponse": -1,
            "catchTime": 1680660128962,
            "trialTime": 0
        },
        {
            "exptPart": "trial",
            "trialNumber": 6,
            "roleCurrent": "receiver",
            "marblesSampled": 100,
            "probRed": 0.5,
            "lambda": 5,
            "drawnRed": 37,
            "reportedRed": 35,
            "inferredRed": 40,
            "playerTrialScore": -3,
            "oppTrialScore": 0,
            "playerTotalScore": -12,
            "oppTotalScore": 3,
            "waitTime": 6476.554395495215,
            "responseTime": 1680660151330,
            "catchQuestion": "How many <b class=\"r\">red<\/b> marbles did your opponent report drawing? ",
            "catchKey": -1,
            "catchResponse": -1,
            "catchTime": 1680660128962,
            "trialTime": 0
        },
        {
            "exptPart": "trial",
            "trialNumber": 7,
            "roleCurrent": "sender",
            "marblesSampled": 100,
            "probRed": 0.5,
            "lambda": 5,
            "drawnRed": 45,
            "reportedRed": 40,
            "inferredRed": 44,
            "playerTrialScore": 1,
            "oppTrialScore": -1,
            "playerTotalScore": -11,
            "oppTotalScore": 2,
            "waitTime": 3060.9710943811206,
            "responseTime": 1680660179276,
            "catchQuestion": "How many <b class=\"r\">red<\/b> marbles did you actually draw (before any changes)? ",
            "catchKey": 45,
            "catchResponse": 45,
            "catchTime": 1680660179276,
            "trialTime": 0
        },
        {
            "exptPart": "trial",
            "trialNumber": 8,
            "roleCurrent": "receiver",
            "marblesSampled": 100,
            "probRed": 0.5,
            "lambda": 5,
            "drawnRed": 80,
            "reportedRed": 74,
            "inferredRed": 72,
            "playerTrialScore": -8,
            "oppTrialScore": 8,
            "playerTotalScore": -19,
            "oppTotalScore": 10,
            "waitTime": 5155.509108064814,
            "responseTime": 1680660216565,
            "catchQuestion": "How many <b class=\"r\">red<\/b> marbles did you actually draw (before any changes)? ",
            "catchKey": -1,
            "catchResponse": -1,
            "catchTime": 1680660179276,
            "trialTime": 0
        },
        {
            "exptPart": "trial",
            "trialNumber": 9,
            "roleCurrent": "sender",
            "marblesSampled": 100,
            "probRed": 0.5,
            "lambda": 5,
            "drawnRed": 37,
            "reportedRed": 30,
            "inferredRed": 31,
            "playerTrialScore": 6,
            "oppTrialScore": -6,
            "playerTotalScore": -13,
            "oppTotalScore": 4,
            "waitTime": 2083.1407706194277,
            "responseTime": 1680660252637,
            "catchQuestion": "How many <b class=\"r\">red<\/b> marbles did you actually draw (before any changes)? ",
            "catchKey": -1,
            "catchResponse": -1,
            "catchTime": 1680660179276,
            "trialTime": 0
        },
        {
            "exptPart": "trial",
            "trialNumber": 10,
            "roleCurrent": "receiver",
            "marblesSampled": 100,
            "probRed": 0.5,
            "lambda": 5,
            "drawnRed": 62,
            "reportedRed": 57,
            "inferredRed": 55,
            "playerTrialScore": -7,
            "oppTrialScore": 7,
            "playerTotalScore": -20,
            "oppTotalScore": 11,
            "waitTime": 5143.031851496052,
            "responseTime": 1680660264900,
            "catchQuestion": "How many <b class=\"r\">red<\/b> marbles did you actually draw (before any changes)? ",
            "catchKey": -1,
            "catchResponse": -1,
            "catchTime": 1680660264900,
            "trialTime": 0
        },
        {
            "exptPart": "trial",
            "trialNumber": 11,
            "roleCurrent": "sender",
            "marblesSampled": 100,
            "probRed": 0.5,
            "lambda": 5,
            "drawnRed": 68,
            "reportedRed": 60,
            "inferredRed": 63,
            "playerTrialScore": 5,
            "oppTrialScore": -5,
            "playerTotalScore": -15,
            "oppTotalScore": 6,
            "waitTime": 2693.240146590448,
            "responseTime": 1680660300960,
            "catchQuestion": "How many <b class=\"r\">red<\/b> marbles did you actually draw (before any changes)? ",
            "catchKey": -1,
            "catchResponse": -1,
            "catchTime": 1680660264900,
            "trialTime": 0
        },
        {
            "exptPart": "trial",
            "trialNumber": 12,
            "roleCurrent": "receiver",
            "marblesSampled": 100,
            "probRed": 0.5,
            "lambda": 5,
            "drawnRed": 25,
            "reportedRed": 21,
            "inferredRed": 23,
            "playerTrialScore": -2,
            "oppTrialScore": 2,
            "playerTotalScore": -17,
            "oppTotalScore": 8,
            "waitTime": 5469.559262045597,
            "responseTime": 1680660314309,
            "catchQuestion": "How many <b class=\"r\">red<\/b> marbles did you actually draw (before any changes)? ",
            "catchKey": -1,
            "catchResponse": -1,
            "catchTime": 1680660264900,
            "trialTime": 0
        },
        {
            "exptPart": "trial",
            "trialNumber": 13,
            "roleCurrent": "sender",
            "marblesSampled": 100,
            "probRed": 0.5,
            "lambda": 5,
            "drawnRed": 70,
            "reportedRed": 60,
            "inferredRed": 63,
            "playerTrialScore": 7,
            "oppTrialScore": -7,
            "playerTotalScore": -10,
            "oppTotalScore": 1,
            "waitTime": 2135.95445981566,
            "responseTime": 1680660358563,
            "catchQuestion": "How many <b class=\"r\">red<\/b> marbles did you actually draw (before any changes)? ",
            "catchKey": -1,
            "catchResponse": -1,
            "catchTime": 1680660264900,
            "trialTime": 0
        },
        {
            "exptPart": "trial",
            "trialNumber": 14,
            "roleCurrent": "receiver",
            "marblesSampled": 100,
            "probRed": 0.5,
            "lambda": 5,
            "drawnRed": 52,
            "reportedRed": 51,
            "inferredRed": 54,
            "playerTrialScore": -2,
            "oppTrialScore": 0,
            "playerTotalScore": -12,
            "oppTotalScore": 1,
            "waitTime": 7342.967139695351,
            "responseTime": 1680660373473,
            "catchQuestion": "How many <b class=\"r\">red<\/b> marbles did you actually draw (before any changes)? ",
            "catchKey": -1,
            "catchResponse": -1,
            "catchTime": 1680660264900,
            "trialTime": 0
        },
        {
            "exptPart": "trial",
            "trialNumber": 15,
            "roleCurrent": "sender",
            "marblesSampled": 100,
            "probRed": 0.5,
            "lambda": 5,
            "drawnRed": 51,
            "reportedRed": 44,
            "inferredRed": 50,
            "playerTrialScore": 1,
            "oppTrialScore": -1,
            "playerTotalScore": -11,
            "oppTotalScore": 0,
            "waitTime": 2087.980456700843,
            "responseTime": 1680660401268,
            "catchQuestion": "How many <b class=\"r\">red<\/b> marbles did you actually draw (before any changes)? ",
            "catchKey": -1,
            "catchResponse": -1,
            "catchTime": 1680660401268,
            "trialTime": 0
        },
        {
            "exptPart": "trial",
            "trialNumber": 16,
            "roleCurrent": "receiver",
            "marblesSampled": 100,
            "probRed": 0.5,
            "lambda": 5,
            "drawnRed": 39,
            "reportedRed": 33,
            "inferredRed": 35,
            "playerTrialScore": -4,
            "oppTrialScore": 4,
            "playerTotalScore": -15,
            "oppTotalScore": 4,
            "waitTime": 6521.181076621922,
            "responseTime": 1680660415555,
            "catchQuestion": "How many <b class=\"r\">red<\/b> marbles did you actually draw (before any changes)? ",
            "catchKey": -1,
            "catchResponse": -1,
            "catchTime": 1680660401268,
            "trialTime": 0
        },
        {
            "exptPart": "trial",
            "trialNumber": 17,
            "roleCurrent": "sender",
            "marblesSampled": 100,
            "probRed": 0.5,
            "lambda": 5,
            "drawnRed": 50,
            "reportedRed": 45,
            "inferredRed": 52,
            "playerTrialScore": 0,
            "oppTrialScore": -2,
            "playerTotalScore": -15,
            "oppTotalScore": 2,
            "waitTime": 2851.921320131728,
            "responseTime": 1680660439394,
            "catchQuestion": "How many <b class=\"r\">red<\/b> marbles did you actually draw (before any changes)? ",
            "catchKey": 50,
            "catchResponse": 50,
            "catchTime": 1680660439394,
            "trialTime": 0
        },
        {
            "exptPart": "trial",
            "trialNumber": 18,
            "roleCurrent": "receiver",
            "marblesSampled": 100,
            "probRed": 0.5,
            "lambda": 5,
            "drawnRed": 55,
            "reportedRed": 49,
            "inferredRed": 51,
            "playerTrialScore": -4,
            "oppTrialScore": 4,
            "playerTotalScore": -19,
            "oppTotalScore": 6,
            "waitTime": 6453.122781241807,
            "responseTime": 1680660462167,
            "catchQuestion": "How many <b class=\"r\">red<\/b> marbles did you actually draw (before any changes)? ",
            "catchKey": -1,
            "catchResponse": -1,
            "catchTime": 1680660439394,
            "trialTime": 0
        },
        {
            "exptPart": "trial",
            "trialNumber": 19,
            "roleCurrent": "sender",
            "marblesSampled": 100,
            "probRed": 0.5,
            "lambda": 5,
            "drawnRed": 59,
            "reportedRed": 55,
            "inferredRed": 60,
            "playerTrialScore": 0,
            "oppTrialScore": -1,
            "playerTotalScore": -19,
            "oppTotalScore": 5,
            "waitTime": 2452.0886214550346,
            "responseTime": 1680660480968,
            "catchQuestion": "How many <b class=\"r\">red<\/b> marbles did you actually draw (before any changes)? ",
            "catchKey": -1,
            "catchResponse": -1,
            "catchTime": 1680660439394,
            "trialTime": 0
        },
        {
            "exptPart": "trial",
            "trialNumber": 20,
            "roleCurrent": "receiver",
            "marblesSampled": 100,
            "probRed": 0.5,
            "lambda": 5,
            "drawnRed": 13,
            "reportedRed": 9,
            "inferredRed": 13,
            "playerTrialScore": 0,
            "oppTrialScore": 0,
            "playerTotalScore": -19,
            "oppTotalScore": 5,
            "waitTime": 6785.422383245477,
            "responseTime": 1680660495855,
            "catchQuestion": "How many <b class=\"r\">red<\/b> marbles did you actually draw (before any changes)? ",
            "catchKey": -1,
            "catchResponse": -1,
            "catchTime": 1680660495855,
            "trialTime": 0
        },
        {
            "exptPart": "trial",
            "trialNumber": 21,
            "roleCurrent": "sender",
            "marblesSampled": 100,
            "probRed": 0.5,
            "lambda": 5,
            "drawnRed": 35,
            "reportedRed": 30,
            "inferredRed": 37,
            "playerTrialScore": 0,
            "oppTrialScore": -2,
            "playerTotalScore": -19,
            "oppTotalScore": 3,
            "waitTime": 2957.5941716710795,
            "responseTime": 1680660519998,
            "catchQuestion": "How many <b class=\"r\">red<\/b> marbles did you actually draw (before any changes)? ",
            "catchKey": -1,
            "catchResponse": -1,
            "catchTime": 1680660495855,
            "trialTime": 0
        },
        {
            "exptPart": "trial",
            "trialNumber": 22,
            "roleCurrent": "receiver",
            "marblesSampled": 100,
            "probRed": 0.5,
            "lambda": 5,
            "drawnRed": 65,
            "reportedRed": 62,
            "inferredRed": 65,
            "playerTrialScore": 0,
            "oppTrialScore": 0,
            "playerTotalScore": -19,
            "oppTotalScore": 3,
            "waitTime": 5394.219953498358,
            "responseTime": 1680660529534,
            "catchQuestion": "How many <b class=\"r\">red<\/b> marbles did you actually draw (before any changes)? ",
            "catchKey": -1,
            "catchResponse": -1,
            "catchTime": 1680660495855,
            "trialTime": 0
        },
        {
            "exptPart": "trial",
            "trialNumber": 23,
            "roleCurrent": "sender",
            "marblesSampled": 100,
            "probRed": 0.5,
            "lambda": 5,
            "drawnRed": 61,
            "reportedRed": 54,
            "inferredRed": 57,
            "playerTrialScore": 4,
            "oppTrialScore": -4,
            "playerTotalScore": -15,
            "oppTotalScore": -1,
            "waitTime": 2612.56259706629,
            "responseTime": 1680660555378,
            "catchQuestion": "How many <b class=\"r\">red<\/b> marbles did you actually draw (before any changes)? ",
            "catchKey": -1,
            "catchResponse": -1,
            "catchTime": 1680660495855,
            "trialTime": 0
        },
        {
            "exptPart": "trial",
            "trialNumber": 24,
            "roleCurrent": "receiver",
            "marblesSampled": 100,
            "probRed": 0.5,
            "lambda": 5,
            "drawnRed": 70,
            "reportedRed": 64,
            "inferredRed": 67,
            "playerTrialScore": -3,
            "oppTrialScore": 3,
            "playerTotalScore": -18,
            "oppTotalScore": 2,
            "waitTime": 5476.098663011691,
            "responseTime": 1680660568524,
            "catchQuestion": "How many <b class=\"r\">red<\/b> marbles did you actually draw (before any changes)? ",
            "catchKey": -1,
            "catchResponse": -1,
            "catchTime": 1680660495855,
            "trialTime": 0
        },
        {
            "exptPart": "trial",
            "trialNumber": 25,
            "roleCurrent": "sender",
            "marblesSampled": 100,
            "probRed": 0.5,
            "lambda": 5,
            "drawnRed": 40,
            "reportedRed": 30,
            "inferredRed": 33,
            "playerTrialScore": 7,
            "oppTrialScore": -7,
            "playerTotalScore": -11,
            "oppTotalScore": -5,
            "waitTime": 2072.2030183719453,
            "responseTime": 1680660617813,
            "catchQuestion": "How many <b class=\"r\">red<\/b> marbles did you actually draw (before any changes)? ",
            "catchKey": -1,
            "catchResponse": -1,
            "catchTime": 1680660617813,
            "trialTime": 0
        },
        {
            "exptPart": "trial",
            "trialNumber": 26,
            "roleCurrent": "receiver",
            "marblesSampled": 100,
            "probRed": 0.5,
            "lambda": 5,
            "drawnRed": 73,
            "reportedRed": 64,
            "inferredRed": 67,
            "playerTrialScore": -6,
            "oppTrialScore": 6,
            "playerTotalScore": -17,
            "oppTotalScore": 1,
            "waitTime": 7141.766851720724,
            "responseTime": 1680660640340,
            "catchQuestion": "How many <b class=\"r\">red<\/b> marbles did you actually draw (before any changes)? ",
            "catchKey": -1,
            "catchResponse": -1,
            "catchTime": 1680660617813,
            "trialTime": 0
        },
        {
            "exptPart": "trial",
            "trialNumber": 27,
            "roleCurrent": "sender",
            "marblesSampled": 100,
            "probRed": 0.5,
            "lambda": 5,
            "drawnRed": 20,
            "reportedRed": 15,
            "inferredRed": 25,
            "playerTrialScore": 0,
            "oppTrialScore": -5,
            "playerTotalScore": -17,
            "oppTotalScore": -4,
            "waitTime": 2599.586549944319,
            "responseTime": 1680660662683,
            "catchQuestion": "How many <b class=\"r\">red<\/b> marbles did you actually draw (before any changes)? ",
            "catchKey": -1,
            "catchResponse": -1,
            "catchTime": 1680660617813,
            "trialTime": 0
        },
        {
            "exptPart": "trial",
            "trialNumber": 28,
            "roleCurrent": "receiver",
            "marblesSampled": 100,
            "probRed": 0.5,
            "lambda": 5,
            "drawnRed": 67,
            "reportedRed": 63,
            "inferredRed": 67,
            "playerTrialScore": 0,
            "oppTrialScore": 0,
            "playerTotalScore": -17,
            "oppTotalScore": -4,
            "waitTime": 5262.78980627391,
            "responseTime": 1680660675134,
            "catchQuestion": "How many <b class=\"r\">red<\/b> marbles did you actually draw (before any changes)? ",
            "catchKey": -1,
            "catchResponse": -1,
            "catchTime": 1680660617813,
            "trialTime": 0
        },
        {
            "exptPart": "trial",
            "trialNumber": 29,
            "roleCurrent": "sender",
            "marblesSampled": 100,
            "probRed": 0.5,
            "lambda": 5,
            "drawnRed": 42,
            "reportedRed": 35,
            "inferredRed": 40,
            "playerTrialScore": 2,
            "oppTrialScore": -2,
            "playerTotalScore": -15,
            "oppTotalScore": -6,
            "waitTime": 2684.824013764143,
            "responseTime": 1680660702348,
            "catchQuestion": "How many <b class=\"r\">red<\/b> marbles did you actually draw (before any changes)? ",
            "catchKey": -1,
            "catchResponse": -1,
            "catchTime": 1680660617813,
            "trialTime": 0
        },
        {
            "exptPart": "trial",
            "trialNumber": 30,
            "roleCurrent": "receiver",
            "marblesSampled": 100,
            "probRed": 0.5,
            "lambda": 5,
            "drawnRed": 59,
            "reportedRed": 54,
            "inferredRed": 55,
            "playerTrialScore": -4,
            "oppTrialScore": 4,
            "playerTotalScore": -19,
            "oppTotalScore": -2,
            "waitTime": 5255.677151926609,
            "responseTime": 1680660711466,
            "catchQuestion": "How many <b class=\"r\">red<\/b> marbles did you actually draw (before any changes)? ",
            "catchKey": -1,
            "catchResponse": -1,
            "catchTime": 1680660711467,
            "trialTime": 0
        },
        {
            "exptPart": "trial",
            "trialNumber": 31,
            "roleCurrent": "sender",
            "marblesSampled": 100,
            "probRed": 0.5,
            "lambda": 5,
            "drawnRed": 43,
            "reportedRed": 40,
            "inferredRed": 45,
            "playerTrialScore": 0,
            "oppTrialScore": -2,
            "playerTotalScore": -19,
            "oppTotalScore": -4,
            "waitTime": 2544.905883182033,
            "responseTime": 1680660734100,
            "catchQuestion": "How many <b class=\"r\">red<\/b> marbles did you actually draw (before any changes)? ",
            "catchKey": 43,
            "catchResponse": 43,
            "catchTime": 1680660734100,
            "trialTime": 0
        },
        {
            "exptPart": "trial",
            "trialNumber": 32,
            "roleCurrent": "receiver",
            "marblesSampled": 100,
            "probRed": 0.5,
            "lambda": 5,
            "drawnRed": 58,
            "reportedRed": 55,
            "inferredRed": 60,
            "playerTrialScore": -2,
            "oppTrialScore": 0,
            "playerTotalScore": -21,
            "oppTotalScore": -4,
            "waitTime": 5322.908204483296,
            "responseTime": 1680660759721,
            "catchQuestion": "How many <b class=\"r\">red<\/b> marbles did you actually draw (before any changes)? ",
            "catchKey": -1,
            "catchResponse": -1,
            "catchTime": 1680660734100,
            "trialTime": 0
        },
        {
            "exptPart": "trial",
            "trialNumber": 33,
            "roleCurrent": "sender",
            "marblesSampled": 100,
            "probRed": 0.5,
            "lambda": 5,
            "drawnRed": 74,
            "reportedRed": 65,
            "inferredRed": 69,
            "playerTrialScore": 5,
            "oppTrialScore": -5,
            "playerTotalScore": -16,
            "oppTotalScore": -9,
            "waitTime": 2626.135734986883,
            "responseTime": 1680660799465,
            "catchQuestion": "How many <b class=\"r\">red<\/b> marbles did you actually draw (before any changes)? ",
            "catchKey": -1,
            "catchResponse": -1,
            "catchTime": 1680660734100,
            "trialTime": 0
        },
        {
            "exptPart": "trial",
            "trialNumber": 34,
            "roleCurrent": "receiver",
            "marblesSampled": 100,
            "probRed": 0.5,
            "lambda": 5,
            "drawnRed": 39,
            "reportedRed": 33,
            "inferredRed": 35,
            "playerTrialScore": -4,
            "oppTrialScore": 4,
            "playerTotalScore": -20,
            "oppTotalScore": -5,
            "waitTime": 6189.1310488413255,
            "responseTime": 1680660813133,
            "catchQuestion": "How many <b class=\"r\">red<\/b> marbles did you actually draw (before any changes)? ",
            "catchKey": -1,
            "catchResponse": -1,
            "catchTime": 1680660734100,
            "trialTime": 0
        },
        {
            "exptPart": "trial",
            "trialNumber": 35,
            "roleCurrent": "sender",
            "marblesSampled": 100,
            "probRed": 0.5,
            "lambda": 5,
            "drawnRed": 45,
            "reportedRed": 40,
            "inferredRed": 43,
            "playerTrialScore": 2,
            "oppTrialScore": -2,
            "playerTotalScore": -18,
            "oppTotalScore": -7,
            "waitTime": 2709.208118727842,
            "responseTime": 1680660832410,
            "catchQuestion": "How many <b class=\"r\">red<\/b> marbles did you actually draw (before any changes)? ",
            "catchKey": -1,
            "catchResponse": -1,
            "catchTime": 1680660832411,
            "trialTime": 0
        },
        {
            "exptPart": "trial",
            "trialNumber": 36,
            "roleCurrent": "receiver",
            "marblesSampled": 100,
            "probRed": 0.5,
            "lambda": 5,
            "drawnRed": 85,
            "reportedRed": 80,
            "inferredRed": 85,
            "playerTrialScore": 0,
            "oppTrialScore": 0,
            "playerTotalScore": -18,
            "oppTotalScore": -7,
            "waitTime": 6737.798827863701,
            "responseTime": 1680660853633,
            "catchQuestion": "How many <b class=\"r\">red<\/b> marbles did you actually draw (before any changes)? ",
            "catchKey": -1,
            "catchResponse": -1,
            "catchTime": 1680660832411,
            "trialTime": 0
        },
        {
            "exptPart": "trial",
            "trialNumber": 37,
            "roleCurrent": "sender",
            "marblesSampled": 100,
            "probRed": 0.5,
            "lambda": 5,
            "drawnRed": 63,
            "reportedRed": 60,
            "inferredRed": 66,
            "playerTrialScore": 0,
            "oppTrialScore": -3,
            "playerTotalScore": -18,
            "oppTotalScore": -10,
            "waitTime": 2967.026032052455,
            "responseTime": 1680660873799,
            "catchQuestion": "How many <b class=\"r\">red<\/b> marbles did you actually draw (before any changes)? ",
            "catchKey": -1,
            "catchResponse": -1,
            "catchTime": 1680660832411,
            "trialTime": 0
        },
        {
            "exptPart": "trial",
            "trialNumber": 38,
            "roleCurrent": "receiver",
            "marblesSampled": 100,
            "probRed": 0.5,
            "lambda": 5,
            "drawnRed": 52,
            "reportedRed": 49,
            "inferredRed": 50,
            "playerTrialScore": -2,
            "oppTrialScore": 2,
            "playerTotalScore": -20,
            "oppTotalScore": -8,
            "waitTime": 5496.203292131543,
            "responseTime": 1680660884215,
            "catchQuestion": "How many <b class=\"r\">red<\/b> marbles did you actually draw (before any changes)? ",
            "catchKey": -1,
            "catchResponse": -1,
            "catchTime": 1680660832411,
            "trialTime": 0
        },
        {
            "exptPart": "trial",
            "trialNumber": 39,
            "roleCurrent": "sender",
            "marblesSampled": 100,
            "probRed": 0.5,
            "lambda": 5,
            "drawnRed": 47,
            "reportedRed": 40,
            "inferredRed": 45,
            "playerTrialScore": 2,
            "oppTrialScore": -2,
            "playerTotalScore": -18,
            "oppTotalScore": -10,
            "waitTime": 2921.9562328208585,
            "responseTime": 1680660916499,
            "catchQuestion": "How many <b class=\"r\">red<\/b> marbles did you actually draw (before any changes)? ",
            "catchKey": -1,
            "catchResponse": -1,
            "catchTime": 1680660832411,
            "trialTime": 0
        },
        {
            "exptPart": "trial",
            "trialNumber": 40,
            "roleCurrent": "receiver",
            "marblesSampled": 100,
            "probRed": 0.5,
            "lambda": 5,
            "drawnRed": 27,
            "reportedRed": 25,
            "inferredRed": 30,
            "playerTrialScore": -3,
            "oppTrialScore": 0,
            "playerTotalScore": -21,
            "oppTotalScore": -10,
            "waitTime": 6092.513792263886,
            "responseTime": 1680660930465,
            "catchQuestion": "How many <b class=\"r\">red<\/b> marbles did you actually draw (before any changes)? ",
            "catchKey": -1,
            "catchResponse": -1,
            "catchTime": 1680660930466,
            "trialTime": 0
        },
        {
            "exptPart": "trial",
            "trialNumber": 41,
            "roleCurrent": "sender",
            "marblesSampled": 100,
            "probRed": 0.5,
            "lambda": 5,
            "drawnRed": 45,
            "reportedRed": 40,
            "inferredRed": 43,
            "playerTrialScore": 2,
            "oppTrialScore": -2,
            "playerTotalScore": -19,
            "oppTotalScore": -12,
            "waitTime": 3027.3790678655896,
            "responseTime": 1680660960749,
            "catchQuestion": "How many <b class=\"r\">red<\/b> marbles did you actually draw (before any changes)? ",
            "catchKey": -1,
            "catchResponse": -1,
            "catchTime": 1680660930466,
            "trialTime": 0
        },
        {
            "exptPart": "trial",
            "trialNumber": 42,
            "roleCurrent": "receiver",
            "marblesSampled": 100,
            "probRed": 0.5,
            "lambda": 5,
            "drawnRed": 59,
            "reportedRed": 54,
            "inferredRed": 55,
            "playerTrialScore": -4,
            "oppTrialScore": 4,
            "playerTotalScore": -23,
            "oppTotalScore": -8,
            "waitTime": 6182.735462483341,
            "responseTime": 1680660970332,
            "catchQuestion": "How many <b class=\"r\">red<\/b> marbles did your opponent report drawing? ",
            "catchKey": 54,
            "catchResponse": 54,
            "catchTime": 1680660970332,
            "trialTime": 0
        },
        {
            "exptPart": "trial",
            "trialNumber": 43,
            "roleCurrent": "sender",
            "marblesSampled": 100,
            "probRed": 0.5,
            "lambda": 5,
            "drawnRed": 71,
            "reportedRed": 70,
            "inferredRed": 77,
            "playerTrialScore": 0,
            "oppTrialScore": -6,
            "playerTotalScore": -23,
            "oppTotalScore": -14,
            "waitTime": 2306.8711915279364,
            "responseTime": 1680660989998,
            "catchQuestion": "How many <b class=\"r\">red<\/b> marbles did your opponent report drawing? ",
            "catchKey": -1,
            "catchResponse": -1,
            "catchTime": 1680660970332,
            "trialTime": 0
        },
        {
            "exptPart": "trial",
            "trialNumber": 44,
            "roleCurrent": "receiver",
            "marblesSampled": 100,
            "probRed": 0.5,
            "lambda": 5,
            "drawnRed": 30,
            "reportedRed": 28,
            "inferredRed": 30,
            "playerTrialScore": 0,
            "oppTrialScore": 0,
            "playerTotalScore": -23,
            "oppTotalScore": -14,
            "waitTime": 7109.667440410978,
            "responseTime": 1680661001272,
            "catchQuestion": "How many <b class=\"r\">red<\/b> marbles did your opponent report drawing? ",
            "catchKey": -1,
            "catchResponse": -1,
            "catchTime": 1680660970332,
            "trialTime": 0
        },
        {
            "exptPart": "trial",
            "trialNumber": 45,
            "roleCurrent": "sender",
            "marblesSampled": 100,
            "probRed": 0.5,
            "lambda": 5,
            "drawnRed": 59,
            "reportedRed": 50,
            "inferredRed": 52,
            "playerTrialScore": 7,
            "oppTrialScore": -7,
            "playerTotalScore": -16,
            "oppTotalScore": -21,
            "waitTime": 2679.5500616858953,
            "responseTime": 1680661037448,
            "catchQuestion": "How many <b class=\"r\">red<\/b> marbles did your opponent report drawing? ",
            "catchKey": -1,
            "catchResponse": -1,
            "catchTime": 1680661037448,
            "trialTime": 0
        },
        {
            "exptPart": "trial",
            "trialNumber": 46,
            "roleCurrent": "receiver",
            "marblesSampled": 100,
            "probRed": 0.5,
            "lambda": 5,
            "drawnRed": 60,
            "reportedRed": 58,
            "inferredRed": 60,
            "playerTrialScore": 0,
            "oppTrialScore": 0,
            "playerTotalScore": -16,
            "oppTotalScore": -21,
            "waitTime": 5935.773662137409,
            "responseTime": 1680661049449,
            "catchQuestion": "How many <b class=\"r\">red<\/b> marbles did your opponent report drawing? ",
            "catchKey": -1,
            "catchResponse": -1,
            "catchTime": 1680661037448,
            "trialTime": 0
        },
        {
            "exptPart": "trial",
            "trialNumber": 47,
            "roleCurrent": "sender",
            "marblesSampled": 100,
            "probRed": 0.5,
            "lambda": 5,
            "drawnRed": 64,
            "reportedRed": 60,
            "inferredRed": 69,
            "playerTrialScore": 0,
            "oppTrialScore": -5,
            "playerTotalScore": -16,
            "oppTotalScore": -26,
            "waitTime": 2420.9875839921306,
            "responseTime": 1680661066960,
            "catchQuestion": "How many <b class=\"r\">red<\/b> marbles did you actually draw (before any changes)? ",
            "catchKey": 64,
            "catchResponse": 64,
            "catchTime": 1680661066960,
            "trialTime": 0
        },
        {
            "exptPart": "trial",
            "trialNumber": 48,
            "roleCurrent": "receiver",
            "marblesSampled": 100,
            "probRed": 0.5,
            "lambda": 5,
            "drawnRed": 20,
            "reportedRed": 18,
            "inferredRed": 20,
            "playerTrialScore": 0,
            "oppTrialScore": 0,
            "playerTotalScore": -16,
            "oppTotalScore": -26,
            "waitTime": 7099.072553346661,
            "responseTime": 1680661083332,
            "catchQuestion": "How many <b class=\"r\">red<\/b> marbles did your opponent report drawing? ",
            "catchKey": 18,
            "catchResponse": 18,
            "catchTime": 1680661083332,
            "trialTime": 0
        },
        {
            "exptPart": "trial",
            "trialNumber": 49,
            "roleCurrent": "sender",
            "marblesSampled": 100,
            "probRed": 0.5,
            "lambda": 5,
            "drawnRed": 32,
            "reportedRed": 30,
            "inferredRed": 33,
            "playerTrialScore": 0,
            "oppTrialScore": -1,
            "playerTotalScore": -16,
            "oppTotalScore": -27,
            "waitTime": 2964.5455775346436,
            "responseTime": 1680661101560,
            "catchQuestion": "How many <b class=\"r\">red<\/b> marbles did your opponent report drawing? ",
            "catchKey": -1,
            "catchResponse": -1,
            "catchTime": 1680661083332,
            "trialTime": 0
        },
        {
            "exptPart": "trial",
            "trialNumber": 50,
            "roleCurrent": "receiver",
            "marblesSampled": 100,
            "probRed": 0.5,
            "lambda": 5,
            "drawnRed": 20,
            "reportedRed": 18,
            "inferredRed": 20,
            "playerTrialScore": 0,
            "oppTrialScore": 0,
            "playerTotalScore": -16,
            "oppTotalScore": -27,
            "waitTime": 5720.408642236921,
            "responseTime": 1680661110265,
            "catchQuestion": "How many <b class=\"r\">red<\/b> marbles did your opponent report drawing? ",
            "catchKey": 18,
            "catchResponse": 18,
            "catchTime": 1680661110265,
            "trialTime": 0
        },
        {
            "exptPart": "trial",
            "trialNumber": 51,
            "roleCurrent": "sender",
            "marblesSampled": 100,
            "probRed": 0.5,
            "lambda": 5,
            "drawnRed": 87,
            "reportedRed": 80,
            "inferredRed": 82,
            "playerTrialScore": 5,
            "oppTrialScore": -5,
            "playerTotalScore": -11,
            "oppTotalScore": -32,
            "waitTime": 2552.5109029648065,
            "responseTime": 1680661139527,
            "catchQuestion": "How many <b class=\"r\">red<\/b> marbles did your opponent report drawing? ",
            "catchKey": -1,
            "catchResponse": -1,
            "catchTime": 1680661110265,
            "trialTime": 0
        },
        {
            "exptPart": "trial",
            "trialNumber": 52,
            "roleCurrent": "receiver",
            "marblesSampled": 100,
            "probRed": 0.5,
            "lambda": 5,
            "drawnRed": 47,
            "reportedRed": 42,
            "inferredRed": 45,
            "playerTrialScore": -2,
            "oppTrialScore": 2,
            "playerTotalScore": -13,
            "oppTotalScore": -30,
            "waitTime": 6296.365908547633,
            "responseTime": 1680661151980,
            "catchQuestion": "How many <b class=\"r\">red<\/b> marbles did your opponent report drawing? ",
            "catchKey": -1,
            "catchResponse": -1,
            "catchTime": 1680661110265,
            "trialTime": 0
        },
        {
            "exptPart": "trial",
            "trialNumber": 53,
            "roleCurrent": "sender",
            "marblesSampled": 100,
            "probRed": 0.5,
            "lambda": 5,
            "drawnRed": 15,
            "reportedRed": 10,
            "inferredRed": 11,
            "playerTrialScore": 4,
            "oppTrialScore": -4,
            "playerTotalScore": -9,
            "oppTotalScore": -34,
            "waitTime": 3188.439925970552,
            "responseTime": 1680661170915,
            "catchQuestion": "How many <b class=\"r\">red<\/b> marbles did your opponent report drawing? ",
            "catchKey": -1,
            "catchResponse": -1,
            "catchTime": 1680661110265,
            "trialTime": 0
        },
        {
            "exptPart": "trial",
            "trialNumber": 54,
            "roleCurrent": "receiver",
            "marblesSampled": 100,
            "probRed": 0.5,
            "lambda": 5,
            "drawnRed": 37,
            "reportedRed": 34,
            "inferredRed": 35,
            "playerTrialScore": -2,
            "oppTrialScore": 2,
            "playerTotalScore": -11,
            "oppTotalScore": -32,
            "waitTime": 6733.052739877683,
            "responseTime": 1680661180770,
            "catchQuestion": "How many <b class=\"r\">red<\/b> marbles did your opponent report drawing? ",
            "catchKey": 34,
            "catchResponse": 34,
            "catchTime": 1680661180770,
            "trialTime": 0
        },
        {
            "exptPart": "trial",
            "trialNumber": 55,
            "roleCurrent": "sender",
            "marblesSampled": 100,
            "probRed": 0.5,
            "lambda": 5,
            "drawnRed": 59,
            "reportedRed": 50,
            "inferredRed": 59,
            "playerTrialScore": 0,
            "oppTrialScore": 0,
            "playerTotalScore": -11,
            "oppTotalScore": -32,
            "waitTime": 2170.7500445849955,
            "responseTime": 1680661216582,
            "catchQuestion": "How many <b class=\"r\">red<\/b> marbles did your opponent report drawing? ",
            "catchKey": -1,
            "catchResponse": -1,
            "catchTime": 1680661216582,
            "trialTime": 0
        },
        {
            "exptPart": "trial",
            "trialNumber": 56,
            "roleCurrent": "receiver",
            "marblesSampled": 100,
            "probRed": 0.5,
            "lambda": 5,
            "drawnRed": 34,
            "reportedRed": 24,
            "inferredRed": 25,
            "playerTrialScore": -9,
            "oppTrialScore": 9,
            "playerTotalScore": -20,
            "oppTotalScore": -23,
            "waitTime": 6761.027018527086,
            "responseTime": 1680661229370,
            "catchQuestion": "How many <b class=\"r\">red<\/b> marbles did your opponent report drawing? ",
            "catchKey": -1,
            "catchResponse": -1,
            "catchTime": 1680661216582,
            "trialTime": 0
        },
        {
            "exptPart": "trial",
            "trialNumber": 57,
            "roleCurrent": "sender",
            "marblesSampled": 100,
            "probRed": 0.5,
            "lambda": 5,
            "drawnRed": 30,
            "reportedRed": 20,
            "inferredRed": 27,
            "playerTrialScore": 3,
            "oppTrialScore": -3,
            "playerTotalScore": -17,
            "oppTotalScore": -26,
            "waitTime": 2783.2399416083394,
            "responseTime": 1680661266682,
            "catchQuestion": "How many <b class=\"r\">red<\/b> marbles did your opponent report drawing? ",
            "catchKey": -1,
            "catchResponse": -1,
            "catchTime": 1680661216582,
            "trialTime": 0
        },
        {
            "exptPart": "trial",
            "trialNumber": 58,
            "roleCurrent": "receiver",
            "marblesSampled": 100,
            "probRed": 0.5,
            "lambda": 5,
            "drawnRed": 62,
            "reportedRed": 58,
            "inferredRed": 60,
            "playerTrialScore": -2,
            "oppTrialScore": 2,
            "playerTotalScore": -19,
            "oppTotalScore": -24,
            "waitTime": 6322.969930046995,
            "responseTime": 1680661277032,
            "catchQuestion": "How many <b class=\"r\">red<\/b> marbles did your opponent report drawing? ",
            "catchKey": -1,
            "catchResponse": -1,
            "catchTime": 1680661216582,
            "trialTime": 0
        },
        {
            "exptPart": "trial",
            "trialNumber": 59,
            "roleCurrent": "sender",
            "marblesSampled": 100,
            "probRed": 0.5,
            "lambda": 5,
            "drawnRed": 19,
            "reportedRed": 10,
            "inferredRed": 13,
            "playerTrialScore": 6,
            "oppTrialScore": -6,
            "playerTotalScore": -13,
            "oppTotalScore": -30,
            "waitTime": 2347.0654406584226,
            "responseTime": 1680661310531,
            "catchQuestion": "How many <b class=\"r\">red<\/b> marbles did your opponent report drawing? ",
            "catchKey": -1,
            "catchResponse": -1,
            "catchTime": 1680661216582,
            "trialTime": 0
        },
        {
            "exptPart": "trial",
            "trialNumber": 60,
            "roleCurrent": "receiver",
            "marblesSampled": 100,
            "probRed": 0.5,
            "lambda": 5,
            "drawnRed": 24,
            "reportedRed": 20,
            "inferredRed": 25,
            "playerTrialScore": -1,
            "oppTrialScore": 0,
            "playerTotalScore": -14,
            "oppTotalScore": -30,
            "waitTime": 5900.631625216239,
            "responseTime": 1680661319802,
            "catchQuestion": "How many <b class=\"r\">red<\/b> marbles did your opponent report drawing? ",
            "catchKey": -1,
            "catchResponse": -1,
            "catchTime": 1680661319803,
            "trialTime": 0
        },
        {
            "exptPart": "trial",
            "trialNumber": 61,
            "roleCurrent": "sender",
            "marblesSampled": 100,
            "probRed": 0.5,
            "lambda": 5,
            "drawnRed": 67,
            "reportedRed": 60,
            "inferredRed": 67,
            "playerTrialScore": 0,
            "oppTrialScore": 0,
            "playerTotalScore": -14,
            "oppTotalScore": -30,
            "waitTime": 2168.7844692717754,
            "responseTime": 1680661346431,
            "catchQuestion": "How many <b class=\"r\">red<\/b> marbles did your opponent report drawing? ",
            "catchKey": -1,
            "catchResponse": -1,
            "catchTime": 1680661319803,
            "trialTime": 0
        },
        {
            "exptPart": "trial",
            "trialNumber": 62,
            "roleCurrent": "receiver",
            "marblesSampled": 100,
            "probRed": 0.5,
            "lambda": 5,
            "drawnRed": 26,
            "reportedRed": 20,
            "inferredRed": 25,
            "playerTrialScore": -1,
            "oppTrialScore": 1,
            "playerTotalScore": -15,
            "oppTotalScore": -29,
            "waitTime": 7117.123436354193,
            "responseTime": 1680661357225,
            "catchQuestion": "How many <b class=\"r\">red<\/b> marbles did your opponent report drawing? ",
            "catchKey": -1,
            "catchResponse": -1,
            "catchTime": 1680661319803,
            "trialTime": 0
        },
        {
            "exptPart": "trial",
            "trialNumber": 63,
            "roleCurrent": "sender",
            "marblesSampled": 100,
            "probRed": 0.5,
            "lambda": 5,
            "drawnRed": 57,
            "reportedRed": 50,
            "inferredRed": 53,
            "playerTrialScore": 4,
            "oppTrialScore": -4,
            "playerTotalScore": -11,
            "oppTotalScore": -33,
            "waitTime": 2685.8997715412206,
            "responseTime": 1680661382832,
            "catchQuestion": "How many <b class=\"r\">red<\/b> marbles did your opponent report drawing? ",
            "catchKey": -1,
            "catchResponse": -1,
            "catchTime": 1680661319803,
            "trialTime": 0
        },
        {
            "exptPart": "trial",
            "trialNumber": 64,
            "roleCurrent": "receiver",
            "marblesSampled": 100,
            "probRed": 0.5,
            "lambda": 5,
            "drawnRed": 39,
            "reportedRed": 35,
            "inferredRed": 40,
            "playerTrialScore": -1,
            "oppTrialScore": 0,
            "playerTotalScore": -12,
            "oppTotalScore": -33,
            "waitTime": 6894.611926972338,
            "responseTime": 1680661395237,
            "catchQuestion": "How many <b class=\"r\">red<\/b> marbles did your opponent report drawing? ",
            "catchKey": 35,
            "catchResponse": 35,
            "catchTime": 1680661395237,
            "trialTime": 0
        },
        {
            "exptPart": "trial",
            "trialNumber": 65,
            "roleCurrent": "sender",
            "marblesSampled": 100,
            "probRed": 0.5,
            "lambda": 5,
            "drawnRed": 77,
            "reportedRed": 70,
            "inferredRed": 72,
            "playerTrialScore": 5,
            "oppTrialScore": -5,
            "playerTotalScore": -7,
            "oppTotalScore": -38,
            "waitTime": 2219.3886289888915,
            "responseTime": 1680661427716,
            "catchQuestion": "How many <b class=\"r\">red<\/b> marbles did your opponent report drawing? ",
            "catchKey": -1,
            "catchResponse": -1,
            "catchTime": 1680661427716,
            "trialTime": 0
        },
        {
            "exptPart": "trial",
            "trialNumber": 66,
            "roleCurrent": "receiver",
            "marblesSampled": 100,
            "probRed": 0.5,
            "lambda": 5,
            "drawnRed": 31,
            "reportedRed": 27,
            "inferredRed": 30,
            "playerTrialScore": -1,
            "oppTrialScore": 1,
            "playerTotalScore": -8,
            "oppTotalScore": -37,
            "waitTime": 5294.2005806131665,
            "responseTime": 1680661442914,
            "catchQuestion": "How many <b class=\"r\">red<\/b> marbles did your opponent report drawing? ",
            "catchKey": -1,
            "catchResponse": -1,
            "catchTime": 1680661427716,
            "trialTime": 0
        },
        {
            "exptPart": "trial",
            "trialNumber": 67,
            "roleCurrent": "sender",
            "marblesSampled": 100,
            "probRed": 0.5,
            "lambda": 5,
            "drawnRed": 38,
            "reportedRed": 30,
            "inferredRed": 32,
            "playerTrialScore": 6,
            "oppTrialScore": -6,
            "playerTotalScore": -2,
            "oppTotalScore": -43,
            "waitTime": 2133.6428179763843,
            "responseTime": 1680661476081,
            "catchQuestion": "How many <b class=\"r\">red<\/b> marbles did your opponent report drawing? ",
            "catchKey": -1,
            "catchResponse": -1,
            "catchTime": 1680661427716,
            "trialTime": 0
        },
        {
            "exptPart": "trial",
            "trialNumber": 68,
            "roleCurrent": "receiver",
            "marblesSampled": 100,
            "probRed": 0.5,
            "lambda": 5,
            "drawnRed": 49,
            "reportedRed": 44,
            "inferredRed": 45,
            "playerTrialScore": -4,
            "oppTrialScore": 4,
            "playerTotalScore": -6,
            "oppTotalScore": -39,
            "waitTime": 6318.360232058935,
            "responseTime": 1680661486969,
            "catchQuestion": "How many <b class=\"r\">red<\/b> marbles did your opponent report drawing? ",
            "catchKey": -1,
            "catchResponse": -1,
            "catchTime": 1680661427716,
            "trialTime": 0
        },
        {
            "exptPart": "trial",
            "trialNumber": 69,
            "roleCurrent": "sender",
            "marblesSampled": 100,
            "probRed": 0.5,
            "lambda": 5,
            "drawnRed": 33,
            "reportedRed": 30,
            "inferredRed": 38,
            "playerTrialScore": 0,
            "oppTrialScore": -5,
            "playerTotalScore": -6,
            "oppTotalScore": -44,
            "waitTime": 2557.814593745262,
            "responseTime": 1680661499415,
            "catchQuestion": "How many <b class=\"r\">red<\/b> marbles did your opponent report drawing? ",
            "catchKey": -1,
            "catchResponse": -1,
            "catchTime": 1680661427716,
            "trialTime": 0
        },
        {
            "exptPart": "trial",
            "trialNumber": 70,
            "roleCurrent": "receiver",
            "marblesSampled": 100,
            "probRed": 0.5,
            "lambda": 5,
            "drawnRed": 48,
            "reportedRed": 43,
            "inferredRed": 45,
            "playerTrialScore": -3,
            "oppTrialScore": 3,
            "playerTotalScore": -9,
            "oppTotalScore": -41,
            "waitTime": 7454.997171818002,
            "responseTime": 1680661509988,
            "catchQuestion": "How many <b class=\"r\">red<\/b> marbles did your opponent report drawing? ",
            "catchKey": -1,
            "catchResponse": -1,
            "catchTime": 1680661509988,
            "trialTime": 0
        },
        {
            "exptPart": "trial",
            "trialNumber": 71,
            "roleCurrent": "sender",
            "marblesSampled": 100,
            "probRed": 0.5,
            "lambda": 5,
            "drawnRed": 75,
            "reportedRed": 70,
            "inferredRed": 77,
            "playerTrialScore": 0,
            "oppTrialScore": -2,
            "playerTotalScore": -9,
            "oppTotalScore": -43,
            "waitTime": 3103.7998720514142,
            "responseTime": 1680661529697,
            "catchQuestion": "How many <b class=\"r\">red<\/b> marbles did you actually draw (before any changes)? ",
            "catchKey": 75,
            "catchResponse": 75,
            "catchTime": 1680661529697,
            "trialTime": 0
        },
        {
            "exptPart": "trial",
            "trialNumber": 72,
            "roleCurrent": "receiver",
            "marblesSampled": 100,
            "probRed": 0.5,
            "lambda": 5,
            "drawnRed": 29,
            "reportedRed": 24,
            "inferredRed": 25,
            "playerTrialScore": -4,
            "oppTrialScore": 4,
            "playerTotalScore": -13,
            "oppTotalScore": -39,
            "waitTime": 6525.236812534089,
            "responseTime": 1680661546214,
            "catchQuestion": "How many <b class=\"r\">red<\/b> marbles did you actually draw (before any changes)? ",
            "catchKey": -1,
            "catchResponse": -1,
            "catchTime": 1680661529697,
            "trialTime": 0
        },
        {
            "exptPart": "trial",
            "trialNumber": 73,
            "roleCurrent": "sender",
            "marblesSampled": 100,
            "probRed": 0.5,
            "lambda": 5,
            "drawnRed": 61,
            "reportedRed": 60,
            "inferredRed": 65,
            "playerTrialScore": 0,
            "oppTrialScore": -4,
            "playerTotalScore": -13,
            "oppTotalScore": -43,
            "waitTime": 2211.296095873842,
            "responseTime": 1680661557115,
            "catchQuestion": "How many <b class=\"r\">red<\/b> marbles did you actually draw (before any changes)? ",
            "catchKey": -1,
            "catchResponse": -1,
            "catchTime": 1680661529697,
            "trialTime": 0
        },
        {
            "exptPart": "trial",
            "trialNumber": 74,
            "roleCurrent": "receiver",
            "marblesSampled": 100,
            "probRed": 0.5,
            "lambda": 5,
            "drawnRed": 24,
            "reportedRed": 20,
            "inferredRed": 25,
            "playerTrialScore": -1,
            "oppTrialScore": 0,
            "playerTotalScore": -14,
            "oppTotalScore": -43,
            "waitTime": 6860.038550694449,
            "responseTime": 1680661569419,
            "catchQuestion": "How many <b class=\"r\">red<\/b> marbles did you actually draw (before any changes)? ",
            "catchKey": -1,
            "catchResponse": -1,
            "catchTime": 1680661529697,
            "trialTime": 0
        },
        {
            "exptPart": "trial",
            "trialNumber": 75,
            "roleCurrent": "sender",
            "marblesSampled": 100,
            "probRed": 0.5,
            "lambda": 5,
            "drawnRed": 84,
            "reportedRed": 80,
            "inferredRed": 89,
            "playerTrialScore": 0,
            "oppTrialScore": -5,
            "playerTotalScore": -14,
            "oppTotalScore": -48,
            "waitTime": 2212.872087669279,
            "responseTime": 1680661585543,
            "catchQuestion": "How many <b class=\"r\">red<\/b> marbles did you actually draw (before any changes)? ",
            "catchKey": -1,
            "catchResponse": -1,
            "catchTime": 1680661585543,
            "trialTime": 0
        },
        {
            "exptPart": "trial",
            "trialNumber": 76,
            "roleCurrent": "receiver",
            "marblesSampled": 100,
            "probRed": 0.5,
            "lambda": 5,
            "drawnRed": 78,
            "reportedRed": 74,
            "inferredRed": 75,
            "playerTrialScore": -3,
            "oppTrialScore": 3,
            "playerTotalScore": -17,
            "oppTotalScore": -45,
            "waitTime": 6668.840412379128,
            "responseTime": 1680661602702,
            "catchQuestion": "How many <b class=\"r\">red<\/b> marbles did you actually draw (before any changes)? ",
            "catchKey": -1,
            "catchResponse": -1,
            "catchTime": 1680661585543,
            "trialTime": 0
        },
        {
            "exptPart": "trial",
            "trialNumber": 77,
            "roleCurrent": "sender",
            "marblesSampled": 100,
            "probRed": 0.5,
            "lambda": 5,
            "drawnRed": 79,
            "reportedRed": 70,
            "inferredRed": 75,
            "playerTrialScore": 4,
            "oppTrialScore": -4,
            "playerTotalScore": -13,
            "oppTotalScore": -49,
            "waitTime": 2284.919396471787,
            "responseTime": 1680661640781,
            "catchQuestion": "How many <b class=\"r\">red<\/b> marbles did you actually draw (before any changes)? ",
            "catchKey": -1,
            "catchResponse": -1,
            "catchTime": 1680661585543,
            "trialTime": 0
        },
        {
            "exptPart": "trial",
            "trialNumber": 78,
            "roleCurrent": "receiver",
            "marblesSampled": 100,
            "probRed": 0.5,
            "lambda": 5,
            "drawnRed": 46,
            "reportedRed": 41,
            "inferredRed": 45,
            "playerTrialScore": -1,
            "oppTrialScore": 1,
            "playerTotalScore": -14,
            "oppTotalScore": -48,
            "waitTime": 6256.697248790166,
            "responseTime": 1680661651697,
            "catchQuestion": "How many <b class=\"r\">red<\/b> marbles did you actually draw (before any changes)? ",
            "catchKey": -1,
            "catchResponse": -1,
            "catchTime": 1680661585543,
            "trialTime": 0
        },
        {
            "exptPart": "trial",
            "trialNumber": 79,
            "roleCurrent": "sender",
            "marblesSampled": 100,
            "probRed": 0.5,
            "lambda": 5,
            "drawnRed": 28,
            "reportedRed": 20,
            "inferredRed": 24,
            "playerTrialScore": 4,
            "oppTrialScore": -4,
            "playerTotalScore": -10,
            "oppTotalScore": -52,
            "waitTime": 2806.144891939191,
            "responseTime": 1680661680180,
            "catchQuestion": "How many <b class=\"r\">red<\/b> marbles did you actually draw (before any changes)? ",
            "catchKey": -1,
            "catchResponse": -1,
            "catchTime": 1680661585543,
            "trialTime": 0
        },
        {
            "exptPart": "trial",
            "trialNumber": 80,
            "roleCurrent": "receiver",
            "marblesSampled": 100,
            "probRed": 0.5,
            "lambda": 5,
            "drawnRed": 43,
            "reportedRed": 35,
            "inferredRed": 40,
            "playerTrialScore": -3,
            "oppTrialScore": 3,
            "playerTotalScore": -13,
            "oppTotalScore": -49,
            "waitTime": 6072.449604150901,
            "responseTime": 1680661690247,
            "catchQuestion": "How many <b class=\"r\">red<\/b> marbles did you actually draw (before any changes)? ",
            "catchKey": -1,
            "catchResponse": -1,
            "catchTime": 1680661690247,
            "trialTime": 0
        },
        {
            "exptPart": "trial",
            "trialNumber": 81,
            "roleCurrent": "sender",
            "marblesSampled": 100,
            "probRed": 0.5,
            "lambda": 5,
            "drawnRed": 75,
            "reportedRed": 70,
            "inferredRed": 75,
            "playerTrialScore": 0,
            "oppTrialScore": 0,
            "playerTotalScore": -13,
            "oppTotalScore": -49,
            "waitTime": 2758.076240404833,
            "responseTime": 1680661709959,
            "catchQuestion": "How many <b class=\"r\">red<\/b> marbles did you actually draw (before any changes)? ",
            "catchKey": -1,
            "catchResponse": -1,
            "catchTime": 1680661690247,
            "trialTime": 0
        },
        {
            "exptPart": "trial",
            "trialNumber": 82,
            "roleCurrent": "receiver",
            "marblesSampled": 100,
            "probRed": 0.5,
            "lambda": 5,
            "drawnRed": 58,
            "reportedRed": 54,
            "inferredRed": 55,
            "playerTrialScore": -3,
            "oppTrialScore": 3,
            "playerTotalScore": -16,
            "oppTotalScore": -46,
            "waitTime": 5470.643467808536,
            "responseTime": 1680661718348,
            "catchQuestion": "How many <b class=\"r\">red<\/b> marbles did you actually draw (before any changes)? ",
            "catchKey": -1,
            "catchResponse": -1,
            "catchTime": 1680661690247,
            "trialTime": 0
        },
        {
            "exptPart": "trial",
            "trialNumber": 83,
            "roleCurrent": "sender",
            "marblesSampled": 100,
            "probRed": 0.5,
            "lambda": 5,
            "drawnRed": 63,
            "reportedRed": 60,
            "inferredRed": 67,
            "playerTrialScore": 0,
            "oppTrialScore": -4,
            "playerTotalScore": -16,
            "oppTotalScore": -50,
            "waitTime": 2235.5553080949608,
            "responseTime": 1680661729880,
            "catchQuestion": "How many <b class=\"r\">red<\/b> marbles did you actually draw (before any changes)? ",
            "catchKey": -1,
            "catchResponse": -1,
            "catchTime": 1680661690247,
            "trialTime": 0
        },
        {
            "exptPart": "trial",
            "trialNumber": 84,
            "roleCurrent": "receiver",
            "marblesSampled": 100,
            "probRed": 0.5,
            "lambda": 5,
            "drawnRed": 22,
            "reportedRed": 18,
            "inferredRed": 20,
            "playerTrialScore": -2,
            "oppTrialScore": 2,
            "playerTotalScore": -18,
            "oppTotalScore": -48,
            "waitTime": 5435.860173341249,
            "responseTime": 1680661738714,
            "catchQuestion": "How many <b class=\"r\">red<\/b> marbles did you actually draw (before any changes)? ",
            "catchKey": -1,
            "catchResponse": -1,
            "catchTime": 1680661690247,
            "trialTime": 0
        },
        {
            "exptPart": "trial",
            "trialNumber": 85,
            "roleCurrent": "sender",
            "marblesSampled": 100,
            "probRed": 0.5,
            "lambda": 5,
            "drawnRed": 57,
            "reportedRed": 50,
            "inferredRed": 60,
            "playerTrialScore": 0,
            "oppTrialScore": -3,
            "playerTotalScore": -18,
            "oppTotalScore": -51,
            "waitTime": 2559.386588723124,
            "responseTime": 1680661763464,
            "catchQuestion": "How many <b class=\"r\">red<\/b> marbles did you actually draw (before any changes)? ",
            "catchKey": -1,
            "catchResponse": -1,
            "catchTime": 1680661763464,
            "trialTime": 0
        },
        {
            "exptPart": "trial",
            "trialNumber": 86,
            "roleCurrent": "receiver",
            "marblesSampled": 100,
            "probRed": 0.5,
            "lambda": 5,
            "drawnRed": 64,
            "reportedRed": 56,
            "inferredRed": 60,
            "playerTrialScore": -4,
            "oppTrialScore": 4,
            "playerTotalScore": -22,
            "oppTotalScore": -47,
            "waitTime": 7172.609908544643,
            "responseTime": 1680661776454,
            "catchQuestion": "How many <b class=\"r\">red<\/b> marbles did you actually draw (before any changes)? ",
            "catchKey": -1,
            "catchResponse": -1,
            "catchTime": 1680661763464,
            "trialTime": 0
        },
        {
            "exptPart": "trial",
            "trialNumber": 87,
            "roleCurrent": "sender",
            "marblesSampled": 100,
            "probRed": 0.5,
            "lambda": 5,
            "drawnRed": 71,
            "reportedRed": 70,
            "inferredRed": 76,
            "playerTrialScore": 0,
            "oppTrialScore": -5,
            "playerTotalScore": -22,
            "oppTotalScore": -52,
            "waitTime": 2314.3646386156925,
            "responseTime": 1680661787680,
            "catchQuestion": "How many <b class=\"r\">red<\/b> marbles did you actually draw (before any changes)? ",
            "catchKey": -1,
            "catchResponse": -1,
            "catchTime": 1680661763464,
            "trialTime": 0
        },
        {
            "exptPart": "trial",
            "trialNumber": 88,
            "roleCurrent": "receiver",
            "marblesSampled": 100,
            "probRed": 0.5,
            "lambda": 5,
            "drawnRed": 45,
            "reportedRed": 42,
            "inferredRed": 45,
            "playerTrialScore": 0,
            "oppTrialScore": 0,
            "playerTotalScore": -22,
            "oppTotalScore": -52,
            "waitTime": 5875.378266225645,
            "responseTime": 1680661796402,
            "catchQuestion": "How many <b class=\"r\">red<\/b> marbles did you actually draw (before any changes)? ",
            "catchKey": -1,
            "catchResponse": -1,
            "catchTime": 1680661763464,
            "trialTime": 0
        },
        {
            "exptPart": "trial",
            "trialNumber": 89,
            "roleCurrent": "sender",
            "marblesSampled": 100,
            "probRed": 0.5,
            "lambda": 5,
            "drawnRed": 43,
            "reportedRed": 40,
            "inferredRed": 46,
            "playerTrialScore": 0,
            "oppTrialScore": -3,
            "playerTotalScore": -22,
            "oppTotalScore": -55,
            "waitTime": 2238.3061102393067,
            "responseTime": 1680661816231,
            "catchQuestion": "How many <b class=\"r\">red<\/b> marbles did you actually draw (before any changes)? ",
            "catchKey": -1,
            "catchResponse": -1,
            "catchTime": 1680661763464,
            "trialTime": 0
        },
        {
            "exptPart": "trial",
            "trialNumber": 90,
            "roleCurrent": "receiver",
            "marblesSampled": 100,
            "probRed": 0.5,
            "lambda": 5,
            "drawnRed": 58,
            "reportedRed": 55,
            "inferredRed": 60,
            "playerTrialScore": -2,
            "oppTrialScore": 0,
            "playerTotalScore": -24,
            "oppTotalScore": -55,
            "waitTime": 5750.600251356233,
            "responseTime": 1680661827680,
            "catchQuestion": "How many <b class=\"r\">red<\/b> marbles did you actually draw (before any changes)? ",
            "catchKey": -1,
            "catchResponse": -1,
            "catchTime": 1680661827680,
            "trialTime": 0
        },
        {
            "exptPart": "trial",
            "trialNumber": 91,
            "roleCurrent": "sender",
            "marblesSampled": 100,
            "probRed": 0.5,
            "lambda": 5,
            "drawnRed": 81,
            "reportedRed": 80,
            "inferredRed": 82,
            "playerTrialScore": 0,
            "oppTrialScore": -1,
            "playerTotalScore": -24,
            "oppTotalScore": -56,
            "waitTime": 3067.373606797765,
            "responseTime": 1680661839964,
            "catchQuestion": "How many <b class=\"r\">red<\/b> marbles did you actually draw (before any changes)? ",
            "catchKey": -1,
            "catchResponse": -1,
            "catchTime": 1680661827680,
            "trialTime": 0
        },
        {
            "exptPart": "trial",
            "trialNumber": 92,
            "roleCurrent": "receiver",
            "marblesSampled": 100,
            "probRed": 0.5,
            "lambda": 5,
            "drawnRed": 45,
            "reportedRed": 39,
            "inferredRed": 40,
            "playerTrialScore": -5,
            "oppTrialScore": 5,
            "playerTotalScore": -29,
            "oppTotalScore": -51,
            "waitTime": 5391.255870721028,
            "responseTime": 1680661848218,
            "catchQuestion": "How many <b class=\"r\">red<\/b> marbles did you actually draw (before any changes)? ",
            "catchKey": -1,
            "catchResponse": -1,
            "catchTime": 1680661827680,
            "trialTime": 0
        },
        {
            "exptPart": "trial",
            "trialNumber": 93,
            "roleCurrent": "sender",
            "marblesSampled": 100,
            "probRed": 0.5,
            "lambda": 5,
            "drawnRed": 80,
            "reportedRed": 70,
            "inferredRed": 75,
            "playerTrialScore": 5,
            "oppTrialScore": -5,
            "playerTotalScore": -24,
            "oppTotalScore": -56,
            "waitTime": 2462.0633256026754,
            "responseTime": 1680661880642,
            "catchQuestion": "How many <b class=\"r\">red<\/b> marbles did you actually draw (before any changes)? ",
            "catchKey": -1,
            "catchResponse": -1,
            "catchTime": 1680661827680,
            "trialTime": 0
        },
        {
            "exptPart": "trial",
            "trialNumber": 94,
            "roleCurrent": "receiver",
            "marblesSampled": 100,
            "probRed": 0.5,
            "lambda": 5,
            "drawnRed": 68,
            "reportedRed": 62,
            "inferredRed": 65,
            "playerTrialScore": -3,
            "oppTrialScore": 3,
            "playerTotalScore": -27,
            "oppTotalScore": -53,
            "waitTime": 5468.249362635717,
            "responseTime": 1680661890235,
            "catchQuestion": "How many <b class=\"r\">red<\/b> marbles did you actually draw (before any changes)? ",
            "catchKey": -1,
            "catchResponse": -1,
            "catchTime": 1680661827680,
            "trialTime": 0
        },
        {
            "exptPart": "trial",
            "trialNumber": 95,
            "roleCurrent": "sender",
            "marblesSampled": 100,
            "probRed": 0.5,
            "lambda": 5,
            "drawnRed": 57,
            "reportedRed": 50,
            "inferredRed": 52,
            "playerTrialScore": 5,
            "oppTrialScore": -5,
            "playerTotalScore": -22,
            "oppTotalScore": -58,
            "waitTime": 2700.653797649843,
            "responseTime": 1680661912797,
            "catchQuestion": "How many <b class=\"r\">red<\/b> marbles did you actually draw (before any changes)? ",
            "catchKey": -1,
            "catchResponse": -1,
            "catchTime": 1680661912797,
            "trialTime": 0
        },
        {
            "exptPart": "trial",
            "trialNumber": 96,
            "roleCurrent": "receiver",
            "marblesSampled": 100,
            "probRed": 0.5,
            "lambda": 5,
            "drawnRed": 29,
            "reportedRed": 26,
            "inferredRed": 30,
            "playerTrialScore": -1,
            "oppTrialScore": 0,
            "playerTotalScore": -23,
            "oppTotalScore": -58,
            "waitTime": 6700.691621578444,
            "responseTime": 1680661924149,
            "catchQuestion": "How many <b class=\"r\">red<\/b> marbles did you actually draw (before any changes)? ",
            "catchKey": -1,
            "catchResponse": -1,
            "catchTime": 1680661912797,
            "trialTime": 0
        },
        {
            "exptPart": "trial",
            "trialNumber": 97,
            "roleCurrent": "sender",
            "marblesSampled": 100,
            "probRed": 0.5,
            "lambda": 5,
            "drawnRed": 53,
            "reportedRed": 50,
            "inferredRed": 53,
            "playerTrialScore": 0,
            "oppTrialScore": 0,
            "playerTotalScore": -23,
            "oppTotalScore": -58,
            "waitTime": 2880.8007942850354,
            "responseTime": 1680661937548,
            "catchQuestion": "How many <b class=\"r\">red<\/b> marbles did you actually draw (before any changes)? ",
            "catchKey": -1,
            "catchResponse": -1,
            "catchTime": 1680661912797,
            "trialTime": 0
        },
        {
            "exptPart": "trial",
            "trialNumber": 98,
            "roleCurrent": "receiver",
            "marblesSampled": 100,
            "probRed": 0.5,
            "lambda": 5,
            "drawnRed": 59,
            "reportedRed": 55,
            "inferredRed": 60,
            "playerTrialScore": -1,
            "oppTrialScore": 0,
            "playerTotalScore": -24,
            "oppTotalScore": -58,
            "waitTime": 5763.133159241018,
            "responseTime": 1680661946557,
            "catchQuestion": "How many <b class=\"r\">red<\/b> marbles did you actually draw (before any changes)? ",
            "catchKey": -1,
            "catchResponse": -1,
            "catchTime": 1680661912797,
            "trialTime": 0
        },
        {
            "exptPart": "trial",
            "trialNumber": 99,
            "roleCurrent": "sender",
            "marblesSampled": 100,
            "probRed": 0.5,
            "lambda": 5,
            "drawnRed": 32,
            "reportedRed": 30,
            "inferredRed": 36,
            "playerTrialScore": 0,
            "oppTrialScore": -4,
            "playerTotalScore": -24,
            "oppTotalScore": -62,
            "waitTime": 3065.7932431192594,
            "responseTime": 1680661958297,
            "catchQuestion": "How many <b class=\"r\">red<\/b> marbles did you actually draw (before any changes)? ",
            "catchKey": -1,
            "catchResponse": -1,
            "catchTime": 1680661912797,
            "trialTime": 0
        },
        {
            "exptPart": "trial",
            "trialNumber": 100,
            "roleCurrent": "receiver",
            "marblesSampled": 100,
            "probRed": 0.5,
            "lambda": 5,
            "drawnRed": 33,
            "reportedRed": 28,
            "inferredRed": 30,
            "playerTrialScore": -3,
            "oppTrialScore": 3,
            "playerTotalScore": -27,
            "oppTotalScore": -59,
            "waitTime": 6429.53271406273,
            "responseTime": 1680661967468,
            "catchQuestion": "How many <b class=\"r\">red<\/b> marbles did you actually draw (before any changes)? ",
            "catchKey": -1,
            "catchResponse": -1,
            "catchTime": 1680661967468,
            "trialTime": 0
        }
    ]
}