{
    "client": {
        "type": "sona",
        "experiment_id": 2228,
        "credit_token": "b315147ae43241ea9c65086cb510cfb7",
        "survey_code": "46778",
        "sid": "sona-46778",
        "window": {
            "width": 1440,
            "height": 727
        },
        "screen": {
            "width": 1440,
            "height": 900
        },
        "userAgent": "Mozilla\/5.0 (Macintosh; Intel Mac OS X 10_15_7) AppleWebKit\/605.1.15 (KHTML, like Gecko) Version\/16.1 Safari\/605.1.15",
        "score": 0,
        "bonus": 0
    },
    "expt": {
        "saveURL": "submit.simple.php",
        "trials": 100,
        "practiceTrials": 2,
        "marblesSampled": 100,
        "probRed": 0.5,
        "lambdaAI": 5,
        "roleFirst": "receiver",
        "roles": [
            "sender",
            "receiver"
        ],
        "cost": "linear",
        "goal": "under",
        "goalInstructTxt": "above",
        "catchTrials": [
            61,
            34,
            55,
            42,
            73,
            47,
            18,
            23,
            27,
            19
        ],
        "scoreTotal": {
            "player": -195,
            "opp": -258
        },
        "sona": {
            "experiment_id": 2228,
            "credit_token": "b315147ae43241ea9c65086cb510cfb7"
        },
        "pilot": false,
        "debug": false
    },
    "trials": [
        {
            "exptPart": "practice",
            "trialNumber": 1,
            "roleCurrent": "sender",
            "marblesSampled": 100,
            "probRed": 0.5,
            "lambda": 5,
            "drawnRed": 34,
            "reportedRed": 36,
            "inferredRed": 38,
            "playerTrialScore": 0,
            "oppTrialScore": -4,
            "playerTotalScore": 0,
            "oppTotalScore": -4,
            "waitTime": 2410.990256335718,
            "responseTime": 1678839161829,
            "catchQuestion": "How many <b class=\"r\">red<\/b> marbles did you actually draw (before any changes)? ",
            "catchKey": 34,
            "catchResponse": 34,
            "catchTime": 1678839161829,
            "trialTime": 0
        },
        {
            "exptPart": "practice",
            "trialNumber": 2,
            "roleCurrent": "receiver",
            "marblesSampled": 100,
            "probRed": 0.5,
            "lambda": 5,
            "drawnRed": 29,
            "reportedRed": 26,
            "inferredRed": 30,
            "playerTrialScore": -1,
            "oppTrialScore": 0,
            "playerTotalScore": -1,
            "oppTotalScore": -4,
            "waitTime": 5599.425901406078,
            "responseTime": 1678839202601,
            "catchQuestion": "How many <b class=\"r\">red<\/b> marbles did your opponent report drawing? ",
            "catchKey": 26,
            "catchResponse": 26,
            "catchTime": 1678839202601,
            "trialTime": 0
        },
        {
            "exptPart": "trial",
            "trialNumber": 1,
            "roleCurrent": "receiver",
            "marblesSampled": 100,
            "probRed": 0.5,
            "lambda": 5,
            "drawnRed": 44,
            "reportedRed": 36,
            "inferredRed": 40,
            "playerTrialScore": -4,
            "oppTrialScore": 4,
            "playerTotalScore": -4,
            "oppTotalScore": 4,
            "waitTime": 6548.138709975901,
            "responseTime": 1678839231678,
            "catchQuestion": "How many <b class=\"r\">red<\/b> marbles did your opponent report drawing? ",
            "catchKey": -1,
            "catchResponse": -1,
            "catchTime": 1678839202601,
            "trialTime": 0
        },
        {
            "exptPart": "trial",
            "trialNumber": 2,
            "roleCurrent": "sender",
            "marblesSampled": 100,
            "probRed": 0.5,
            "lambda": 5,
            "drawnRed": 26,
            "reportedRed": 29,
            "inferredRed": 37,
            "playerTrialScore": 0,
            "oppTrialScore": -11,
            "playerTotalScore": -4,
            "oppTotalScore": -7,
            "waitTime": 2121.893361897895,
            "responseTime": 1678839250213,
            "catchQuestion": "How many <b class=\"r\">red<\/b> marbles did your opponent report drawing? ",
            "catchKey": -1,
            "catchResponse": -1,
            "catchTime": 1678839202601,
            "trialTime": 0
        },
        {
            "exptPart": "trial",
            "trialNumber": 3,
            "roleCurrent": "receiver",
            "marblesSampled": 100,
            "probRed": 0.5,
            "lambda": 5,
            "drawnRed": 63,
            "reportedRed": 59,
            "inferredRed": 64,
            "playerTrialScore": -1,
            "oppTrialScore": 0,
            "playerTotalScore": -5,
            "oppTotalScore": -7,
            "waitTime": 6498.241859257561,
            "responseTime": 1678839264912,
            "catchQuestion": "How many <b class=\"r\">red<\/b> marbles did your opponent report drawing? ",
            "catchKey": -1,
            "catchResponse": -1,
            "catchTime": 1678839202601,
            "trialTime": 0
        },
        {
            "exptPart": "trial",
            "trialNumber": 4,
            "roleCurrent": "sender",
            "marblesSampled": 100,
            "probRed": 0.5,
            "lambda": 5,
            "drawnRed": 81,
            "reportedRed": 76,
            "inferredRed": 81,
            "playerTrialScore": 0,
            "oppTrialScore": 0,
            "playerTotalScore": -5,
            "oppTotalScore": -7,
            "waitTime": 2471.73025628293,
            "responseTime": 1678839285230,
            "catchQuestion": "How many <b class=\"r\">red<\/b> marbles did your opponent report drawing? ",
            "catchKey": -1,
            "catchResponse": -1,
            "catchTime": 1678839202601,
            "trialTime": 0
        },
        {
            "exptPart": "trial",
            "trialNumber": 5,
            "roleCurrent": "receiver",
            "marblesSampled": 100,
            "probRed": 0.5,
            "lambda": 5,
            "drawnRed": 50,
            "reportedRed": 42,
            "inferredRed": 42,
            "playerTrialScore": -8,
            "oppTrialScore": 8,
            "playerTotalScore": -13,
            "oppTotalScore": 1,
            "waitTime": 5452.412299991115,
            "responseTime": 1678839306879,
            "catchQuestion": "How many <b class=\"r\">red<\/b> marbles did your opponent report drawing? ",
            "catchKey": -1,
            "catchResponse": -1,
            "catchTime": 1678839306879,
            "trialTime": 0
        },
        {
            "exptPart": "trial",
            "trialNumber": 6,
            "roleCurrent": "sender",
            "marblesSampled": 100,
            "probRed": 0.5,
            "lambda": 5,
            "drawnRed": 86,
            "reportedRed": 83,
            "inferredRed": 87,
            "playerTrialScore": 0,
            "oppTrialScore": -1,
            "playerTotalScore": -13,
            "oppTotalScore": 0,
            "waitTime": 2291.39027111028,
            "responseTime": 1678839324347,
            "catchQuestion": "How many <b class=\"r\">red<\/b> marbles did your opponent report drawing? ",
            "catchKey": -1,
            "catchResponse": -1,
            "catchTime": 1678839306879,
            "trialTime": 0
        },
        {
            "exptPart": "trial",
            "trialNumber": 7,
            "roleCurrent": "receiver",
            "marblesSampled": 100,
            "probRed": 0.5,
            "lambda": 5,
            "drawnRed": 9,
            "reportedRed": 2,
            "inferredRed": 30,
            "playerTrialScore": -21,
            "oppTrialScore": 0,
            "playerTotalScore": -34,
            "oppTotalScore": 0,
            "waitTime": 5434.167262100309,
            "responseTime": 1678839339196,
            "catchQuestion": "How many <b class=\"r\">red<\/b> marbles did your opponent report drawing? ",
            "catchKey": -1,
            "catchResponse": -1,
            "catchTime": 1678839306879,
            "trialTime": 0
        },
        {
            "exptPart": "trial",
            "trialNumber": 8,
            "roleCurrent": "sender",
            "marblesSampled": 100,
            "probRed": 0.5,
            "lambda": 5,
            "drawnRed": 16,
            "reportedRed": 19,
            "inferredRed": 23,
            "playerTrialScore": 0,
            "oppTrialScore": -7,
            "playerTotalScore": -34,
            "oppTotalScore": -7,
            "waitTime": 2141.8143378878704,
            "responseTime": 1678839353780,
            "catchQuestion": "How many <b class=\"r\">red<\/b> marbles did your opponent report drawing? ",
            "catchKey": -1,
            "catchResponse": -1,
            "catchTime": 1678839306879,
            "trialTime": 0
        },
        {
            "exptPart": "trial",
            "trialNumber": 9,
            "roleCurrent": "receiver",
            "marblesSampled": 100,
            "probRed": 0.5,
            "lambda": 5,
            "drawnRed": 29,
            "reportedRed": 24,
            "inferredRed": 33,
            "playerTrialScore": -4,
            "oppTrialScore": 0,
            "playerTotalScore": -38,
            "oppTotalScore": -7,
            "waitTime": 5230.338131441711,
            "responseTime": 1678839365913,
            "catchQuestion": "How many <b class=\"r\">red<\/b> marbles did your opponent report drawing? ",
            "catchKey": -1,
            "catchResponse": -1,
            "catchTime": 1678839306879,
            "trialTime": 0
        },
        {
            "exptPart": "trial",
            "trialNumber": 10,
            "roleCurrent": "sender",
            "marblesSampled": 100,
            "probRed": 0.5,
            "lambda": 5,
            "drawnRed": 37,
            "reportedRed": 41,
            "inferredRed": 47,
            "playerTrialScore": 0,
            "oppTrialScore": -10,
            "playerTotalScore": -38,
            "oppTotalScore": -17,
            "waitTime": 2566.9755023114685,
            "responseTime": 1678839380615,
            "catchQuestion": "How many <b class=\"r\">red<\/b> marbles did your opponent report drawing? ",
            "catchKey": -1,
            "catchResponse": -1,
            "catchTime": 1678839380615,
            "trialTime": 0
        },
        {
            "exptPart": "trial",
            "trialNumber": 11,
            "roleCurrent": "receiver",
            "marblesSampled": 100,
            "probRed": 0.5,
            "lambda": 5,
            "drawnRed": 56,
            "reportedRed": 51,
            "inferredRed": 60,
            "playerTrialScore": -4,
            "oppTrialScore": 0,
            "playerTotalScore": -42,
            "oppTotalScore": -17,
            "waitTime": 6558.744042806934,
            "responseTime": 1678839403934,
            "catchQuestion": "How many <b class=\"r\">red<\/b> marbles did your opponent report drawing? ",
            "catchKey": -1,
            "catchResponse": -1,
            "catchTime": 1678839380615,
            "trialTime": 0
        },
        {
            "exptPart": "trial",
            "trialNumber": 12,
            "roleCurrent": "sender",
            "marblesSampled": 100,
            "probRed": 0.5,
            "lambda": 5,
            "drawnRed": 71,
            "reportedRed": 73,
            "inferredRed": 79,
            "playerTrialScore": 0,
            "oppTrialScore": -8,
            "playerTotalScore": -42,
            "oppTotalScore": -25,
            "waitTime": 2174.3553649777814,
            "responseTime": 1678839417966,
            "catchQuestion": "How many <b class=\"r\">red<\/b> marbles did your opponent report drawing? ",
            "catchKey": -1,
            "catchResponse": -1,
            "catchTime": 1678839380615,
            "trialTime": 0
        },
        {
            "exptPart": "trial",
            "trialNumber": 13,
            "roleCurrent": "receiver",
            "marblesSampled": 100,
            "probRed": 0.5,
            "lambda": 5,
            "drawnRed": 36,
            "reportedRed": 33,
            "inferredRed": 35,
            "playerTrialScore": -1,
            "oppTrialScore": 1,
            "playerTotalScore": -43,
            "oppTotalScore": -24,
            "waitTime": 5266.614653048896,
            "responseTime": 1678839434380,
            "catchQuestion": "How many <b class=\"r\">red<\/b> marbles did your opponent report drawing? ",
            "catchKey": -1,
            "catchResponse": -1,
            "catchTime": 1678839380615,
            "trialTime": 0
        },
        {
            "exptPart": "trial",
            "trialNumber": 14,
            "roleCurrent": "sender",
            "marblesSampled": 100,
            "probRed": 0.5,
            "lambda": 5,
            "drawnRed": 78,
            "reportedRed": 75,
            "inferredRed": 79,
            "playerTrialScore": 0,
            "oppTrialScore": -1,
            "playerTotalScore": -43,
            "oppTotalScore": -25,
            "waitTime": 3201.314153596328,
            "responseTime": 1678839450200,
            "catchQuestion": "How many <b class=\"r\">red<\/b> marbles did your opponent report drawing? ",
            "catchKey": -1,
            "catchResponse": -1,
            "catchTime": 1678839380615,
            "trialTime": 0
        },
        {
            "exptPart": "trial",
            "trialNumber": 15,
            "roleCurrent": "receiver",
            "marblesSampled": 100,
            "probRed": 0.5,
            "lambda": 5,
            "drawnRed": 97,
            "reportedRed": 94,
            "inferredRed": 98,
            "playerTrialScore": -1,
            "oppTrialScore": 0,
            "playerTotalScore": -44,
            "oppTotalScore": -25,
            "waitTime": 5951.243984946532,
            "responseTime": 1678839472830,
            "catchQuestion": "How many <b class=\"r\">red<\/b> marbles did your opponent report drawing? ",
            "catchKey": -1,
            "catchResponse": -1,
            "catchTime": 1678839472830,
            "trialTime": 0
        },
        {
            "exptPart": "trial",
            "trialNumber": 16,
            "roleCurrent": "sender",
            "marblesSampled": 100,
            "probRed": 0.5,
            "lambda": 5,
            "drawnRed": 17,
            "reportedRed": 21,
            "inferredRed": 26,
            "playerTrialScore": 0,
            "oppTrialScore": -9,
            "playerTotalScore": -44,
            "oppTotalScore": -34,
            "waitTime": 2699.8829533384855,
            "responseTime": 1678839489897,
            "catchQuestion": "How many <b class=\"r\">red<\/b> marbles did your opponent report drawing? ",
            "catchKey": -1,
            "catchResponse": -1,
            "catchTime": 1678839472830,
            "trialTime": 0
        },
        {
            "exptPart": "trial",
            "trialNumber": 17,
            "roleCurrent": "receiver",
            "marblesSampled": 100,
            "probRed": 0.5,
            "lambda": 5,
            "drawnRed": 56,
            "reportedRed": 51,
            "inferredRed": 55,
            "playerTrialScore": -1,
            "oppTrialScore": 1,
            "playerTotalScore": -45,
            "oppTotalScore": -33,
            "waitTime": 6130.080725164096,
            "responseTime": 1678839502549,
            "catchQuestion": "How many <b class=\"r\">red<\/b> marbles did your opponent report drawing? ",
            "catchKey": -1,
            "catchResponse": -1,
            "catchTime": 1678839472830,
            "trialTime": 0
        },
        {
            "exptPart": "trial",
            "trialNumber": 18,
            "roleCurrent": "sender",
            "marblesSampled": 100,
            "probRed": 0.5,
            "lambda": 5,
            "drawnRed": 58,
            "reportedRed": 60,
            "inferredRed": 68,
            "playerTrialScore": 0,
            "oppTrialScore": -10,
            "playerTotalScore": -45,
            "oppTotalScore": -43,
            "waitTime": 2296.1682900153955,
            "responseTime": 1678839516905,
            "catchQuestion": "How many <b class=\"r\">red<\/b> marbles did your opponent report drawing? ",
            "catchKey": -1,
            "catchResponse": -1,
            "catchTime": 1678839472830,
            "trialTime": 0
        },
        {
            "exptPart": "trial",
            "trialNumber": 19,
            "roleCurrent": "receiver",
            "marblesSampled": 100,
            "probRed": 0.5,
            "lambda": 5,
            "drawnRed": 24,
            "reportedRed": 20,
            "inferredRed": 30,
            "playerTrialScore": -6,
            "oppTrialScore": 0,
            "playerTotalScore": -51,
            "oppTotalScore": -43,
            "waitTime": 6705.961374494192,
            "responseTime": 1678839529403,
            "catchQuestion": "How many <b class=\"r\">red<\/b> marbles did your opponent report drawing? ",
            "catchKey": 20,
            "catchResponse": 20,
            "catchTime": 1678839529403,
            "trialTime": 0
        },
        {
            "exptPart": "trial",
            "trialNumber": 20,
            "roleCurrent": "sender",
            "marblesSampled": 100,
            "probRed": 0.5,
            "lambda": 5,
            "drawnRed": 29,
            "reportedRed": 33,
            "inferredRed": 37,
            "playerTrialScore": 0,
            "oppTrialScore": -8,
            "playerTotalScore": -51,
            "oppTotalScore": -51,
            "waitTime": 2570.6844482557162,
            "responseTime": 1678839553475,
            "catchQuestion": "How many <b class=\"r\">red<\/b> marbles did you actually draw (before any changes)? ",
            "catchKey": 29,
            "catchResponse": 29,
            "catchTime": 1678839553475,
            "trialTime": 0
        },
        {
            "exptPart": "trial",
            "trialNumber": 21,
            "roleCurrent": "receiver",
            "marblesSampled": 100,
            "probRed": 0.5,
            "lambda": 5,
            "drawnRed": 25,
            "reportedRed": 20,
            "inferredRed": 30,
            "playerTrialScore": -5,
            "oppTrialScore": 0,
            "playerTotalScore": -56,
            "oppTotalScore": -51,
            "waitTime": 6608.601517723724,
            "responseTime": 1678839581072,
            "catchQuestion": "How many <b class=\"r\">red<\/b> marbles did you actually draw (before any changes)? ",
            "catchKey": -1,
            "catchResponse": -1,
            "catchTime": 1678839553475,
            "trialTime": 0
        },
        {
            "exptPart": "trial",
            "trialNumber": 22,
            "roleCurrent": "sender",
            "marblesSampled": 100,
            "probRed": 0.5,
            "lambda": 5,
            "drawnRed": 46,
            "reportedRed": 50,
            "inferredRed": 57,
            "playerTrialScore": 0,
            "oppTrialScore": -11,
            "playerTotalScore": -56,
            "oppTotalScore": -62,
            "waitTime": 2623.7805364833307,
            "responseTime": 1678839597675,
            "catchQuestion": "How many <b class=\"r\">red<\/b> marbles did you actually draw (before any changes)? ",
            "catchKey": -1,
            "catchResponse": -1,
            "catchTime": 1678839553475,
            "trialTime": 0
        },
        {
            "exptPart": "trial",
            "trialNumber": 23,
            "roleCurrent": "receiver",
            "marblesSampled": 100,
            "probRed": 0.5,
            "lambda": 5,
            "drawnRed": 69,
            "reportedRed": 65,
            "inferredRed": 70,
            "playerTrialScore": -1,
            "oppTrialScore": 0,
            "playerTotalScore": -57,
            "oppTotalScore": -62,
            "waitTime": 7052.50398374318,
            "responseTime": 1678839613588,
            "catchQuestion": "How many <b class=\"r\">red<\/b> marbles did you actually draw (before any changes)? ",
            "catchKey": -1,
            "catchResponse": -1,
            "catchTime": 1678839553475,
            "trialTime": 0
        },
        {
            "exptPart": "trial",
            "trialNumber": 24,
            "roleCurrent": "sender",
            "marblesSampled": 100,
            "probRed": 0.5,
            "lambda": 5,
            "drawnRed": 43,
            "reportedRed": 48,
            "inferredRed": 53,
            "playerTrialScore": 0,
            "oppTrialScore": -10,
            "playerTotalScore": -57,
            "oppTotalScore": -72,
            "waitTime": 2683.7511414015144,
            "responseTime": 1678839630091,
            "catchQuestion": "How many <b class=\"r\">red<\/b> marbles did you actually draw (before any changes)? ",
            "catchKey": 43,
            "catchResponse": 43,
            "catchTime": 1678839630091,
            "trialTime": 0
        },
        {
            "exptPart": "trial",
            "trialNumber": 25,
            "roleCurrent": "receiver",
            "marblesSampled": 100,
            "probRed": 0.5,
            "lambda": 5,
            "drawnRed": 20,
            "reportedRed": 14,
            "inferredRed": 25,
            "playerTrialScore": -5,
            "oppTrialScore": 0,
            "playerTotalScore": -62,
            "oppTotalScore": -72,
            "waitTime": 6992.347729821272,
            "responseTime": 1678839670326,
            "catchQuestion": "How many <b class=\"r\">red<\/b> marbles did you actually draw (before any changes)? ",
            "catchKey": -1,
            "catchResponse": -1,
            "catchTime": 1678839670326,
            "trialTime": 0
        },
        {
            "exptPart": "trial",
            "trialNumber": 26,
            "roleCurrent": "sender",
            "marblesSampled": 100,
            "probRed": 0.5,
            "lambda": 5,
            "drawnRed": 14,
            "reportedRed": 20,
            "inferredRed": 27,
            "playerTrialScore": 0,
            "oppTrialScore": -13,
            "playerTotalScore": -62,
            "oppTotalScore": -85,
            "waitTime": 3036.0514290093142,
            "responseTime": 1678839691389,
            "catchQuestion": "How many <b class=\"r\">red<\/b> marbles did you actually draw (before any changes)? ",
            "catchKey": -1,
            "catchResponse": -1,
            "catchTime": 1678839670326,
            "trialTime": 0
        },
        {
            "exptPart": "trial",
            "trialNumber": 27,
            "roleCurrent": "receiver",
            "marblesSampled": 100,
            "probRed": 0.5,
            "lambda": 5,
            "drawnRed": 52,
            "reportedRed": 46,
            "inferredRed": 55,
            "playerTrialScore": -3,
            "oppTrialScore": 0,
            "playerTotalScore": -65,
            "oppTotalScore": -85,
            "waitTime": 5224.999025280319,
            "responseTime": 1678839702121,
            "catchQuestion": "How many <b class=\"r\">red<\/b> marbles did you actually draw (before any changes)? ",
            "catchKey": -1,
            "catchResponse": -1,
            "catchTime": 1678839670326,
            "trialTime": 0
        },
        {
            "exptPart": "trial",
            "trialNumber": 28,
            "roleCurrent": "sender",
            "marblesSampled": 100,
            "probRed": 0.5,
            "lambda": 5,
            "drawnRed": 80,
            "reportedRed": 75,
            "inferredRed": 79,
            "playerTrialScore": 1,
            "oppTrialScore": -1,
            "playerTotalScore": -64,
            "oppTotalScore": -86,
            "waitTime": 2605.735805450713,
            "responseTime": 1678839720408,
            "catchQuestion": "How many <b class=\"r\">red<\/b> marbles did you actually draw (before any changes)? ",
            "catchKey": 80,
            "catchResponse": 80,
            "catchTime": 1678839720408,
            "trialTime": 0
        },
        {
            "exptPart": "trial",
            "trialNumber": 29,
            "roleCurrent": "receiver",
            "marblesSampled": 100,
            "probRed": 0.5,
            "lambda": 5,
            "drawnRed": 33,
            "reportedRed": 29,
            "inferredRed": 35,
            "playerTrialScore": -2,
            "oppTrialScore": 0,
            "playerTotalScore": -66,
            "oppTotalScore": -86,
            "waitTime": 7476.38015006031,
            "responseTime": 1678839742455,
            "catchQuestion": "How many <b class=\"r\">red<\/b> marbles did you actually draw (before any changes)? ",
            "catchKey": -1,
            "catchResponse": -1,
            "catchTime": 1678839720408,
            "trialTime": 0
        },
        {
            "exptPart": "trial",
            "trialNumber": 30,
            "roleCurrent": "sender",
            "marblesSampled": 100,
            "probRed": 0.5,
            "lambda": 5,
            "drawnRed": 67,
            "reportedRed": 65,
            "inferredRed": 68,
            "playerTrialScore": 0,
            "oppTrialScore": -1,
            "playerTotalScore": -66,
            "oppTotalScore": -87,
            "waitTime": 3015.230354003593,
            "responseTime": 1678839755339,
            "catchQuestion": "How many <b class=\"r\">red<\/b> marbles did you actually draw (before any changes)? ",
            "catchKey": -1,
            "catchResponse": -1,
            "catchTime": 1678839755339,
            "trialTime": 0
        },
        {
            "exptPart": "trial",
            "trialNumber": 31,
            "roleCurrent": "receiver",
            "marblesSampled": 100,
            "probRed": 0.5,
            "lambda": 5,
            "drawnRed": 43,
            "reportedRed": 37,
            "inferredRed": 48,
            "playerTrialScore": -5,
            "oppTrialScore": 0,
            "playerTotalScore": -71,
            "oppTotalScore": -87,
            "waitTime": 6298.3194743082,
            "responseTime": 1678839771572,
            "catchQuestion": "How many <b class=\"r\">red<\/b> marbles did you actually draw (before any changes)? ",
            "catchKey": -1,
            "catchResponse": -1,
            "catchTime": 1678839755339,
            "trialTime": 0
        },
        {
            "exptPart": "trial",
            "trialNumber": 32,
            "roleCurrent": "sender",
            "marblesSampled": 100,
            "probRed": 0.5,
            "lambda": 5,
            "drawnRed": 47,
            "reportedRed": 50,
            "inferredRed": 56,
            "playerTrialScore": 0,
            "oppTrialScore": -9,
            "playerTotalScore": -71,
            "oppTotalScore": -96,
            "waitTime": 2524.369361250613,
            "responseTime": 1678839783689,
            "catchQuestion": "How many <b class=\"r\">red<\/b> marbles did you actually draw (before any changes)? ",
            "catchKey": -1,
            "catchResponse": -1,
            "catchTime": 1678839755339,
            "trialTime": 0
        },
        {
            "exptPart": "trial",
            "trialNumber": 33,
            "roleCurrent": "receiver",
            "marblesSampled": 100,
            "probRed": 0.5,
            "lambda": 5,
            "drawnRed": 48,
            "reportedRed": 45,
            "inferredRed": 50,
            "playerTrialScore": -2,
            "oppTrialScore": 0,
            "playerTotalScore": -73,
            "oppTotalScore": -96,
            "waitTime": 5810.435033645414,
            "responseTime": 1678839795172,
            "catchQuestion": "How many <b class=\"r\">red<\/b> marbles did you actually draw (before any changes)? ",
            "catchKey": -1,
            "catchResponse": -1,
            "catchTime": 1678839755339,
            "trialTime": 0
        },
        {
            "exptPart": "trial",
            "trialNumber": 34,
            "roleCurrent": "sender",
            "marblesSampled": 100,
            "probRed": 0.5,
            "lambda": 5,
            "drawnRed": 45,
            "reportedRed": 50,
            "inferredRed": 56,
            "playerTrialScore": 0,
            "oppTrialScore": -11,
            "playerTotalScore": -73,
            "oppTotalScore": -107,
            "waitTime": 2434.8977086255118,
            "responseTime": 1678839816377,
            "catchQuestion": "How many <b class=\"r\">red<\/b> marbles did you actually draw (before any changes)? ",
            "catchKey": -1,
            "catchResponse": -1,
            "catchTime": 1678839755339,
            "trialTime": 0
        },
        {
            "exptPart": "trial",
            "trialNumber": 35,
            "roleCurrent": "receiver",
            "marblesSampled": 100,
            "probRed": 0.5,
            "lambda": 5,
            "drawnRed": 52,
            "reportedRed": 48,
            "inferredRed": 55,
            "playerTrialScore": -3,
            "oppTrialScore": 0,
            "playerTotalScore": -76,
            "oppTotalScore": -107,
            "waitTime": 6523.993990873047,
            "responseTime": 1678839827721,
            "catchQuestion": "How many <b class=\"r\">red<\/b> marbles did your opponent report drawing? ",
            "catchKey": 48,
            "catchResponse": 48,
            "catchTime": 1678839827721,
            "trialTime": 0
        },
        {
            "exptPart": "trial",
            "trialNumber": 36,
            "roleCurrent": "sender",
            "marblesSampled": 100,
            "probRed": 0.5,
            "lambda": 5,
            "drawnRed": 73,
            "reportedRed": 70,
            "inferredRed": 81,
            "playerTrialScore": 0,
            "oppTrialScore": -8,
            "playerTotalScore": -76,
            "oppTotalScore": -115,
            "waitTime": 2341.7314598538733,
            "responseTime": 1678839848876,
            "catchQuestion": "How many <b class=\"r\">red<\/b> marbles did your opponent report drawing? ",
            "catchKey": -1,
            "catchResponse": -1,
            "catchTime": 1678839827721,
            "trialTime": 0
        },
        {
            "exptPart": "trial",
            "trialNumber": 37,
            "roleCurrent": "receiver",
            "marblesSampled": 100,
            "probRed": 0.5,
            "lambda": 5,
            "drawnRed": 41,
            "reportedRed": 39,
            "inferredRed": 45,
            "playerTrialScore": -4,
            "oppTrialScore": 0,
            "playerTotalScore": -80,
            "oppTotalScore": -115,
            "waitTime": 5460.738708004063,
            "responseTime": 1678839860054,
            "catchQuestion": "How many <b class=\"r\">red<\/b> marbles did your opponent report drawing? ",
            "catchKey": -1,
            "catchResponse": -1,
            "catchTime": 1678839827721,
            "trialTime": 0
        },
        {
            "exptPart": "trial",
            "trialNumber": 38,
            "roleCurrent": "sender",
            "marblesSampled": 100,
            "probRed": 0.5,
            "lambda": 5,
            "drawnRed": 78,
            "reportedRed": 75,
            "inferredRed": 80,
            "playerTrialScore": 0,
            "oppTrialScore": -2,
            "playerTotalScore": -80,
            "oppTotalScore": -117,
            "waitTime": 2323.079070590554,
            "responseTime": 1678839874324,
            "catchQuestion": "How many <b class=\"r\">red<\/b> marbles did your opponent report drawing? ",
            "catchKey": -1,
            "catchResponse": -1,
            "catchTime": 1678839827721,
            "trialTime": 0
        },
        {
            "exptPart": "trial",
            "trialNumber": 39,
            "roleCurrent": "receiver",
            "marblesSampled": 100,
            "probRed": 0.5,
            "lambda": 5,
            "drawnRed": 70,
            "reportedRed": 68,
            "inferredRed": 77,
            "playerTrialScore": -7,
            "oppTrialScore": 0,
            "playerTotalScore": -87,
            "oppTotalScore": -117,
            "waitTime": 5773.768586656006,
            "responseTime": 1678839885338,
            "catchQuestion": "How many <b class=\"r\">red<\/b> marbles did your opponent report drawing? ",
            "catchKey": -1,
            "catchResponse": -1,
            "catchTime": 1678839827721,
            "trialTime": 0
        },
        {
            "exptPart": "trial",
            "trialNumber": 40,
            "roleCurrent": "sender",
            "marblesSampled": 100,
            "probRed": 0.5,
            "lambda": 5,
            "drawnRed": 51,
            "reportedRed": 55,
            "inferredRed": 61,
            "playerTrialScore": 0,
            "oppTrialScore": -10,
            "playerTotalScore": -87,
            "oppTotalScore": -127,
            "waitTime": 2535.8875687507907,
            "responseTime": 1678839904824,
            "catchQuestion": "How many <b class=\"r\">red<\/b> marbles did your opponent report drawing? ",
            "catchKey": -1,
            "catchResponse": -1,
            "catchTime": 1678839904824,
            "trialTime": 0
        },
        {
            "exptPart": "trial",
            "trialNumber": 41,
            "roleCurrent": "receiver",
            "marblesSampled": 100,
            "probRed": 0.5,
            "lambda": 5,
            "drawnRed": 29,
            "reportedRed": 22,
            "inferredRed": 40,
            "playerTrialScore": -11,
            "oppTrialScore": 0,
            "playerTotalScore": -98,
            "oppTotalScore": -127,
            "waitTime": 5206.1050978678095,
            "responseTime": 1678839918940,
            "catchQuestion": "How many <b class=\"r\">red<\/b> marbles did your opponent report drawing? ",
            "catchKey": -1,
            "catchResponse": -1,
            "catchTime": 1678839904824,
            "trialTime": 0
        },
        {
            "exptPart": "trial",
            "trialNumber": 42,
            "roleCurrent": "sender",
            "marblesSampled": 100,
            "probRed": 0.5,
            "lambda": 5,
            "drawnRed": 47,
            "reportedRed": 50,
            "inferredRed": 56,
            "playerTrialScore": 0,
            "oppTrialScore": -9,
            "playerTotalScore": -98,
            "oppTotalScore": -136,
            "waitTime": 2647.984460479881,
            "responseTime": 1678839935792,
            "catchQuestion": "How many <b class=\"r\">red<\/b> marbles did your opponent report drawing? ",
            "catchKey": -1,
            "catchResponse": -1,
            "catchTime": 1678839904824,
            "trialTime": 0
        },
        {
            "exptPart": "trial",
            "trialNumber": 43,
            "roleCurrent": "receiver",
            "marblesSampled": 100,
            "probRed": 0.5,
            "lambda": 5,
            "drawnRed": 57,
            "reportedRed": 55,
            "inferredRed": 60,
            "playerTrialScore": -3,
            "oppTrialScore": 0,
            "playerTotalScore": -101,
            "oppTotalScore": -136,
            "waitTime": 5603.949387392306,
            "responseTime": 1678839945955,
            "catchQuestion": "How many <b class=\"r\">red<\/b> marbles did your opponent report drawing? ",
            "catchKey": 55,
            "catchResponse": 55,
            "catchTime": 1678839945955,
            "trialTime": 0
        },
        {
            "exptPart": "trial",
            "trialNumber": 44,
            "roleCurrent": "sender",
            "marblesSampled": 100,
            "probRed": 0.5,
            "lambda": 5,
            "drawnRed": 92,
            "reportedRed": 90,
            "inferredRed": 99,
            "playerTrialScore": 0,
            "oppTrialScore": -7,
            "playerTotalScore": -101,
            "oppTotalScore": -143,
            "waitTime": 2792.637446452969,
            "responseTime": 1678839964788,
            "catchQuestion": "How many <b class=\"r\">red<\/b> marbles did your opponent report drawing? ",
            "catchKey": -1,
            "catchResponse": -1,
            "catchTime": 1678839945955,
            "trialTime": 0
        },
        {
            "exptPart": "trial",
            "trialNumber": 45,
            "roleCurrent": "receiver",
            "marblesSampled": 100,
            "probRed": 0.5,
            "lambda": 5,
            "drawnRed": 36,
            "reportedRed": 33,
            "inferredRed": 40,
            "playerTrialScore": -4,
            "oppTrialScore": 0,
            "playerTotalScore": -105,
            "oppTotalScore": -143,
            "waitTime": 5717.917944797295,
            "responseTime": 1678839976072,
            "catchQuestion": "How many <b class=\"r\">red<\/b> marbles did your opponent report drawing? ",
            "catchKey": -1,
            "catchResponse": -1,
            "catchTime": 1678839976072,
            "trialTime": 0
        },
        {
            "exptPart": "trial",
            "trialNumber": 46,
            "roleCurrent": "sender",
            "marblesSampled": 100,
            "probRed": 0.5,
            "lambda": 5,
            "drawnRed": 59,
            "reportedRed": 55,
            "inferredRed": 62,
            "playerTrialScore": 0,
            "oppTrialScore": -3,
            "playerTotalScore": -105,
            "oppTotalScore": -146,
            "waitTime": 2183.312660516507,
            "responseTime": 1678839993906,
            "catchQuestion": "How many <b class=\"r\">red<\/b> marbles did your opponent report drawing? ",
            "catchKey": -1,
            "catchResponse": -1,
            "catchTime": 1678839976072,
            "trialTime": 0
        },
        {
            "exptPart": "trial",
            "trialNumber": 47,
            "roleCurrent": "receiver",
            "marblesSampled": 100,
            "probRed": 0.5,
            "lambda": 5,
            "drawnRed": 85,
            "reportedRed": 79,
            "inferredRed": 85,
            "playerTrialScore": 0,
            "oppTrialScore": 0,
            "playerTotalScore": -105,
            "oppTotalScore": -146,
            "waitTime": 7114.327613310215,
            "responseTime": 1678840008021,
            "catchQuestion": "How many <b class=\"r\">red<\/b> marbles did your opponent report drawing? ",
            "catchKey": -1,
            "catchResponse": -1,
            "catchTime": 1678839976072,
            "trialTime": 0
        },
        {
            "exptPart": "trial",
            "trialNumber": 48,
            "roleCurrent": "sender",
            "marblesSampled": 100,
            "probRed": 0.5,
            "lambda": 5,
            "drawnRed": 42,
            "reportedRed": 45,
            "inferredRed": 52,
            "playerTrialScore": 0,
            "oppTrialScore": -10,
            "playerTotalScore": -105,
            "oppTotalScore": -156,
            "waitTime": 2748.884999664761,
            "responseTime": 1678840023624,
            "catchQuestion": "How many <b class=\"r\">red<\/b> marbles did you actually draw (before any changes)? ",
            "catchKey": 42,
            "catchResponse": 42,
            "catchTime": 1678840023624,
            "trialTime": 0
        },
        {
            "exptPart": "trial",
            "trialNumber": 49,
            "roleCurrent": "receiver",
            "marblesSampled": 100,
            "probRed": 0.5,
            "lambda": 5,
            "drawnRed": 35,
            "reportedRed": 27,
            "inferredRed": 35,
            "playerTrialScore": 0,
            "oppTrialScore": 0,
            "playerTotalScore": -105,
            "oppTotalScore": -156,
            "waitTime": 5998.4283313719825,
            "responseTime": 1678840044987,
            "catchQuestion": "How many <b class=\"r\">red<\/b> marbles did you actually draw (before any changes)? ",
            "catchKey": -1,
            "catchResponse": -1,
            "catchTime": 1678840023624,
            "trialTime": 0
        },
        {
            "exptPart": "trial",
            "trialNumber": 50,
            "roleCurrent": "sender",
            "marblesSampled": 100,
            "probRed": 0.5,
            "lambda": 5,
            "drawnRed": 82,
            "reportedRed": 80,
            "inferredRed": 83,
            "playerTrialScore": 0,
            "oppTrialScore": -1,
            "playerTotalScore": -105,
            "oppTotalScore": -157,
            "waitTime": 2119.7931016947787,
            "responseTime": 1678840058672,
            "catchQuestion": "How many <b class=\"r\">red<\/b> marbles did you actually draw (before any changes)? ",
            "catchKey": -1,
            "catchResponse": -1,
            "catchTime": 1678840058672,
            "trialTime": 0
        },
        {
            "exptPart": "trial",
            "trialNumber": 51,
            "roleCurrent": "receiver",
            "marblesSampled": 100,
            "probRed": 0.5,
            "lambda": 5,
            "drawnRed": 42,
            "reportedRed": 34,
            "inferredRed": 40,
            "playerTrialScore": -2,
            "oppTrialScore": 2,
            "playerTotalScore": -107,
            "oppTotalScore": -155,
            "waitTime": 5687.928785528366,
            "responseTime": 1678840176805,
            "catchQuestion": "How many <b class=\"r\">red<\/b> marbles did you actually draw (before any changes)? ",
            "catchKey": -1,
            "catchResponse": -1,
            "catchTime": 1678840058672,
            "trialTime": 0
        },
        {
            "exptPart": "trial",
            "trialNumber": 52,
            "roleCurrent": "sender",
            "marblesSampled": 100,
            "probRed": 0.5,
            "lambda": 5,
            "drawnRed": 59,
            "reportedRed": 55,
            "inferredRed": 66,
            "playerTrialScore": 0,
            "oppTrialScore": -7,
            "playerTotalScore": -107,
            "oppTotalScore": -162,
            "waitTime": 2179.920859125138,
            "responseTime": 1678840191326,
            "catchQuestion": "How many <b class=\"r\">red<\/b> marbles did you actually draw (before any changes)? ",
            "catchKey": -1,
            "catchResponse": -1,
            "catchTime": 1678840058672,
            "trialTime": 0
        },
        {
            "exptPart": "trial",
            "trialNumber": 53,
            "roleCurrent": "receiver",
            "marblesSampled": 100,
            "probRed": 0.5,
            "lambda": 5,
            "drawnRed": 62,
            "reportedRed": 61,
            "inferredRed": 70,
            "playerTrialScore": -8,
            "oppTrialScore": 0,
            "playerTotalScore": -115,
            "oppTotalScore": -162,
            "waitTime": 7146.799734828259,
            "responseTime": 1678840206270,
            "catchQuestion": "How many <b class=\"r\">red<\/b> marbles did you actually draw (before any changes)? ",
            "catchKey": -1,
            "catchResponse": -1,
            "catchTime": 1678840058672,
            "trialTime": 0
        },
        {
            "exptPart": "trial",
            "trialNumber": 54,
            "roleCurrent": "sender",
            "marblesSampled": 100,
            "probRed": 0.5,
            "lambda": 5,
            "drawnRed": 39,
            "reportedRed": 39,
            "inferredRed": 43,
            "playerTrialScore": 0,
            "oppTrialScore": -4,
            "playerTotalScore": -115,
            "oppTotalScore": -166,
            "waitTime": 2262.2418575991305,
            "responseTime": 1678840215555,
            "catchQuestion": "How many <b class=\"r\">red<\/b> marbles did you actually draw (before any changes)? ",
            "catchKey": -1,
            "catchResponse": -1,
            "catchTime": 1678840058672,
            "trialTime": 0
        },
        {
            "exptPart": "trial",
            "trialNumber": 55,
            "roleCurrent": "receiver",
            "marblesSampled": 100,
            "probRed": 0.5,
            "lambda": 5,
            "drawnRed": 82,
            "reportedRed": 78,
            "inferredRed": 80,
            "playerTrialScore": -2,
            "oppTrialScore": 2,
            "playerTotalScore": -117,
            "oppTotalScore": -164,
            "waitTime": 5853.713004474232,
            "responseTime": 1678840225520,
            "catchQuestion": "How many <b class=\"r\">red<\/b> marbles did you actually draw (before any changes)? ",
            "catchKey": -1,
            "catchResponse": -1,
            "catchTime": 1678840225520,
            "trialTime": 0
        },
        {
            "exptPart": "trial",
            "trialNumber": 56,
            "roleCurrent": "sender",
            "marblesSampled": 100,
            "probRed": 0.5,
            "lambda": 5,
            "drawnRed": 70,
            "reportedRed": 70,
            "inferredRed": 74,
            "playerTrialScore": 0,
            "oppTrialScore": -4,
            "playerTotalScore": -117,
            "oppTotalScore": -168,
            "waitTime": 3053.6801332781856,
            "responseTime": 1678840236270,
            "catchQuestion": "How many <b class=\"r\">red<\/b> marbles did you actually draw (before any changes)? ",
            "catchKey": 70,
            "catchResponse": 70,
            "catchTime": 1678840236271,
            "trialTime": 0
        },
        {
            "exptPart": "trial",
            "trialNumber": 57,
            "roleCurrent": "receiver",
            "marblesSampled": 100,
            "probRed": 0.5,
            "lambda": 5,
            "drawnRed": 91,
            "reportedRed": 86,
            "inferredRed": 90,
            "playerTrialScore": -1,
            "oppTrialScore": 1,
            "playerTotalScore": -118,
            "oppTotalScore": -167,
            "waitTime": 6876.933955989332,
            "responseTime": 1678840253587,
            "catchQuestion": "How many <b class=\"r\">red<\/b> marbles did you actually draw (before any changes)? ",
            "catchKey": -1,
            "catchResponse": -1,
            "catchTime": 1678840236271,
            "trialTime": 0
        },
        {
            "exptPart": "trial",
            "trialNumber": 58,
            "roleCurrent": "sender",
            "marblesSampled": 100,
            "probRed": 0.5,
            "lambda": 5,
            "drawnRed": 46,
            "reportedRed": 46,
            "inferredRed": 55,
            "playerTrialScore": 0,
            "oppTrialScore": -9,
            "playerTotalScore": -118,
            "oppTotalScore": -176,
            "waitTime": 2664.7687962596874,
            "responseTime": 1678840262476,
            "catchQuestion": "How many <b class=\"r\">red<\/b> marbles did you actually draw (before any changes)? ",
            "catchKey": -1,
            "catchResponse": -1,
            "catchTime": 1678840236271,
            "trialTime": 0
        },
        {
            "exptPart": "trial",
            "trialNumber": 59,
            "roleCurrent": "receiver",
            "marblesSampled": 100,
            "probRed": 0.5,
            "lambda": 5,
            "drawnRed": 32,
            "reportedRed": 27,
            "inferredRed": 35,
            "playerTrialScore": -3,
            "oppTrialScore": 0,
            "playerTotalScore": -121,
            "oppTotalScore": -176,
            "waitTime": 5991.93972535299,
            "responseTime": 1678840272087,
            "catchQuestion": "How many <b class=\"r\">red<\/b> marbles did you actually draw (before any changes)? ",
            "catchKey": -1,
            "catchResponse": -1,
            "catchTime": 1678840236271,
            "trialTime": 0
        },
        {
            "exptPart": "trial",
            "trialNumber": 60,
            "roleCurrent": "sender",
            "marblesSampled": 100,
            "probRed": 0.5,
            "lambda": 5,
            "drawnRed": 9,
            "reportedRed": 9,
            "inferredRed": 11,
            "playerTrialScore": 0,
            "oppTrialScore": -2,
            "playerTotalScore": -121,
            "oppTotalScore": -178,
            "waitTime": 3045.128704214014,
            "responseTime": 1678840281205,
            "catchQuestion": "How many <b class=\"r\">red<\/b> marbles did you actually draw (before any changes)? ",
            "catchKey": -1,
            "catchResponse": -1,
            "catchTime": 1678840281205,
            "trialTime": 0
        },
        {
            "exptPart": "trial",
            "trialNumber": 61,
            "roleCurrent": "receiver",
            "marblesSampled": 100,
            "probRed": 0.5,
            "lambda": 5,
            "drawnRed": 64,
            "reportedRed": 62,
            "inferredRed": 70,
            "playerTrialScore": -6,
            "oppTrialScore": 0,
            "playerTotalScore": -127,
            "oppTotalScore": -178,
            "waitTime": 6273.4349325944895,
            "responseTime": 1678840295004,
            "catchQuestion": "How many <b class=\"r\">red<\/b> marbles did you actually draw (before any changes)? ",
            "catchKey": -1,
            "catchResponse": -1,
            "catchTime": 1678840281205,
            "trialTime": 0
        },
        {
            "exptPart": "trial",
            "trialNumber": 62,
            "roleCurrent": "sender",
            "marblesSampled": 100,
            "probRed": 0.5,
            "lambda": 5,
            "drawnRed": 18,
            "reportedRed": 18,
            "inferredRed": 22,
            "playerTrialScore": 0,
            "oppTrialScore": -4,
            "playerTotalScore": -127,
            "oppTotalScore": -182,
            "waitTime": 2206.4455203062626,
            "responseTime": 1678840303171,
            "catchQuestion": "How many <b class=\"r\">red<\/b> marbles did you actually draw (before any changes)? ",
            "catchKey": 18,
            "catchResponse": 18,
            "catchTime": 1678840303171,
            "trialTime": 0
        },
        {
            "exptPart": "trial",
            "trialNumber": 63,
            "roleCurrent": "receiver",
            "marblesSampled": 100,
            "probRed": 0.5,
            "lambda": 5,
            "drawnRed": 56,
            "reportedRed": 51,
            "inferredRed": 55,
            "playerTrialScore": -1,
            "oppTrialScore": 1,
            "playerTotalScore": -128,
            "oppTotalScore": -181,
            "waitTime": 6250.839209131878,
            "responseTime": 1678840321386,
            "catchQuestion": "How many <b class=\"r\">red<\/b> marbles did you actually draw (before any changes)? ",
            "catchKey": -1,
            "catchResponse": -1,
            "catchTime": 1678840303171,
            "trialTime": 0
        },
        {
            "exptPart": "trial",
            "trialNumber": 64,
            "roleCurrent": "sender",
            "marblesSampled": 100,
            "probRed": 0.5,
            "lambda": 5,
            "drawnRed": 67,
            "reportedRed": 67,
            "inferredRed": 73,
            "playerTrialScore": 0,
            "oppTrialScore": -6,
            "playerTotalScore": -128,
            "oppTotalScore": -187,
            "waitTime": 2265.2506324906326,
            "responseTime": 1678840333706,
            "catchQuestion": "How many <b class=\"r\">red<\/b> marbles did you actually draw (before any changes)? ",
            "catchKey": -1,
            "catchResponse": -1,
            "catchTime": 1678840303171,
            "trialTime": 0
        },
        {
            "exptPart": "trial",
            "trialNumber": 65,
            "roleCurrent": "receiver",
            "marblesSampled": 100,
            "probRed": 0.5,
            "lambda": 5,
            "drawnRed": 51,
            "reportedRed": 45,
            "inferredRed": 50,
            "playerTrialScore": -1,
            "oppTrialScore": 1,
            "playerTotalScore": -129,
            "oppTotalScore": -186,
            "waitTime": 6802.01627698519,
            "responseTime": 1678840347187,
            "catchQuestion": "How many <b class=\"r\">red<\/b> marbles did you actually draw (before any changes)? ",
            "catchKey": -1,
            "catchResponse": -1,
            "catchTime": 1678840347187,
            "trialTime": 0
        },
        {
            "exptPart": "trial",
            "trialNumber": 66,
            "roleCurrent": "sender",
            "marblesSampled": 100,
            "probRed": 0.5,
            "lambda": 5,
            "drawnRed": 75,
            "reportedRed": 75,
            "inferredRed": 78,
            "playerTrialScore": 0,
            "oppTrialScore": -3,
            "playerTotalScore": -129,
            "oppTotalScore": -189,
            "waitTime": 2660.3295269424834,
            "responseTime": 1678840365009,
            "catchQuestion": "How many <b class=\"r\">red<\/b> marbles did you actually draw (before any changes)? ",
            "catchKey": -1,
            "catchResponse": -1,
            "catchTime": 1678840347187,
            "trialTime": 0
        },
        {
            "exptPart": "trial",
            "trialNumber": 67,
            "roleCurrent": "receiver",
            "marblesSampled": 100,
            "probRed": 0.5,
            "lambda": 5,
            "drawnRed": 62,
            "reportedRed": 50,
            "inferredRed": 50,
            "playerTrialScore": -12,
            "oppTrialScore": 12,
            "playerTotalScore": -141,
            "oppTotalScore": -177,
            "waitTime": 6427.705576117798,
            "responseTime": 1678840376770,
            "catchQuestion": "How many <b class=\"r\">red<\/b> marbles did you actually draw (before any changes)? ",
            "catchKey": -1,
            "catchResponse": -1,
            "catchTime": 1678840347187,
            "trialTime": 0
        },
        {
            "exptPart": "trial",
            "trialNumber": 68,
            "roleCurrent": "sender",
            "marblesSampled": 100,
            "probRed": 0.5,
            "lambda": 5,
            "drawnRed": 41,
            "reportedRed": 41,
            "inferredRed": 44,
            "playerTrialScore": 0,
            "oppTrialScore": -3,
            "playerTotalScore": -141,
            "oppTotalScore": -180,
            "waitTime": 3097.0089453168293,
            "responseTime": 1678840385971,
            "catchQuestion": "How many <b class=\"r\">red<\/b> marbles did you actually draw (before any changes)? ",
            "catchKey": -1,
            "catchResponse": -1,
            "catchTime": 1678840347187,
            "trialTime": 0
        },
        {
            "exptPart": "trial",
            "trialNumber": 69,
            "roleCurrent": "receiver",
            "marblesSampled": 100,
            "probRed": 0.5,
            "lambda": 5,
            "drawnRed": 57,
            "reportedRed": 54,
            "inferredRed": 55,
            "playerTrialScore": -2,
            "oppTrialScore": 2,
            "playerTotalScore": -143,
            "oppTotalScore": -178,
            "waitTime": 6085.664489468616,
            "responseTime": 1678840396819,
            "catchQuestion": "How many <b class=\"r\">red<\/b> marbles did you actually draw (before any changes)? ",
            "catchKey": -1,
            "catchResponse": -1,
            "catchTime": 1678840347187,
            "trialTime": 0
        },
        {
            "exptPart": "trial",
            "trialNumber": 70,
            "roleCurrent": "sender",
            "marblesSampled": 100,
            "probRed": 0.5,
            "lambda": 5,
            "drawnRed": 87,
            "reportedRed": 87,
            "inferredRed": 89,
            "playerTrialScore": 0,
            "oppTrialScore": -2,
            "playerTotalScore": -143,
            "oppTotalScore": -180,
            "waitTime": 2507.609705407273,
            "responseTime": 1678840404504,
            "catchQuestion": "How many <b class=\"r\">red<\/b> marbles did you actually draw (before any changes)? ",
            "catchKey": -1,
            "catchResponse": -1,
            "catchTime": 1678840404504,
            "trialTime": 0
        },
        {
            "exptPart": "trial",
            "trialNumber": 71,
            "roleCurrent": "receiver",
            "marblesSampled": 100,
            "probRed": 0.5,
            "lambda": 5,
            "drawnRed": 49,
            "reportedRed": 43,
            "inferredRed": 44,
            "playerTrialScore": -5,
            "oppTrialScore": 5,
            "playerTotalScore": -148,
            "oppTotalScore": -175,
            "waitTime": 5358.670790129348,
            "responseTime": 1678840417344,
            "catchQuestion": "How many <b class=\"r\">red<\/b> marbles did you actually draw (before any changes)? ",
            "catchKey": -1,
            "catchResponse": -1,
            "catchTime": 1678840404504,
            "trialTime": 0
        },
        {
            "exptPart": "trial",
            "trialNumber": 72,
            "roleCurrent": "sender",
            "marblesSampled": 100,
            "probRed": 0.5,
            "lambda": 5,
            "drawnRed": 79,
            "reportedRed": 79,
            "inferredRed": 86,
            "playerTrialScore": 0,
            "oppTrialScore": -7,
            "playerTotalScore": -148,
            "oppTotalScore": -182,
            "waitTime": 2121.830000916956,
            "responseTime": 1678840425721,
            "catchQuestion": "How many <b class=\"r\">red<\/b> marbles did you actually draw (before any changes)? ",
            "catchKey": -1,
            "catchResponse": -1,
            "catchTime": 1678840404504,
            "trialTime": 0
        },
        {
            "exptPart": "trial",
            "trialNumber": 73,
            "roleCurrent": "receiver",
            "marblesSampled": 100,
            "probRed": 0.5,
            "lambda": 5,
            "drawnRed": 29,
            "reportedRed": 27,
            "inferredRed": 33,
            "playerTrialScore": -4,
            "oppTrialScore": 0,
            "playerTotalScore": -152,
            "oppTotalScore": -182,
            "waitTime": 5886.7298866261635,
            "responseTime": 1678840436919,
            "catchQuestion": "How many <b class=\"r\">red<\/b> marbles did you actually draw (before any changes)? ",
            "catchKey": -1,
            "catchResponse": -1,
            "catchTime": 1678840404504,
            "trialTime": 0
        },
        {
            "exptPart": "trial",
            "trialNumber": 74,
            "roleCurrent": "sender",
            "marblesSampled": 100,
            "probRed": 0.5,
            "lambda": 5,
            "drawnRed": 39,
            "reportedRed": 39,
            "inferredRed": 46,
            "playerTrialScore": 0,
            "oppTrialScore": -7,
            "playerTotalScore": -152,
            "oppTotalScore": -189,
            "waitTime": 2204.2510323124266,
            "responseTime": 1678840446338,
            "catchQuestion": "How many <b class=\"r\">red<\/b> marbles did you actually draw (before any changes)? ",
            "catchKey": 39,
            "catchResponse": 39,
            "catchTime": 1678840446338,
            "trialTime": 0
        },
        {
            "exptPart": "trial",
            "trialNumber": 75,
            "roleCurrent": "receiver",
            "marblesSampled": 100,
            "probRed": 0.5,
            "lambda": 5,
            "drawnRed": 45,
            "reportedRed": 41,
            "inferredRed": 44,
            "playerTrialScore": -1,
            "oppTrialScore": 1,
            "playerTotalScore": -153,
            "oppTotalScore": -188,
            "waitTime": 6985.4626246601165,
            "responseTime": 1678840470120,
            "catchQuestion": "How many <b class=\"r\">red<\/b> marbles did you actually draw (before any changes)? ",
            "catchKey": -1,
            "catchResponse": -1,
            "catchTime": 1678840470121,
            "trialTime": 0
        },
        {
            "exptPart": "trial",
            "trialNumber": 76,
            "roleCurrent": "sender",
            "marblesSampled": 100,
            "probRed": 0.5,
            "lambda": 5,
            "drawnRed": 43,
            "reportedRed": 43,
            "inferredRed": 50,
            "playerTrialScore": 0,
            "oppTrialScore": -7,
            "playerTotalScore": -153,
            "oppTotalScore": -195,
            "waitTime": 2873.940332408932,
            "responseTime": 1678840490004,
            "catchQuestion": "How many <b class=\"r\">red<\/b> marbles did you actually draw (before any changes)? ",
            "catchKey": -1,
            "catchResponse": -1,
            "catchTime": 1678840470121,
            "trialTime": 0
        },
        {
            "exptPart": "trial",
            "trialNumber": 77,
            "roleCurrent": "receiver",
            "marblesSampled": 100,
            "probRed": 0.5,
            "lambda": 5,
            "drawnRed": 29,
            "reportedRed": 24,
            "inferredRed": 33,
            "playerTrialScore": -4,
            "oppTrialScore": 0,
            "playerTotalScore": -157,
            "oppTotalScore": -195,
            "waitTime": 5967.50908856971,
            "responseTime": 1678840499920,
            "catchQuestion": "How many <b class=\"r\">red<\/b> marbles did you actually draw (before any changes)? ",
            "catchKey": -1,
            "catchResponse": -1,
            "catchTime": 1678840470121,
            "trialTime": 0
        },
        {
            "exptPart": "trial",
            "trialNumber": 78,
            "roleCurrent": "sender",
            "marblesSampled": 100,
            "probRed": 0.5,
            "lambda": 5,
            "drawnRed": 33,
            "reportedRed": 33,
            "inferredRed": 40,
            "playerTrialScore": 0,
            "oppTrialScore": -7,
            "playerTotalScore": -157,
            "oppTotalScore": -202,
            "waitTime": 2587.1962544482194,
            "responseTime": 1678840508238,
            "catchQuestion": "How many <b class=\"r\">red<\/b> marbles did you actually draw (before any changes)? ",
            "catchKey": -1,
            "catchResponse": -1,
            "catchTime": 1678840470121,
            "trialTime": 0
        },
        {
            "exptPart": "trial",
            "trialNumber": 79,
            "roleCurrent": "receiver",
            "marblesSampled": 100,
            "probRed": 0.5,
            "lambda": 5,
            "drawnRed": 22,
            "reportedRed": 16,
            "inferredRed": 22,
            "playerTrialScore": 0,
            "oppTrialScore": 0,
            "playerTotalScore": -157,
            "oppTotalScore": -202,
            "waitTime": 7408.815832972757,
            "responseTime": 1678840521070,
            "catchQuestion": "How many <b class=\"r\">red<\/b> marbles did you actually draw (before any changes)? ",
            "catchKey": -1,
            "catchResponse": -1,
            "catchTime": 1678840470121,
            "trialTime": 0
        },
        {
            "exptPart": "trial",
            "trialNumber": 80,
            "roleCurrent": "sender",
            "marblesSampled": 100,
            "probRed": 0.5,
            "lambda": 5,
            "drawnRed": 68,
            "reportedRed": 68,
            "inferredRed": 72,
            "playerTrialScore": 0,
            "oppTrialScore": -4,
            "playerTotalScore": -157,
            "oppTotalScore": -206,
            "waitTime": 2765.5165023083473,
            "responseTime": 1678840528356,
            "catchQuestion": "How many <b class=\"r\">red<\/b> marbles did you actually draw (before any changes)? ",
            "catchKey": -1,
            "catchResponse": -1,
            "catchTime": 1678840528357,
            "trialTime": 0
        },
        {
            "exptPart": "trial",
            "trialNumber": 81,
            "roleCurrent": "receiver",
            "marblesSampled": 100,
            "probRed": 0.5,
            "lambda": 5,
            "drawnRed": 61,
            "reportedRed": 56,
            "inferredRed": 60,
            "playerTrialScore": -1,
            "oppTrialScore": 1,
            "playerTotalScore": -158,
            "oppTotalScore": -205,
            "waitTime": 5946.130917190294,
            "responseTime": 1678840542239,
            "catchQuestion": "How many <b class=\"r\">red<\/b> marbles did you actually draw (before any changes)? ",
            "catchKey": -1,
            "catchResponse": -1,
            "catchTime": 1678840528357,
            "trialTime": 0
        },
        {
            "exptPart": "trial",
            "trialNumber": 82,
            "roleCurrent": "sender",
            "marblesSampled": 100,
            "probRed": 0.5,
            "lambda": 5,
            "drawnRed": 45,
            "reportedRed": 45,
            "inferredRed": 50,
            "playerTrialScore": 0,
            "oppTrialScore": -5,
            "playerTotalScore": -158,
            "oppTotalScore": -210,
            "waitTime": 2375.5040724772953,
            "responseTime": 1678840550255,
            "catchQuestion": "How many <b class=\"r\">red<\/b> marbles did you actually draw (before any changes)? ",
            "catchKey": -1,
            "catchResponse": -1,
            "catchTime": 1678840528357,
            "trialTime": 0
        },
        {
            "exptPart": "trial",
            "trialNumber": 83,
            "roleCurrent": "receiver",
            "marblesSampled": 100,
            "probRed": 0.5,
            "lambda": 5,
            "drawnRed": 35,
            "reportedRed": 28,
            "inferredRed": 33,
            "playerTrialScore": -2,
            "oppTrialScore": 2,
            "playerTotalScore": -160,
            "oppTotalScore": -208,
            "waitTime": 5514.07576590471,
            "responseTime": 1678840559235,
            "catchQuestion": "How many <b class=\"r\">red<\/b> marbles did you actually draw (before any changes)? ",
            "catchKey": -1,
            "catchResponse": -1,
            "catchTime": 1678840528357,
            "trialTime": 0
        },
        {
            "exptPart": "trial",
            "trialNumber": 84,
            "roleCurrent": "sender",
            "marblesSampled": 100,
            "probRed": 0.5,
            "lambda": 5,
            "drawnRed": 76,
            "reportedRed": 76,
            "inferredRed": 82,
            "playerTrialScore": 0,
            "oppTrialScore": -6,
            "playerTotalScore": -160,
            "oppTotalScore": -214,
            "waitTime": 2536.647452541858,
            "responseTime": 1678840566605,
            "catchQuestion": "How many <b class=\"r\">red<\/b> marbles did you actually draw (before any changes)? ",
            "catchKey": -1,
            "catchResponse": -1,
            "catchTime": 1678840528357,
            "trialTime": 0
        },
        {
            "exptPart": "trial",
            "trialNumber": 85,
            "roleCurrent": "receiver",
            "marblesSampled": 100,
            "probRed": 0.5,
            "lambda": 5,
            "drawnRed": 37,
            "reportedRed": 32,
            "inferredRed": 40,
            "playerTrialScore": -3,
            "oppTrialScore": 0,
            "playerTotalScore": -163,
            "oppTotalScore": -214,
            "waitTime": 5616.589116898445,
            "responseTime": 1678840577884,
            "catchQuestion": "How many <b class=\"r\">red<\/b> marbles did you actually draw (before any changes)? ",
            "catchKey": -1,
            "catchResponse": -1,
            "catchTime": 1678840577884,
            "trialTime": 0
        },
        {
            "exptPart": "trial",
            "trialNumber": 86,
            "roleCurrent": "sender",
            "marblesSampled": 100,
            "probRed": 0.5,
            "lambda": 5,
            "drawnRed": 56,
            "reportedRed": 56,
            "inferredRed": 61,
            "playerTrialScore": 0,
            "oppTrialScore": -5,
            "playerTotalScore": -163,
            "oppTotalScore": -219,
            "waitTime": 2500.91373393907,
            "responseTime": 1678840589491,
            "catchQuestion": "How many <b class=\"r\">red<\/b> marbles did you actually draw (before any changes)? ",
            "catchKey": -1,
            "catchResponse": -1,
            "catchTime": 1678840577884,
            "trialTime": 0
        },
        {
            "exptPart": "trial",
            "trialNumber": 87,
            "roleCurrent": "receiver",
            "marblesSampled": 100,
            "probRed": 0.5,
            "lambda": 5,
            "drawnRed": 78,
            "reportedRed": 73,
            "inferredRed": 80,
            "playerTrialScore": -2,
            "oppTrialScore": 0,
            "playerTotalScore": -165,
            "oppTotalScore": -219,
            "waitTime": 6741.517034861798,
            "responseTime": 1678840600290,
            "catchQuestion": "How many <b class=\"r\">red<\/b> marbles did you actually draw (before any changes)? ",
            "catchKey": -1,
            "catchResponse": -1,
            "catchTime": 1678840577884,
            "trialTime": 0
        },
        {
            "exptPart": "trial",
            "trialNumber": 88,
            "roleCurrent": "sender",
            "marblesSampled": 100,
            "probRed": 0.5,
            "lambda": 5,
            "drawnRed": 67,
            "reportedRed": 67,
            "inferredRed": 75,
            "playerTrialScore": 0,
            "oppTrialScore": -8,
            "playerTotalScore": -165,
            "oppTotalScore": -227,
            "waitTime": 2153.6048008410144,
            "responseTime": 1678840608436,
            "catchQuestion": "How many <b class=\"r\">red<\/b> marbles did you actually draw (before any changes)? ",
            "catchKey": -1,
            "catchResponse": -1,
            "catchTime": 1678840577884,
            "trialTime": 0
        },
        {
            "exptPart": "trial",
            "trialNumber": 89,
            "roleCurrent": "receiver",
            "marblesSampled": 100,
            "probRed": 0.5,
            "lambda": 5,
            "drawnRed": 75,
            "reportedRed": 71,
            "inferredRed": 77,
            "playerTrialScore": -2,
            "oppTrialScore": 0,
            "playerTotalScore": -167,
            "oppTotalScore": -227,
            "waitTime": 5372.594961739949,
            "responseTime": 1678840617919,
            "catchQuestion": "How many <b class=\"r\">red<\/b> marbles did you actually draw (before any changes)? ",
            "catchKey": -1,
            "catchResponse": -1,
            "catchTime": 1678840577884,
            "trialTime": 0
        },
        {
            "exptPart": "trial",
            "trialNumber": 90,
            "roleCurrent": "sender",
            "marblesSampled": 100,
            "probRed": 0.5,
            "lambda": 5,
            "drawnRed": 67,
            "reportedRed": 67,
            "inferredRed": 71,
            "playerTrialScore": 0,
            "oppTrialScore": -4,
            "playerTotalScore": -167,
            "oppTotalScore": -231,
            "waitTime": 2901.4788218583017,
            "responseTime": 1678840625987,
            "catchQuestion": "How many <b class=\"r\">red<\/b> marbles did you actually draw (before any changes)? ",
            "catchKey": -1,
            "catchResponse": -1,
            "catchTime": 1678840625987,
            "trialTime": 0
        },
        {
            "exptPart": "trial",
            "trialNumber": 91,
            "roleCurrent": "receiver",
            "marblesSampled": 100,
            "probRed": 0.5,
            "lambda": 5,
            "drawnRed": 54,
            "reportedRed": 49,
            "inferredRed": 55,
            "playerTrialScore": -1,
            "oppTrialScore": 0,
            "playerTotalScore": -168,
            "oppTotalScore": -231,
            "waitTime": 5413.462427140958,
            "responseTime": 1678840642101,
            "catchQuestion": "How many <b class=\"r\">red<\/b> marbles did you actually draw (before any changes)? ",
            "catchKey": -1,
            "catchResponse": -1,
            "catchTime": 1678840625987,
            "trialTime": 0
        },
        {
            "exptPart": "trial",
            "trialNumber": 92,
            "roleCurrent": "sender",
            "marblesSampled": 100,
            "probRed": 0.5,
            "lambda": 5,
            "drawnRed": 55,
            "reportedRed": 55,
            "inferredRed": 60,
            "playerTrialScore": 0,
            "oppTrialScore": -5,
            "playerTotalScore": -168,
            "oppTotalScore": -236,
            "waitTime": 2411.448373790394,
            "responseTime": 1678840650688,
            "catchQuestion": "How many <b class=\"r\">red<\/b> marbles did you actually draw (before any changes)? ",
            "catchKey": -1,
            "catchResponse": -1,
            "catchTime": 1678840625987,
            "trialTime": 0
        },
        {
            "exptPart": "trial",
            "trialNumber": 93,
            "roleCurrent": "receiver",
            "marblesSampled": 100,
            "probRed": 0.5,
            "lambda": 5,
            "drawnRed": 44,
            "reportedRed": 42,
            "inferredRed": 55,
            "playerTrialScore": -11,
            "oppTrialScore": 0,
            "playerTotalScore": -179,
            "oppTotalScore": -236,
            "waitTime": 5282.785106437657,
            "responseTime": 1678840663001,
            "catchQuestion": "How many <b class=\"r\">red<\/b> marbles did you actually draw (before any changes)? ",
            "catchKey": -1,
            "catchResponse": -1,
            "catchTime": 1678840625987,
            "trialTime": 0
        },
        {
            "exptPart": "trial",
            "trialNumber": 94,
            "roleCurrent": "sender",
            "marblesSampled": 100,
            "probRed": 0.5,
            "lambda": 5,
            "drawnRed": 74,
            "reportedRed": 74,
            "inferredRed": 79,
            "playerTrialScore": 0,
            "oppTrialScore": -5,
            "playerTotalScore": -179,
            "oppTotalScore": -241,
            "waitTime": 2347.728816354923,
            "responseTime": 1678840670485,
            "catchQuestion": "How many <b class=\"r\">red<\/b> marbles did you actually draw (before any changes)? ",
            "catchKey": -1,
            "catchResponse": -1,
            "catchTime": 1678840625987,
            "trialTime": 0
        },
        {
            "exptPart": "trial",
            "trialNumber": 95,
            "roleCurrent": "receiver",
            "marblesSampled": 100,
            "probRed": 0.5,
            "lambda": 5,
            "drawnRed": 31,
            "reportedRed": 31,
            "inferredRed": 44,
            "playerTrialScore": -13,
            "oppTrialScore": 0,
            "playerTotalScore": -192,
            "oppTotalScore": -241,
            "waitTime": 6466.332221309165,
            "responseTime": 1678840683753,
            "catchQuestion": "How many <b class=\"r\">red<\/b> marbles did you actually draw (before any changes)? ",
            "catchKey": -1,
            "catchResponse": -1,
            "catchTime": 1678840683753,
            "trialTime": 0
        },
        {
            "exptPart": "trial",
            "trialNumber": 96,
            "roleCurrent": "sender",
            "marblesSampled": 100,
            "probRed": 0.5,
            "lambda": 5,
            "drawnRed": 32,
            "reportedRed": 32,
            "inferredRed": 39,
            "playerTrialScore": 0,
            "oppTrialScore": -7,
            "playerTotalScore": -192,
            "oppTotalScore": -248,
            "waitTime": 2897.032281930742,
            "responseTime": 1678840692985,
            "catchQuestion": "How many <b class=\"r\">red<\/b> marbles did you actually draw (before any changes)? ",
            "catchKey": -1,
            "catchResponse": -1,
            "catchTime": 1678840683753,
            "trialTime": 0
        },
        {
            "exptPart": "trial",
            "trialNumber": 97,
            "roleCurrent": "receiver",
            "marblesSampled": 100,
            "probRed": 0.5,
            "lambda": 5,
            "drawnRed": 82,
            "reportedRed": 81,
            "inferredRed": 85,
            "playerTrialScore": -3,
            "oppTrialScore": 0,
            "playerTotalScore": -195,
            "oppTotalScore": -248,
            "waitTime": 6234.904569761526,
            "responseTime": 1678840703734,
            "catchQuestion": "How many <b class=\"r\">red<\/b> marbles did you actually draw (before any changes)? ",
            "catchKey": -1,
            "catchResponse": -1,
            "catchTime": 1678840683753,
            "trialTime": 0
        },
        {
            "exptPart": "trial",
            "trialNumber": 98,
            "roleCurrent": "sender",
            "marblesSampled": 100,
            "probRed": 0.5,
            "lambda": 5,
            "drawnRed": 64,
            "reportedRed": 64,
            "inferredRed": 69,
            "playerTrialScore": 0,
            "oppTrialScore": -5,
            "playerTotalScore": -195,
            "oppTotalScore": -253,
            "waitTime": 2157.279461612938,
            "responseTime": 1678840715969,
            "catchQuestion": "How many <b class=\"r\">red<\/b> marbles did you actually draw (before any changes)? ",
            "catchKey": -1,
            "catchResponse": -1,
            "catchTime": 1678840683753,
            "trialTime": 0
        },
        {
            "exptPart": "trial",
            "trialNumber": 99,
            "roleCurrent": "receiver",
            "marblesSampled": 100,
            "probRed": 0.5,
            "lambda": 5,
            "drawnRed": 65,
            "reportedRed": 61,
            "inferredRed": 65,
            "playerTrialScore": 0,
            "oppTrialScore": 0,
            "playerTotalScore": -195,
            "oppTotalScore": -253,
            "waitTime": 6162.409984193193,
            "responseTime": 1678840725768,
            "catchQuestion": "How many <b class=\"r\">red<\/b> marbles did you actually draw (before any changes)? ",
            "catchKey": -1,
            "catchResponse": -1,
            "catchTime": 1678840683753,
            "trialTime": 0
        },
        {
            "exptPart": "trial",
            "trialNumber": 100,
            "roleCurrent": "sender",
            "marblesSampled": 100,
            "probRed": 0.5,
            "lambda": 5,
            "drawnRed": 82,
            "reportedRed": 82,
            "inferredRed": 87,
            "playerTrialScore": 0,
            "oppTrialScore": -5,
            "playerTotalScore": -195,
            "oppTotalScore": -258,
            "waitTime": 2064.899998454911,
            "responseTime": 1678840732901,
            "catchQuestion": "How many <b class=\"r\">red<\/b> marbles did you actually draw (before any changes)? ",
            "catchKey": -1,
            "catchResponse": -1,
            "catchTime": 1678840732901,
            "trialTime": 0
        }
    ]
}