{
    "client": {
        "type": "sona",
        "experiment_id": 2228,
        "credit_token": "b315147ae43241ea9c65086cb510cfb7",
        "survey_code": "39761",
        "sid": "sona-39761",
        "window": {
            "width": 1280,
            "height": 657
        },
        "screen": {
            "width": 1280,
            "height": 800
        },
        "userAgent": "Mozilla\/5.0 (Windows NT 10.0; Win64; x64) AppleWebKit\/537.36 (KHTML, like Gecko) Chrome\/111.0.0.0 Safari\/537.36",
        "score": 0,
        "bonus": 0
    },
    "expt": {
        "saveURL": "submit.simple.php",
        "trials": 100,
        "practiceTrials": 2,
        "marblesSampled": 100,
        "probRed": 0.5,
        "lambdaAI": 5,
        "roleFirst": "sender",
        "roles": [
            "sender",
            "receiver"
        ],
        "cost": "unif",
        "goal": "over",
        "goalInstructTxt": "below",
        "catchTrials": [
            56,
            20,
            91,
            11,
            33,
            86,
            17,
            48,
            34,
            78
        ],
        "scoreTotal": {
            "player": -194,
            "opp": -756
        },
        "sona": {
            "experiment_id": 2228,
            "credit_token": "b315147ae43241ea9c65086cb510cfb7"
        },
        "pilot": false,
        "debug": false
    },
    "trials": [
        {
            "exptPart": "practice",
            "trialNumber": 1,
            "roleCurrent": "sender",
            "marblesSampled": 100,
            "probRed": 0.5,
            "lambda": 5,
            "drawnRed": 41,
            "reportedRed": 55,
            "inferredRed": 53,
            "playerTrialScore": 12,
            "oppTrialScore": -12,
            "playerTotalScore": 12,
            "oppTotalScore": -12,
            "waitTime": 3114.500042144669,
            "responseTime": 1680644681444,
            "catchQuestion": "How many <b class=\"r\">red<\/b> marbles did you actually draw (before any changes)? ",
            "catchKey": 41,
            "catchResponse": 41,
            "catchTime": 1680644681445,
            "trialTime": 0
        },
        {
            "exptPart": "practice",
            "trialNumber": 2,
            "roleCurrent": "receiver",
            "marblesSampled": 100,
            "probRed": 0.5,
            "lambda": 5,
            "drawnRed": 72,
            "reportedRed": 80,
            "inferredRed": 30,
            "playerTrialScore": -42,
            "oppTrialScore": 0,
            "playerTotalScore": -30,
            "oppTotalScore": -12,
            "waitTime": 5771.661979468894,
            "responseTime": 1680644724726,
            "catchQuestion": "How many <b class=\"r\">red<\/b> marbles did your opponent report drawing? ",
            "catchKey": 80,
            "catchResponse": 80,
            "catchTime": 1680644724727,
            "trialTime": 0
        },
        {
            "exptPart": "trial",
            "trialNumber": 1,
            "roleCurrent": "sender",
            "marblesSampled": 100,
            "probRed": 0.5,
            "lambda": 5,
            "drawnRed": 25,
            "reportedRed": 43,
            "inferredRed": 39,
            "playerTrialScore": 14,
            "oppTrialScore": -14,
            "playerTotalScore": 14,
            "oppTotalScore": -14,
            "waitTime": 2845.023548407653,
            "responseTime": 1680644775259,
            "catchQuestion": "How many <b class=\"r\">red<\/b> marbles did your opponent report drawing? ",
            "catchKey": -1,
            "catchResponse": -1,
            "catchTime": 1680644724727,
            "trialTime": 0
        },
        {
            "exptPart": "trial",
            "trialNumber": 2,
            "roleCurrent": "receiver",
            "marblesSampled": 100,
            "probRed": 0.5,
            "lambda": 5,
            "drawnRed": 53,
            "reportedRed": 59,
            "inferredRed": 46,
            "playerTrialScore": -7,
            "oppTrialScore": 0,
            "playerTotalScore": 7,
            "oppTotalScore": -14,
            "waitTime": 5685.148418878309,
            "responseTime": 1680644788834,
            "catchQuestion": "How many <b class=\"r\">red<\/b> marbles did your opponent report drawing? ",
            "catchKey": -1,
            "catchResponse": -1,
            "catchTime": 1680644724727,
            "trialTime": 0
        },
        {
            "exptPart": "trial",
            "trialNumber": 3,
            "roleCurrent": "sender",
            "marblesSampled": 100,
            "probRed": 0.5,
            "lambda": 5,
            "drawnRed": 24,
            "reportedRed": 24,
            "inferredRed": 21,
            "playerTrialScore": 0,
            "oppTrialScore": -3,
            "playerTotalScore": 7,
            "oppTotalScore": -17,
            "waitTime": 3048.370308021717,
            "responseTime": 1680644805063,
            "catchQuestion": "How many <b class=\"r\">red<\/b> marbles did your opponent report drawing? ",
            "catchKey": -1,
            "catchResponse": -1,
            "catchTime": 1680644724727,
            "trialTime": 0
        },
        {
            "exptPart": "trial",
            "trialNumber": 4,
            "roleCurrent": "receiver",
            "marblesSampled": 100,
            "probRed": 0.5,
            "lambda": 5,
            "drawnRed": 66,
            "reportedRed": 68,
            "inferredRed": 57,
            "playerTrialScore": -9,
            "oppTrialScore": 0,
            "playerTotalScore": -2,
            "oppTotalScore": -17,
            "waitTime": 7285.272386752955,
            "responseTime": 1680644817669,
            "catchQuestion": "How many <b class=\"r\">red<\/b> marbles did your opponent report drawing? ",
            "catchKey": -1,
            "catchResponse": -1,
            "catchTime": 1680644724727,
            "trialTime": 0
        },
        {
            "exptPart": "trial",
            "trialNumber": 5,
            "roleCurrent": "sender",
            "marblesSampled": 100,
            "probRed": 0.5,
            "lambda": 5,
            "drawnRed": 66,
            "reportedRed": 69,
            "inferredRed": 66,
            "playerTrialScore": 0,
            "oppTrialScore": 0,
            "playerTotalScore": -2,
            "oppTotalScore": -17,
            "waitTime": 2288.051772860103,
            "responseTime": 1680644836470,
            "catchQuestion": "How many <b class=\"r\">red<\/b> marbles did your opponent report drawing? ",
            "catchKey": -1,
            "catchResponse": -1,
            "catchTime": 1680644836471,
            "trialTime": 0
        },
        {
            "exptPart": "trial",
            "trialNumber": 6,
            "roleCurrent": "receiver",
            "marblesSampled": 100,
            "probRed": 0.5,
            "lambda": 5,
            "drawnRed": 42,
            "reportedRed": 46,
            "inferredRed": 46,
            "playerTrialScore": -4,
            "oppTrialScore": 4,
            "playerTotalScore": -6,
            "oppTotalScore": -13,
            "waitTime": 5744.318941687572,
            "responseTime": 1680644854822,
            "catchQuestion": "How many <b class=\"r\">red<\/b> marbles did your opponent report drawing? ",
            "catchKey": -1,
            "catchResponse": -1,
            "catchTime": 1680644836471,
            "trialTime": 0
        },
        {
            "exptPart": "trial",
            "trialNumber": 7,
            "roleCurrent": "sender",
            "marblesSampled": 100,
            "probRed": 0.5,
            "lambda": 5,
            "drawnRed": 25,
            "reportedRed": 25,
            "inferredRed": 18,
            "playerTrialScore": 0,
            "oppTrialScore": -7,
            "playerTotalScore": -6,
            "oppTotalScore": -20,
            "waitTime": 2713.0450329404475,
            "responseTime": 1680644865676,
            "catchQuestion": "How many <b class=\"r\">red<\/b> marbles did your opponent report drawing? ",
            "catchKey": -1,
            "catchResponse": -1,
            "catchTime": 1680644836471,
            "trialTime": 0
        },
        {
            "exptPart": "trial",
            "trialNumber": 8,
            "roleCurrent": "receiver",
            "marblesSampled": 100,
            "probRed": 0.5,
            "lambda": 5,
            "drawnRed": 63,
            "reportedRed": 71,
            "inferredRed": 64,
            "playerTrialScore": -1,
            "oppTrialScore": 1,
            "playerTotalScore": -7,
            "oppTotalScore": -19,
            "waitTime": 6225.604290295376,
            "responseTime": 1680644877998,
            "catchQuestion": "How many <b class=\"r\">red<\/b> marbles did your opponent report drawing? ",
            "catchKey": -1,
            "catchResponse": -1,
            "catchTime": 1680644836471,
            "trialTime": 0
        },
        {
            "exptPart": "trial",
            "trialNumber": 9,
            "roleCurrent": "sender",
            "marblesSampled": 100,
            "probRed": 0.5,
            "lambda": 5,
            "drawnRed": 36,
            "reportedRed": 47,
            "inferredRed": 43,
            "playerTrialScore": 7,
            "oppTrialScore": -7,
            "playerTotalScore": 0,
            "oppTotalScore": -26,
            "waitTime": 2375.174227927614,
            "responseTime": 1680644896540,
            "catchQuestion": "How many <b class=\"r\">red<\/b> marbles did your opponent report drawing? ",
            "catchKey": -1,
            "catchResponse": -1,
            "catchTime": 1680644836471,
            "trialTime": 0
        },
        {
            "exptPart": "trial",
            "trialNumber": 10,
            "roleCurrent": "receiver",
            "marblesSampled": 100,
            "probRed": 0.5,
            "lambda": 5,
            "drawnRed": 49,
            "reportedRed": 59,
            "inferredRed": 25,
            "playerTrialScore": -24,
            "oppTrialScore": 0,
            "playerTotalScore": -24,
            "oppTotalScore": -26,
            "waitTime": 5883.176740161594,
            "responseTime": 1680644910315,
            "catchQuestion": "How many <b class=\"r\">red<\/b> marbles did your opponent report drawing? ",
            "catchKey": -1,
            "catchResponse": -1,
            "catchTime": 1680644910315,
            "trialTime": 0
        },
        {
            "exptPart": "trial",
            "trialNumber": 11,
            "roleCurrent": "sender",
            "marblesSampled": 100,
            "probRed": 0.5,
            "lambda": 5,
            "drawnRed": 46,
            "reportedRed": 50,
            "inferredRed": 46,
            "playerTrialScore": 0,
            "oppTrialScore": 0,
            "playerTotalScore": -24,
            "oppTotalScore": -26,
            "waitTime": 2281.3054996574488,
            "responseTime": 1680644933498,
            "catchQuestion": "How many <b class=\"r\">red<\/b> marbles did your opponent report drawing? ",
            "catchKey": -1,
            "catchResponse": -1,
            "catchTime": 1680644910315,
            "trialTime": 0
        },
        {
            "exptPart": "trial",
            "trialNumber": 12,
            "roleCurrent": "receiver",
            "marblesSampled": 100,
            "probRed": 0.5,
            "lambda": 5,
            "drawnRed": 34,
            "reportedRed": 41,
            "inferredRed": 37,
            "playerTrialScore": -3,
            "oppTrialScore": 3,
            "playerTotalScore": -27,
            "oppTotalScore": -23,
            "waitTime": 5644.939230074147,
            "responseTime": 1680644944560,
            "catchQuestion": "How many <b class=\"r\">red<\/b> marbles did your opponent report drawing? ",
            "catchKey": 41,
            "catchResponse": 41,
            "catchTime": 1680644944560,
            "trialTime": 0
        },
        {
            "exptPart": "trial",
            "trialNumber": 13,
            "roleCurrent": "sender",
            "marblesSampled": 100,
            "probRed": 0.5,
            "lambda": 5,
            "drawnRed": 10,
            "reportedRed": 10,
            "inferredRed": 7,
            "playerTrialScore": 0,
            "oppTrialScore": -3,
            "playerTotalScore": -27,
            "oppTotalScore": -26,
            "waitTime": 3072.611293066663,
            "responseTime": 1680644964001,
            "catchQuestion": "How many <b class=\"r\">red<\/b> marbles did your opponent report drawing? ",
            "catchKey": -1,
            "catchResponse": -1,
            "catchTime": 1680644944560,
            "trialTime": 0
        },
        {
            "exptPart": "trial",
            "trialNumber": 14,
            "roleCurrent": "receiver",
            "marblesSampled": 100,
            "probRed": 0.5,
            "lambda": 5,
            "drawnRed": 58,
            "reportedRed": 63,
            "inferredRed": 35,
            "playerTrialScore": -23,
            "oppTrialScore": 0,
            "playerTotalScore": -50,
            "oppTotalScore": -26,
            "waitTime": 7491.355713497669,
            "responseTime": 1680644978394,
            "catchQuestion": "How many <b class=\"r\">red<\/b> marbles did your opponent report drawing? ",
            "catchKey": -1,
            "catchResponse": -1,
            "catchTime": 1680644944560,
            "trialTime": 0
        },
        {
            "exptPart": "trial",
            "trialNumber": 15,
            "roleCurrent": "sender",
            "marblesSampled": 100,
            "probRed": 0.5,
            "lambda": 5,
            "drawnRed": 21,
            "reportedRed": 75,
            "inferredRed": 69,
            "playerTrialScore": 48,
            "oppTrialScore": -48,
            "playerTotalScore": -2,
            "oppTotalScore": -74,
            "waitTime": 2330.535241798175,
            "responseTime": 1680645041032,
            "catchQuestion": "How many <b class=\"r\">red<\/b> marbles did your opponent report drawing? ",
            "catchKey": -1,
            "catchResponse": -1,
            "catchTime": 1680645041032,
            "trialTime": 0
        },
        {
            "exptPart": "trial",
            "trialNumber": 16,
            "roleCurrent": "receiver",
            "marblesSampled": 100,
            "probRed": 0.5,
            "lambda": 5,
            "drawnRed": 49,
            "reportedRed": 50,
            "inferredRed": 50,
            "playerTrialScore": -1,
            "oppTrialScore": 1,
            "playerTotalScore": -3,
            "oppTotalScore": -73,
            "waitTime": 5396.555119924384,
            "responseTime": 1680645054734,
            "catchQuestion": "How many <b class=\"r\">red<\/b> marbles did your opponent report drawing? ",
            "catchKey": -1,
            "catchResponse": -1,
            "catchTime": 1680645041032,
            "trialTime": 0
        },
        {
            "exptPart": "trial",
            "trialNumber": 17,
            "roleCurrent": "sender",
            "marblesSampled": 100,
            "probRed": 0.5,
            "lambda": 5,
            "drawnRed": 20,
            "reportedRed": 75,
            "inferredRed": 69,
            "playerTrialScore": 49,
            "oppTrialScore": -49,
            "playerTotalScore": 46,
            "oppTotalScore": -122,
            "waitTime": 2715.176754036058,
            "responseTime": 1680645116961,
            "catchQuestion": "How many <b class=\"r\">red<\/b> marbles did your opponent report drawing? ",
            "catchKey": -1,
            "catchResponse": -1,
            "catchTime": 1680645041032,
            "trialTime": 0
        },
        {
            "exptPart": "trial",
            "trialNumber": 18,
            "roleCurrent": "receiver",
            "marblesSampled": 100,
            "probRed": 0.5,
            "lambda": 5,
            "drawnRed": 88,
            "reportedRed": 95,
            "inferredRed": 45,
            "playerTrialScore": -43,
            "oppTrialScore": 0,
            "playerTotalScore": 3,
            "oppTotalScore": -122,
            "waitTime": 5895.759352305383,
            "responseTime": 1680645129844,
            "catchQuestion": "How many <b class=\"r\">red<\/b> marbles did your opponent report drawing? ",
            "catchKey": 95,
            "catchResponse": 91,
            "catchTime": 1680645129844,
            "trialTime": 0
        },
        {
            "exptPart": "trial",
            "trialNumber": 19,
            "roleCurrent": "sender",
            "marblesSampled": 100,
            "probRed": 0.5,
            "lambda": 5,
            "drawnRed": 33,
            "reportedRed": 33,
            "inferredRed": 28,
            "playerTrialScore": 0,
            "oppTrialScore": -5,
            "playerTotalScore": 3,
            "oppTotalScore": -127,
            "waitTime": 3117.540668863225,
            "responseTime": 1680645149931,
            "catchQuestion": "How many <b class=\"r\">red<\/b> marbles did your opponent report drawing? ",
            "catchKey": -1,
            "catchResponse": -1,
            "catchTime": 1680645129844,
            "trialTime": 0
        },
        {
            "exptPart": "trial",
            "trialNumber": 20,
            "roleCurrent": "receiver",
            "marblesSampled": 100,
            "probRed": 0.5,
            "lambda": 5,
            "drawnRed": 64,
            "reportedRed": 70,
            "inferredRed": 64,
            "playerTrialScore": 0,
            "oppTrialScore": 0,
            "playerTotalScore": 3,
            "oppTotalScore": -127,
            "waitTime": 6898.166718465158,
            "responseTime": 1680645160670,
            "catchQuestion": "How many <b class=\"r\">red<\/b> marbles did your opponent report drawing? ",
            "catchKey": -1,
            "catchResponse": -1,
            "catchTime": 1680645160670,
            "trialTime": 0
        },
        {
            "exptPart": "trial",
            "trialNumber": 21,
            "roleCurrent": "sender",
            "marblesSampled": 100,
            "probRed": 0.5,
            "lambda": 5,
            "drawnRed": 67,
            "reportedRed": 75,
            "inferredRed": 70,
            "playerTrialScore": 3,
            "oppTrialScore": -3,
            "playerTotalScore": 6,
            "oppTotalScore": -130,
            "waitTime": 2392.6259898534204,
            "responseTime": 1680645182951,
            "catchQuestion": "How many <b class=\"r\">red<\/b> marbles did you actually draw (before any changes)? ",
            "catchKey": 67,
            "catchResponse": 61,
            "catchTime": 1680645182951,
            "trialTime": 0
        },
        {
            "exptPart": "trial",
            "trialNumber": 22,
            "roleCurrent": "receiver",
            "marblesSampled": 100,
            "probRed": 0.5,
            "lambda": 5,
            "drawnRed": 63,
            "reportedRed": 65,
            "inferredRed": 55,
            "playerTrialScore": -8,
            "oppTrialScore": 0,
            "playerTotalScore": -2,
            "oppTotalScore": -130,
            "waitTime": 5693.53086265817,
            "responseTime": 1680645203286,
            "catchQuestion": "How many <b class=\"r\">red<\/b> marbles did you actually draw (before any changes)? ",
            "catchKey": -1,
            "catchResponse": -1,
            "catchTime": 1680645182951,
            "trialTime": 0
        },
        {
            "exptPart": "trial",
            "trialNumber": 23,
            "roleCurrent": "sender",
            "marblesSampled": 100,
            "probRed": 0.5,
            "lambda": 5,
            "drawnRed": 57,
            "reportedRed": 57,
            "inferredRed": 54,
            "playerTrialScore": 0,
            "oppTrialScore": -3,
            "playerTotalScore": -2,
            "oppTotalScore": -133,
            "waitTime": 2630.1070794534617,
            "responseTime": 1680645214836,
            "catchQuestion": "How many <b class=\"r\">red<\/b> marbles did you actually draw (before any changes)? ",
            "catchKey": -1,
            "catchResponse": -1,
            "catchTime": 1680645182951,
            "trialTime": 0
        },
        {
            "exptPart": "trial",
            "trialNumber": 24,
            "roleCurrent": "receiver",
            "marblesSampled": 100,
            "probRed": 0.5,
            "lambda": 5,
            "drawnRed": 16,
            "reportedRed": 23,
            "inferredRed": 0,
            "playerTrialScore": -16,
            "oppTrialScore": 0,
            "playerTotalScore": -18,
            "oppTotalScore": -133,
            "waitTime": 7240.629706215823,
            "responseTime": 1680645230764,
            "catchQuestion": "How many <b class=\"r\">red<\/b> marbles did you actually draw (before any changes)? ",
            "catchKey": -1,
            "catchResponse": -1,
            "catchTime": 1680645182951,
            "trialTime": 0
        },
        {
            "exptPart": "trial",
            "trialNumber": 25,
            "roleCurrent": "sender",
            "marblesSampled": 100,
            "probRed": 0.5,
            "lambda": 5,
            "drawnRed": 83,
            "reportedRed": 83,
            "inferredRed": 78,
            "playerTrialScore": 0,
            "oppTrialScore": -5,
            "playerTotalScore": -18,
            "oppTotalScore": -138,
            "waitTime": 3069.4111743970348,
            "responseTime": 1680645259586,
            "catchQuestion": "How many <b class=\"r\">red<\/b> marbles did you actually draw (before any changes)? ",
            "catchKey": -1,
            "catchResponse": -1,
            "catchTime": 1680645259586,
            "trialTime": 0
        },
        {
            "exptPart": "trial",
            "trialNumber": 26,
            "roleCurrent": "receiver",
            "marblesSampled": 100,
            "probRed": 0.5,
            "lambda": 5,
            "drawnRed": 65,
            "reportedRed": 69,
            "inferredRed": 52,
            "playerTrialScore": -13,
            "oppTrialScore": 0,
            "playerTotalScore": -31,
            "oppTotalScore": -138,
            "waitTime": 5433.40944439006,
            "responseTime": 1680645275884,
            "catchQuestion": "How many <b class=\"r\">red<\/b> marbles did you actually draw (before any changes)? ",
            "catchKey": -1,
            "catchResponse": -1,
            "catchTime": 1680645259586,
            "trialTime": 0
        },
        {
            "exptPart": "trial",
            "trialNumber": 27,
            "roleCurrent": "sender",
            "marblesSampled": 100,
            "probRed": 0.5,
            "lambda": 5,
            "drawnRed": 64,
            "reportedRed": 64,
            "inferredRed": 58,
            "playerTrialScore": 0,
            "oppTrialScore": -6,
            "playerTotalScore": -31,
            "oppTotalScore": -144,
            "waitTime": 3009.769748912777,
            "responseTime": 1680645289682,
            "catchQuestion": "How many <b class=\"r\">red<\/b> marbles did you actually draw (before any changes)? ",
            "catchKey": -1,
            "catchResponse": -1,
            "catchTime": 1680645259586,
            "trialTime": 0
        },
        {
            "exptPart": "trial",
            "trialNumber": 28,
            "roleCurrent": "receiver",
            "marblesSampled": 100,
            "probRed": 0.5,
            "lambda": 5,
            "drawnRed": 57,
            "reportedRed": 63,
            "inferredRed": 60,
            "playerTrialScore": -3,
            "oppTrialScore": 3,
            "playerTotalScore": -34,
            "oppTotalScore": -141,
            "waitTime": 7028.302648953178,
            "responseTime": 1680645306984,
            "catchQuestion": "How many <b class=\"r\">red<\/b> marbles did you actually draw (before any changes)? ",
            "catchKey": -1,
            "catchResponse": -1,
            "catchTime": 1680645259586,
            "trialTime": 0
        },
        {
            "exptPart": "trial",
            "trialNumber": 29,
            "roleCurrent": "sender",
            "marblesSampled": 100,
            "probRed": 0.5,
            "lambda": 5,
            "drawnRed": 54,
            "reportedRed": 54,
            "inferredRed": 50,
            "playerTrialScore": 0,
            "oppTrialScore": -4,
            "playerTotalScore": -34,
            "oppTotalScore": -145,
            "waitTime": 3098.0534323912757,
            "responseTime": 1680645320176,
            "catchQuestion": "How many <b class=\"r\">red<\/b> marbles did you actually draw (before any changes)? ",
            "catchKey": -1,
            "catchResponse": -1,
            "catchTime": 1680645259586,
            "trialTime": 0
        },
        {
            "exptPart": "trial",
            "trialNumber": 30,
            "roleCurrent": "receiver",
            "marblesSampled": 100,
            "probRed": 0.5,
            "lambda": 5,
            "drawnRed": 72,
            "reportedRed": 78,
            "inferredRed": 46,
            "playerTrialScore": -26,
            "oppTrialScore": 0,
            "playerTotalScore": -60,
            "oppTotalScore": -145,
            "waitTime": 7073.881720559655,
            "responseTime": 1680645332659,
            "catchQuestion": "How many <b class=\"r\">red<\/b> marbles did you actually draw (before any changes)? ",
            "catchKey": -1,
            "catchResponse": -1,
            "catchTime": 1680645332659,
            "trialTime": 0
        },
        {
            "exptPart": "trial",
            "trialNumber": 31,
            "roleCurrent": "sender",
            "marblesSampled": 100,
            "probRed": 0.5,
            "lambda": 5,
            "drawnRed": 75,
            "reportedRed": 75,
            "inferredRed": 71,
            "playerTrialScore": 0,
            "oppTrialScore": -4,
            "playerTotalScore": -60,
            "oppTotalScore": -149,
            "waitTime": 2611.5910871083424,
            "responseTime": 1680645348438,
            "catchQuestion": "How many <b class=\"r\">red<\/b> marbles did you actually draw (before any changes)? ",
            "catchKey": -1,
            "catchResponse": -1,
            "catchTime": 1680645332659,
            "trialTime": 0
        },
        {
            "exptPart": "trial",
            "trialNumber": 32,
            "roleCurrent": "receiver",
            "marblesSampled": 100,
            "probRed": 0.5,
            "lambda": 5,
            "drawnRed": 58,
            "reportedRed": 62,
            "inferredRed": 52,
            "playerTrialScore": -6,
            "oppTrialScore": 0,
            "playerTotalScore": -66,
            "oppTotalScore": -149,
            "waitTime": 6196.578349996138,
            "responseTime": 1680645358834,
            "catchQuestion": "How many <b class=\"r\">red<\/b> marbles did you actually draw (before any changes)? ",
            "catchKey": -1,
            "catchResponse": -1,
            "catchTime": 1680645332659,
            "trialTime": 0
        },
        {
            "exptPart": "trial",
            "trialNumber": 33,
            "roleCurrent": "sender",
            "marblesSampled": 100,
            "probRed": 0.5,
            "lambda": 5,
            "drawnRed": 68,
            "reportedRed": 75,
            "inferredRed": 68,
            "playerTrialScore": 0,
            "oppTrialScore": 0,
            "playerTotalScore": -66,
            "oppTotalScore": -149,
            "waitTime": 3089.6089468484133,
            "responseTime": 1680645376488,
            "catchQuestion": "How many <b class=\"r\">red<\/b> marbles did you actually draw (before any changes)? ",
            "catchKey": -1,
            "catchResponse": -1,
            "catchTime": 1680645332659,
            "trialTime": 0
        },
        {
            "exptPart": "trial",
            "trialNumber": 34,
            "roleCurrent": "receiver",
            "marblesSampled": 100,
            "probRed": 0.5,
            "lambda": 5,
            "drawnRed": 33,
            "reportedRed": 35,
            "inferredRed": 14,
            "playerTrialScore": -19,
            "oppTrialScore": 0,
            "playerTotalScore": -85,
            "oppTotalScore": -149,
            "waitTime": 6184.537792083967,
            "responseTime": 1680645392657,
            "catchQuestion": "How many <b class=\"r\">red<\/b> marbles did your opponent report drawing? ",
            "catchKey": 35,
            "catchResponse": 35,
            "catchTime": 1680645392657,
            "trialTime": 0
        },
        {
            "exptPart": "trial",
            "trialNumber": 35,
            "roleCurrent": "sender",
            "marblesSampled": 100,
            "probRed": 0.5,
            "lambda": 5,
            "drawnRed": 14,
            "reportedRed": 75,
            "inferredRed": 70,
            "playerTrialScore": 56,
            "oppTrialScore": -56,
            "playerTotalScore": -29,
            "oppTotalScore": -205,
            "waitTime": 2545.02836615002,
            "responseTime": 1680645466800,
            "catchQuestion": "How many <b class=\"r\">red<\/b> marbles did you actually draw (before any changes)? ",
            "catchKey": 14,
            "catchResponse": 18,
            "catchTime": 1680645466801,
            "trialTime": 0
        },
        {
            "exptPart": "trial",
            "trialNumber": 36,
            "roleCurrent": "receiver",
            "marblesSampled": 100,
            "probRed": 0.5,
            "lambda": 5,
            "drawnRed": 70,
            "reportedRed": 73,
            "inferredRed": 62,
            "playerTrialScore": -8,
            "oppTrialScore": 0,
            "playerTotalScore": -37,
            "oppTotalScore": -205,
            "waitTime": 6142.547332877095,
            "responseTime": 1680645553390,
            "catchQuestion": "How many <b class=\"r\">red<\/b> marbles did you actually draw (before any changes)? ",
            "catchKey": -1,
            "catchResponse": -1,
            "catchTime": 1680645466801,
            "trialTime": 0
        },
        {
            "exptPart": "trial",
            "trialNumber": 37,
            "roleCurrent": "sender",
            "marblesSampled": 100,
            "probRed": 0.5,
            "lambda": 5,
            "drawnRed": 43,
            "reportedRed": 79,
            "inferredRed": 75,
            "playerTrialScore": 32,
            "oppTrialScore": -32,
            "playerTotalScore": -5,
            "oppTotalScore": -237,
            "waitTime": 2269.913691017745,
            "responseTime": 1680645598720,
            "catchQuestion": "How many <b class=\"r\">red<\/b> marbles did you actually draw (before any changes)? ",
            "catchKey": -1,
            "catchResponse": -1,
            "catchTime": 1680645466801,
            "trialTime": 0
        },
        {
            "exptPart": "trial",
            "trialNumber": 38,
            "roleCurrent": "receiver",
            "marblesSampled": 100,
            "probRed": 0.5,
            "lambda": 5,
            "drawnRed": 74,
            "reportedRed": 79,
            "inferredRed": 45,
            "playerTrialScore": -29,
            "oppTrialScore": 0,
            "playerTotalScore": -34,
            "oppTotalScore": -237,
            "waitTime": 5819.149352566601,
            "responseTime": 1680645626775,
            "catchQuestion": "How many <b class=\"r\">red<\/b> marbles did you actually draw (before any changes)? ",
            "catchKey": -1,
            "catchResponse": -1,
            "catchTime": 1680645466801,
            "trialTime": 0
        },
        {
            "exptPart": "trial",
            "trialNumber": 39,
            "roleCurrent": "sender",
            "marblesSampled": 100,
            "probRed": 0.5,
            "lambda": 5,
            "drawnRed": 74,
            "reportedRed": 74,
            "inferredRed": 67,
            "playerTrialScore": 0,
            "oppTrialScore": -7,
            "playerTotalScore": -34,
            "oppTotalScore": -244,
            "waitTime": 3107.9064931369717,
            "responseTime": 1680645655681,
            "catchQuestion": "How many <b class=\"r\">red<\/b> marbles did you actually draw (before any changes)? ",
            "catchKey": -1,
            "catchResponse": -1,
            "catchTime": 1680645466801,
            "trialTime": 0
        },
        {
            "exptPart": "trial",
            "trialNumber": 40,
            "roleCurrent": "receiver",
            "marblesSampled": 100,
            "probRed": 0.5,
            "lambda": 5,
            "drawnRed": 52,
            "reportedRed": 58,
            "inferredRed": 36,
            "playerTrialScore": -16,
            "oppTrialScore": 0,
            "playerTotalScore": -50,
            "oppTotalScore": -244,
            "waitTime": 6411.473979029484,
            "responseTime": 1680645667005,
            "catchQuestion": "How many <b class=\"r\">red<\/b> marbles did you actually draw (before any changes)? ",
            "catchKey": -1,
            "catchResponse": -1,
            "catchTime": 1680645667005,
            "trialTime": 0
        },
        {
            "exptPart": "trial",
            "trialNumber": 41,
            "roleCurrent": "sender",
            "marblesSampled": 100,
            "probRed": 0.5,
            "lambda": 5,
            "drawnRed": 21,
            "reportedRed": 83,
            "inferredRed": 76,
            "playerTrialScore": 55,
            "oppTrialScore": -55,
            "playerTotalScore": 5,
            "oppTotalScore": -299,
            "waitTime": 2171.7657794934557,
            "responseTime": 1680645714999,
            "catchQuestion": "How many <b class=\"r\">red<\/b> marbles did you actually draw (before any changes)? ",
            "catchKey": -1,
            "catchResponse": -1,
            "catchTime": 1680645667005,
            "trialTime": 0
        },
        {
            "exptPart": "trial",
            "trialNumber": 42,
            "roleCurrent": "receiver",
            "marblesSampled": 100,
            "probRed": 0.5,
            "lambda": 5,
            "drawnRed": 66,
            "reportedRed": 72,
            "inferredRed": 62,
            "playerTrialScore": -4,
            "oppTrialScore": 0,
            "playerTotalScore": 1,
            "oppTotalScore": -299,
            "waitTime": 6091.742174576862,
            "responseTime": 1680645725648,
            "catchQuestion": "How many <b class=\"r\">red<\/b> marbles did you actually draw (before any changes)? ",
            "catchKey": -1,
            "catchResponse": -1,
            "catchTime": 1680645667005,
            "trialTime": 0
        },
        {
            "exptPart": "trial",
            "trialNumber": 43,
            "roleCurrent": "sender",
            "marblesSampled": 100,
            "probRed": 0.5,
            "lambda": 5,
            "drawnRed": 42,
            "reportedRed": 43,
            "inferredRed": 40,
            "playerTrialScore": 0,
            "oppTrialScore": -2,
            "playerTotalScore": 1,
            "oppTotalScore": -301,
            "waitTime": 2802.761483957659,
            "responseTime": 1680645744606,
            "catchQuestion": "How many <b class=\"r\">red<\/b> marbles did you actually draw (before any changes)? ",
            "catchKey": -1,
            "catchResponse": -1,
            "catchTime": 1680645667005,
            "trialTime": 0
        },
        {
            "exptPart": "trial",
            "trialNumber": 44,
            "roleCurrent": "receiver",
            "marblesSampled": 100,
            "probRed": 0.5,
            "lambda": 5,
            "drawnRed": 37,
            "reportedRed": 40,
            "inferredRed": 30,
            "playerTrialScore": -7,
            "oppTrialScore": 0,
            "playerTotalScore": -6,
            "oppTotalScore": -301,
            "waitTime": 7135.546239352948,
            "responseTime": 1680645759438,
            "catchQuestion": "How many <b class=\"r\">red<\/b> marbles did you actually draw (before any changes)? ",
            "catchKey": -1,
            "catchResponse": -1,
            "catchTime": 1680645667005,
            "trialTime": 0
        },
        {
            "exptPart": "trial",
            "trialNumber": 45,
            "roleCurrent": "sender",
            "marblesSampled": 100,
            "probRed": 0.5,
            "lambda": 5,
            "drawnRed": 73,
            "reportedRed": 79,
            "inferredRed": 74,
            "playerTrialScore": 1,
            "oppTrialScore": -1,
            "playerTotalScore": -5,
            "oppTotalScore": -302,
            "waitTime": 2070.8724053690944,
            "responseTime": 1680645777716,
            "catchQuestion": "How many <b class=\"r\">red<\/b> marbles did you actually draw (before any changes)? ",
            "catchKey": -1,
            "catchResponse": -1,
            "catchTime": 1680645777716,
            "trialTime": 0
        },
        {
            "exptPart": "trial",
            "trialNumber": 46,
            "roleCurrent": "receiver",
            "marblesSampled": 100,
            "probRed": 0.5,
            "lambda": 5,
            "drawnRed": 80,
            "reportedRed": 85,
            "inferredRed": 35,
            "playerTrialScore": -45,
            "oppTrialScore": 0,
            "playerTotalScore": -50,
            "oppTotalScore": -302,
            "waitTime": 6819.309604307301,
            "responseTime": 1680645793623,
            "catchQuestion": "How many <b class=\"r\">red<\/b> marbles did you actually draw (before any changes)? ",
            "catchKey": -1,
            "catchResponse": -1,
            "catchTime": 1680645777716,
            "trialTime": 0
        },
        {
            "exptPart": "trial",
            "trialNumber": 47,
            "roleCurrent": "sender",
            "marblesSampled": 100,
            "probRed": 0.5,
            "lambda": 5,
            "drawnRed": 68,
            "reportedRed": 74,
            "inferredRed": 70,
            "playerTrialScore": 2,
            "oppTrialScore": -2,
            "playerTotalScore": -48,
            "oppTotalScore": -304,
            "waitTime": 2132.376514638656,
            "responseTime": 1680645808674,
            "catchQuestion": "How many <b class=\"r\">red<\/b> marbles did you actually draw (before any changes)? ",
            "catchKey": -1,
            "catchResponse": -1,
            "catchTime": 1680645777716,
            "trialTime": 0
        },
        {
            "exptPart": "trial",
            "trialNumber": 48,
            "roleCurrent": "receiver",
            "marblesSampled": 100,
            "probRed": 0.5,
            "lambda": 5,
            "drawnRed": 48,
            "reportedRed": 51,
            "inferredRed": 24,
            "playerTrialScore": -24,
            "oppTrialScore": 0,
            "playerTotalScore": -72,
            "oppTotalScore": -304,
            "waitTime": 6320.719648802054,
            "responseTime": 1680645819947,
            "catchQuestion": "How many <b class=\"r\">red<\/b> marbles did you actually draw (before any changes)? ",
            "catchKey": -1,
            "catchResponse": -1,
            "catchTime": 1680645777716,
            "trialTime": 0
        },
        {
            "exptPart": "trial",
            "trialNumber": 49,
            "roleCurrent": "sender",
            "marblesSampled": 100,
            "probRed": 0.5,
            "lambda": 5,
            "drawnRed": 70,
            "reportedRed": 80,
            "inferredRed": 74,
            "playerTrialScore": 4,
            "oppTrialScore": -4,
            "playerTotalScore": -68,
            "oppTotalScore": -308,
            "waitTime": 2500.5892688022614,
            "responseTime": 1680645839573,
            "catchQuestion": "How many <b class=\"r\">red<\/b> marbles did you actually draw (before any changes)? ",
            "catchKey": 70,
            "catchResponse": 71,
            "catchTime": 1680645839573,
            "trialTime": 0
        },
        {
            "exptPart": "trial",
            "trialNumber": 50,
            "roleCurrent": "receiver",
            "marblesSampled": 100,
            "probRed": 0.5,
            "lambda": 5,
            "drawnRed": 77,
            "reportedRed": 80,
            "inferredRed": 50,
            "playerTrialScore": -27,
            "oppTrialScore": 0,
            "playerTotalScore": -95,
            "oppTotalScore": -308,
            "waitTime": 6016.194939197684,
            "responseTime": 1680645864582,
            "catchQuestion": "How many <b class=\"r\">red<\/b> marbles did you actually draw (before any changes)? ",
            "catchKey": -1,
            "catchResponse": -1,
            "catchTime": 1680645864583,
            "trialTime": 0
        },
        {
            "exptPart": "trial",
            "trialNumber": 51,
            "roleCurrent": "sender",
            "marblesSampled": 100,
            "probRed": 0.5,
            "lambda": 5,
            "drawnRed": 54,
            "reportedRed": 59,
            "inferredRed": 52,
            "playerTrialScore": 0,
            "oppTrialScore": -2,
            "playerTotalScore": -95,
            "oppTotalScore": -310,
            "waitTime": 2402.0989521822767,
            "responseTime": 1680645878290,
            "catchQuestion": "How many <b class=\"r\">red<\/b> marbles did you actually draw (before any changes)? ",
            "catchKey": -1,
            "catchResponse": -1,
            "catchTime": 1680645864583,
            "trialTime": 0
        },
        {
            "exptPart": "trial",
            "trialNumber": 52,
            "roleCurrent": "receiver",
            "marblesSampled": 100,
            "probRed": 0.5,
            "lambda": 5,
            "drawnRed": 32,
            "reportedRed": 37,
            "inferredRed": 15,
            "playerTrialScore": -17,
            "oppTrialScore": 0,
            "playerTotalScore": -112,
            "oppTotalScore": -310,
            "waitTime": 6365.2701310814255,
            "responseTime": 1680645888705,
            "catchQuestion": "How many <b class=\"r\">red<\/b> marbles did you actually draw (before any changes)? ",
            "catchKey": -1,
            "catchResponse": -1,
            "catchTime": 1680645864583,
            "trialTime": 0
        },
        {
            "exptPart": "trial",
            "trialNumber": 53,
            "roleCurrent": "sender",
            "marblesSampled": 100,
            "probRed": 0.5,
            "lambda": 5,
            "drawnRed": 85,
            "reportedRed": 85,
            "inferredRed": 80,
            "playerTrialScore": 0,
            "oppTrialScore": -5,
            "playerTotalScore": -112,
            "oppTotalScore": -315,
            "waitTime": 2763.924782891261,
            "responseTime": 1680645901497,
            "catchQuestion": "How many <b class=\"r\">red<\/b> marbles did you actually draw (before any changes)? ",
            "catchKey": -1,
            "catchResponse": -1,
            "catchTime": 1680645864583,
            "trialTime": 0
        },
        {
            "exptPart": "trial",
            "trialNumber": 54,
            "roleCurrent": "receiver",
            "marblesSampled": 100,
            "probRed": 0.5,
            "lambda": 5,
            "drawnRed": 59,
            "reportedRed": 63,
            "inferredRed": 36,
            "playerTrialScore": -23,
            "oppTrialScore": 0,
            "playerTotalScore": -135,
            "oppTotalScore": -315,
            "waitTime": 6995.052763562431,
            "responseTime": 1680645914266,
            "catchQuestion": "How many <b class=\"r\">red<\/b> marbles did you actually draw (before any changes)? ",
            "catchKey": -1,
            "catchResponse": -1,
            "catchTime": 1680645864583,
            "trialTime": 0
        },
        {
            "exptPart": "trial",
            "trialNumber": 55,
            "roleCurrent": "sender",
            "marblesSampled": 100,
            "probRed": 0.5,
            "lambda": 5,
            "drawnRed": 55,
            "reportedRed": 75,
            "inferredRed": 70,
            "playerTrialScore": 15,
            "oppTrialScore": -15,
            "playerTotalScore": -120,
            "oppTotalScore": -330,
            "waitTime": 2368.0892077511235,
            "responseTime": 1680645937111,
            "catchQuestion": "How many <b class=\"r\">red<\/b> marbles did you actually draw (before any changes)? ",
            "catchKey": -1,
            "catchResponse": -1,
            "catchTime": 1680645937111,
            "trialTime": 0
        },
        {
            "exptPart": "trial",
            "trialNumber": 56,
            "roleCurrent": "receiver",
            "marblesSampled": 100,
            "probRed": 0.5,
            "lambda": 5,
            "drawnRed": 27,
            "reportedRed": 30,
            "inferredRed": 3,
            "playerTrialScore": -24,
            "oppTrialScore": 0,
            "playerTotalScore": -144,
            "oppTotalScore": -330,
            "waitTime": 7251.177063999345,
            "responseTime": 1680645950219,
            "catchQuestion": "How many <b class=\"r\">red<\/b> marbles did you actually draw (before any changes)? ",
            "catchKey": -1,
            "catchResponse": -1,
            "catchTime": 1680645937111,
            "trialTime": 0
        },
        {
            "exptPart": "trial",
            "trialNumber": 57,
            "roleCurrent": "sender",
            "marblesSampled": 100,
            "probRed": 0.5,
            "lambda": 5,
            "drawnRed": 78,
            "reportedRed": 87,
            "inferredRed": 81,
            "playerTrialScore": 3,
            "oppTrialScore": -3,
            "playerTotalScore": -141,
            "oppTotalScore": -333,
            "waitTime": 2289.750267696794,
            "responseTime": 1680645966712,
            "catchQuestion": "How many <b class=\"r\">red<\/b> marbles did you actually draw (before any changes)? ",
            "catchKey": 78,
            "catchResponse": 75,
            "catchTime": 1680645966712,
            "trialTime": 0
        },
        {
            "exptPart": "trial",
            "trialNumber": 58,
            "roleCurrent": "receiver",
            "marblesSampled": 100,
            "probRed": 0.5,
            "lambda": 5,
            "drawnRed": 60,
            "reportedRed": 65,
            "inferredRed": 56,
            "playerTrialScore": -4,
            "oppTrialScore": 0,
            "playerTotalScore": -145,
            "oppTotalScore": -333,
            "waitTime": 6771.864099972462,
            "responseTime": 1680645988249,
            "catchQuestion": "How many <b class=\"r\">red<\/b> marbles did you actually draw (before any changes)? ",
            "catchKey": -1,
            "catchResponse": -1,
            "catchTime": 1680645966712,
            "trialTime": 0
        },
        {
            "exptPart": "trial",
            "trialNumber": 59,
            "roleCurrent": "sender",
            "marblesSampled": 100,
            "probRed": 0.5,
            "lambda": 5,
            "drawnRed": 59,
            "reportedRed": 59,
            "inferredRed": 54,
            "playerTrialScore": 0,
            "oppTrialScore": -5,
            "playerTotalScore": -145,
            "oppTotalScore": -338,
            "waitTime": 2229.6778638747587,
            "responseTime": 1680646001029,
            "catchQuestion": "How many <b class=\"r\">red<\/b> marbles did you actually draw (before any changes)? ",
            "catchKey": -1,
            "catchResponse": -1,
            "catchTime": 1680645966712,
            "trialTime": 0
        },
        {
            "exptPart": "trial",
            "trialNumber": 60,
            "roleCurrent": "receiver",
            "marblesSampled": 100,
            "probRed": 0.5,
            "lambda": 5,
            "drawnRed": 78,
            "reportedRed": 80,
            "inferredRed": 46,
            "playerTrialScore": -32,
            "oppTrialScore": 0,
            "playerTotalScore": -177,
            "oppTotalScore": -338,
            "waitTime": 5185.37572444728,
            "responseTime": 1680646013142,
            "catchQuestion": "How many <b class=\"r\">red<\/b> marbles did you actually draw (before any changes)? ",
            "catchKey": -1,
            "catchResponse": -1,
            "catchTime": 1680646013143,
            "trialTime": 0
        },
        {
            "exptPart": "trial",
            "trialNumber": 61,
            "roleCurrent": "sender",
            "marblesSampled": 100,
            "probRed": 0.5,
            "lambda": 5,
            "drawnRed": 93,
            "reportedRed": 93,
            "inferredRed": 89,
            "playerTrialScore": 0,
            "oppTrialScore": -4,
            "playerTotalScore": -177,
            "oppTotalScore": -342,
            "waitTime": 2115.4077442717244,
            "responseTime": 1680646030560,
            "catchQuestion": "How many <b class=\"r\">red<\/b> marbles did you actually draw (before any changes)? ",
            "catchKey": -1,
            "catchResponse": -1,
            "catchTime": 1680646013143,
            "trialTime": 0
        },
        {
            "exptPart": "trial",
            "trialNumber": 62,
            "roleCurrent": "receiver",
            "marblesSampled": 100,
            "probRed": 0.5,
            "lambda": 5,
            "drawnRed": 43,
            "reportedRed": 48,
            "inferredRed": 27,
            "playerTrialScore": -16,
            "oppTrialScore": 0,
            "playerTotalScore": -193,
            "oppTotalScore": -342,
            "waitTime": 5973.360270578119,
            "responseTime": 1680646045719,
            "catchQuestion": "How many <b class=\"r\">red<\/b> marbles did you actually draw (before any changes)? ",
            "catchKey": -1,
            "catchResponse": -1,
            "catchTime": 1680646013143,
            "trialTime": 0
        },
        {
            "exptPart": "trial",
            "trialNumber": 63,
            "roleCurrent": "sender",
            "marblesSampled": 100,
            "probRed": 0.5,
            "lambda": 5,
            "drawnRed": 33,
            "reportedRed": 49,
            "inferredRed": 44,
            "playerTrialScore": 11,
            "oppTrialScore": -11,
            "playerTotalScore": -182,
            "oppTotalScore": -353,
            "waitTime": 2965.4029539799653,
            "responseTime": 1680646066368,
            "catchQuestion": "How many <b class=\"r\">red<\/b> marbles did you actually draw (before any changes)? ",
            "catchKey": -1,
            "catchResponse": -1,
            "catchTime": 1680646013143,
            "trialTime": 0
        },
        {
            "exptPart": "trial",
            "trialNumber": 64,
            "roleCurrent": "receiver",
            "marblesSampled": 100,
            "probRed": 0.5,
            "lambda": 5,
            "drawnRed": 70,
            "reportedRed": 70,
            "inferredRed": 47,
            "playerTrialScore": -23,
            "oppTrialScore": 0,
            "playerTotalScore": -205,
            "oppTotalScore": -353,
            "waitTime": 6631.338910280822,
            "responseTime": 1680646077355,
            "catchQuestion": "How many <b class=\"r\">red<\/b> marbles did you actually draw (before any changes)? ",
            "catchKey": -1,
            "catchResponse": -1,
            "catchTime": 1680646013143,
            "trialTime": 0
        },
        {
            "exptPart": "trial",
            "trialNumber": 65,
            "roleCurrent": "sender",
            "marblesSampled": 100,
            "probRed": 0.5,
            "lambda": 5,
            "drawnRed": 46,
            "reportedRed": 54,
            "inferredRed": 47,
            "playerTrialScore": 1,
            "oppTrialScore": -1,
            "playerTotalScore": -204,
            "oppTotalScore": -354,
            "waitTime": 2130.590984742783,
            "responseTime": 1680646092775,
            "catchQuestion": "How many <b class=\"r\">red<\/b> marbles did you actually draw (before any changes)? ",
            "catchKey": -1,
            "catchResponse": -1,
            "catchTime": 1680646092775,
            "trialTime": 0
        },
        {
            "exptPart": "trial",
            "trialNumber": 66,
            "roleCurrent": "receiver",
            "marblesSampled": 100,
            "probRed": 0.5,
            "lambda": 5,
            "drawnRed": 67,
            "reportedRed": 73,
            "inferredRed": 37,
            "playerTrialScore": -30,
            "oppTrialScore": 0,
            "playerTotalScore": -234,
            "oppTotalScore": -354,
            "waitTime": 7179.334162310827,
            "responseTime": 1680646107579,
            "catchQuestion": "How many <b class=\"r\">red<\/b> marbles did you actually draw (before any changes)? ",
            "catchKey": -1,
            "catchResponse": -1,
            "catchTime": 1680646092775,
            "trialTime": 0
        },
        {
            "exptPart": "trial",
            "trialNumber": 67,
            "roleCurrent": "sender",
            "marblesSampled": 100,
            "probRed": 0.5,
            "lambda": 5,
            "drawnRed": 67,
            "reportedRed": 74,
            "inferredRed": 65,
            "playerTrialScore": 0,
            "oppTrialScore": -2,
            "playerTotalScore": -234,
            "oppTotalScore": -356,
            "waitTime": 2513.4160766562763,
            "responseTime": 1680646122834,
            "catchQuestion": "How many <b class=\"r\">red<\/b> marbles did you actually draw (before any changes)? ",
            "catchKey": -1,
            "catchResponse": -1,
            "catchTime": 1680646092775,
            "trialTime": 0
        },
        {
            "exptPart": "trial",
            "trialNumber": 68,
            "roleCurrent": "receiver",
            "marblesSampled": 100,
            "probRed": 0.5,
            "lambda": 5,
            "drawnRed": 21,
            "reportedRed": 25,
            "inferredRed": 10,
            "playerTrialScore": -11,
            "oppTrialScore": 0,
            "playerTotalScore": -245,
            "oppTotalScore": -356,
            "waitTime": 5179.982304436044,
            "responseTime": 1680646132646,
            "catchQuestion": "How many <b class=\"r\">red<\/b> marbles did you actually draw (before any changes)? ",
            "catchKey": -1,
            "catchResponse": -1,
            "catchTime": 1680646092775,
            "trialTime": 0
        },
        {
            "exptPart": "trial",
            "trialNumber": 69,
            "roleCurrent": "sender",
            "marblesSampled": 100,
            "probRed": 0.5,
            "lambda": 5,
            "drawnRed": 57,
            "reportedRed": 71,
            "inferredRed": 63,
            "playerTrialScore": 6,
            "oppTrialScore": -6,
            "playerTotalScore": -239,
            "oppTotalScore": -362,
            "waitTime": 2383.3084200420844,
            "responseTime": 1680646154415,
            "catchQuestion": "How many <b class=\"r\">red<\/b> marbles did you actually draw (before any changes)? ",
            "catchKey": -1,
            "catchResponse": -1,
            "catchTime": 1680646092775,
            "trialTime": 0
        },
        {
            "exptPart": "trial",
            "trialNumber": 70,
            "roleCurrent": "receiver",
            "marblesSampled": 100,
            "probRed": 0.5,
            "lambda": 5,
            "drawnRed": 61,
            "reportedRed": 64,
            "inferredRed": 46,
            "playerTrialScore": -15,
            "oppTrialScore": 0,
            "playerTotalScore": -254,
            "oppTotalScore": -362,
            "waitTime": 6063.173875329652,
            "responseTime": 1680646172214,
            "catchQuestion": "How many <b class=\"r\">red<\/b> marbles did you actually draw (before any changes)? ",
            "catchKey": -1,
            "catchResponse": -1,
            "catchTime": 1680646172214,
            "trialTime": 0
        },
        {
            "exptPart": "trial",
            "trialNumber": 71,
            "roleCurrent": "sender",
            "marblesSampled": 100,
            "probRed": 0.5,
            "lambda": 5,
            "drawnRed": 75,
            "reportedRed": 75,
            "inferredRed": 67,
            "playerTrialScore": 0,
            "oppTrialScore": -8,
            "playerTotalScore": -254,
            "oppTotalScore": -370,
            "waitTime": 2443.6006910015512,
            "responseTime": 1680646187772,
            "catchQuestion": "How many <b class=\"r\">red<\/b> marbles did you actually draw (before any changes)? ",
            "catchKey": -1,
            "catchResponse": -1,
            "catchTime": 1680646172214,
            "trialTime": 0
        },
        {
            "exptPart": "trial",
            "trialNumber": 72,
            "roleCurrent": "receiver",
            "marblesSampled": 100,
            "probRed": 0.5,
            "lambda": 5,
            "drawnRed": 93,
            "reportedRed": 93,
            "inferredRed": 39,
            "playerTrialScore": -54,
            "oppTrialScore": 0,
            "playerTotalScore": -308,
            "oppTotalScore": -370,
            "waitTime": 7223.760756246712,
            "responseTime": 1680646199387,
            "catchQuestion": "How many <b class=\"r\">red<\/b> marbles did you actually draw (before any changes)? ",
            "catchKey": -1,
            "catchResponse": -1,
            "catchTime": 1680646172214,
            "trialTime": 0
        },
        {
            "exptPart": "trial",
            "trialNumber": 73,
            "roleCurrent": "sender",
            "marblesSampled": 100,
            "probRed": 0.5,
            "lambda": 5,
            "drawnRed": 23,
            "reportedRed": 85,
            "inferredRed": 83,
            "playerTrialScore": 60,
            "oppTrialScore": -60,
            "playerTotalScore": -248,
            "oppTotalScore": -430,
            "waitTime": 2185.3229072744034,
            "responseTime": 1680646243606,
            "catchQuestion": "How many <b class=\"r\">red<\/b> marbles did you actually draw (before any changes)? ",
            "catchKey": -1,
            "catchResponse": -1,
            "catchTime": 1680646172214,
            "trialTime": 0
        },
        {
            "exptPart": "trial",
            "trialNumber": 74,
            "roleCurrent": "receiver",
            "marblesSampled": 100,
            "probRed": 0.5,
            "lambda": 5,
            "drawnRed": 39,
            "reportedRed": 43,
            "inferredRed": 34,
            "playerTrialScore": -5,
            "oppTrialScore": 0,
            "playerTotalScore": -253,
            "oppTotalScore": -430,
            "waitTime": 5508.918242961618,
            "responseTime": 1680646262413,
            "catchQuestion": "How many <b class=\"r\">red<\/b> marbles did you actually draw (before any changes)? ",
            "catchKey": -1,
            "catchResponse": -1,
            "catchTime": 1680646172214,
            "trialTime": 0
        },
        {
            "exptPart": "trial",
            "trialNumber": 75,
            "roleCurrent": "sender",
            "marblesSampled": 100,
            "probRed": 0.5,
            "lambda": 5,
            "drawnRed": 61,
            "reportedRed": 90,
            "inferredRed": 88,
            "playerTrialScore": 27,
            "oppTrialScore": -27,
            "playerTotalScore": -226,
            "oppTotalScore": -457,
            "waitTime": 2817.7288721771565,
            "responseTime": 1680646302605,
            "catchQuestion": "How many <b class=\"r\">red<\/b> marbles did you actually draw (before any changes)? ",
            "catchKey": -1,
            "catchResponse": -1,
            "catchTime": 1680646302605,
            "trialTime": 0
        },
        {
            "exptPart": "trial",
            "trialNumber": 76,
            "roleCurrent": "receiver",
            "marblesSampled": 100,
            "probRed": 0.5,
            "lambda": 5,
            "drawnRed": 19,
            "reportedRed": 23,
            "inferredRed": 10,
            "playerTrialScore": -9,
            "oppTrialScore": 0,
            "playerTotalScore": -235,
            "oppTotalScore": -457,
            "waitTime": 5661.265403827108,
            "responseTime": 1680646314882,
            "catchQuestion": "How many <b class=\"r\">red<\/b> marbles did you actually draw (before any changes)? ",
            "catchKey": -1,
            "catchResponse": -1,
            "catchTime": 1680646302605,
            "trialTime": 0
        },
        {
            "exptPart": "trial",
            "trialNumber": 77,
            "roleCurrent": "sender",
            "marblesSampled": 100,
            "probRed": 0.5,
            "lambda": 5,
            "drawnRed": 36,
            "reportedRed": 81,
            "inferredRed": 76,
            "playerTrialScore": 40,
            "oppTrialScore": -40,
            "playerTotalScore": -195,
            "oppTotalScore": -497,
            "waitTime": 2481.454148261464,
            "responseTime": 1680646351087,
            "catchQuestion": "How many <b class=\"r\">red<\/b> marbles did you actually draw (before any changes)? ",
            "catchKey": -1,
            "catchResponse": -1,
            "catchTime": 1680646302605,
            "trialTime": 0
        },
        {
            "exptPart": "trial",
            "trialNumber": 78,
            "roleCurrent": "receiver",
            "marblesSampled": 100,
            "probRed": 0.5,
            "lambda": 5,
            "drawnRed": 48,
            "reportedRed": 51,
            "inferredRed": 15,
            "playerTrialScore": -33,
            "oppTrialScore": 0,
            "playerTotalScore": -228,
            "oppTotalScore": -497,
            "waitTime": 5482.474322002487,
            "responseTime": 1680646360354,
            "catchQuestion": "How many <b class=\"r\">red<\/b> marbles did you actually draw (before any changes)? ",
            "catchKey": -1,
            "catchResponse": -1,
            "catchTime": 1680646302605,
            "trialTime": 0
        },
        {
            "exptPart": "trial",
            "trialNumber": 79,
            "roleCurrent": "sender",
            "marblesSampled": 100,
            "probRed": 0.5,
            "lambda": 5,
            "drawnRed": 35,
            "reportedRed": 79,
            "inferredRed": 75,
            "playerTrialScore": 40,
            "oppTrialScore": -40,
            "playerTotalScore": -188,
            "oppTotalScore": -537,
            "waitTime": 2884.579390294623,
            "responseTime": 1680646399120,
            "catchQuestion": "How many <b class=\"r\">red<\/b> marbles did you actually draw (before any changes)? ",
            "catchKey": 35,
            "catchResponse": 37,
            "catchTime": 1680646399120,
            "trialTime": 0
        },
        {
            "exptPart": "trial",
            "trialNumber": 80,
            "roleCurrent": "receiver",
            "marblesSampled": 100,
            "probRed": 0.5,
            "lambda": 5,
            "drawnRed": 11,
            "reportedRed": 14,
            "inferredRed": 4,
            "playerTrialScore": -7,
            "oppTrialScore": 0,
            "playerTotalScore": -195,
            "oppTotalScore": -537,
            "waitTime": 5209.914267583461,
            "responseTime": 1680646427320,
            "catchQuestion": "How many <b class=\"r\">red<\/b> marbles did you actually draw (before any changes)? ",
            "catchKey": -1,
            "catchResponse": -1,
            "catchTime": 1680646427320,
            "trialTime": 0
        },
        {
            "exptPart": "trial",
            "trialNumber": 81,
            "roleCurrent": "sender",
            "marblesSampled": 100,
            "probRed": 0.5,
            "lambda": 5,
            "drawnRed": 65,
            "reportedRed": 84,
            "inferredRed": 80,
            "playerTrialScore": 15,
            "oppTrialScore": -15,
            "playerTotalScore": -180,
            "oppTotalScore": -552,
            "waitTime": 2181.5366684762857,
            "responseTime": 1680646476096,
            "catchQuestion": "How many <b class=\"r\">red<\/b> marbles did you actually draw (before any changes)? ",
            "catchKey": -1,
            "catchResponse": -1,
            "catchTime": 1680646427320,
            "trialTime": 0
        },
        {
            "exptPart": "trial",
            "trialNumber": 82,
            "roleCurrent": "receiver",
            "marblesSampled": 100,
            "probRed": 0.5,
            "lambda": 5,
            "drawnRed": 22,
            "reportedRed": 25,
            "inferredRed": 15,
            "playerTrialScore": -7,
            "oppTrialScore": 0,
            "playerTotalScore": -187,
            "oppTotalScore": -552,
            "waitTime": 5682.767859353822,
            "responseTime": 1680646488741,
            "catchQuestion": "How many <b class=\"r\">red<\/b> marbles did you actually draw (before any changes)? ",
            "catchKey": -1,
            "catchResponse": -1,
            "catchTime": 1680646427320,
            "trialTime": 0
        },
        {
            "exptPart": "trial",
            "trialNumber": 83,
            "roleCurrent": "sender",
            "marblesSampled": 100,
            "probRed": 0.5,
            "lambda": 5,
            "drawnRed": 86,
            "reportedRed": 92,
            "inferredRed": 88,
            "playerTrialScore": 2,
            "oppTrialScore": -2,
            "playerTotalScore": -185,
            "oppTotalScore": -554,
            "waitTime": 3140.522800968771,
            "responseTime": 1680646521711,
            "catchQuestion": "How many <b class=\"r\">red<\/b> marbles did you actually draw (before any changes)? ",
            "catchKey": -1,
            "catchResponse": -1,
            "catchTime": 1680646427320,
            "trialTime": 0
        },
        {
            "exptPart": "trial",
            "trialNumber": 84,
            "roleCurrent": "receiver",
            "marblesSampled": 100,
            "probRed": 0.5,
            "lambda": 5,
            "drawnRed": 58,
            "reportedRed": 66,
            "inferredRed": 33,
            "playerTrialScore": -25,
            "oppTrialScore": 0,
            "playerTotalScore": -210,
            "oppTotalScore": -554,
            "waitTime": 5170.897221856179,
            "responseTime": 1680646531509,
            "catchQuestion": "How many <b class=\"r\">red<\/b> marbles did you actually draw (before any changes)? ",
            "catchKey": -1,
            "catchResponse": -1,
            "catchTime": 1680646427320,
            "trialTime": 0
        },
        {
            "exptPart": "trial",
            "trialNumber": 85,
            "roleCurrent": "sender",
            "marblesSampled": 100,
            "probRed": 0.5,
            "lambda": 5,
            "drawnRed": 55,
            "reportedRed": 75,
            "inferredRed": 63,
            "playerTrialScore": 8,
            "oppTrialScore": -8,
            "playerTotalScore": -202,
            "oppTotalScore": -562,
            "waitTime": 2818.263171105611,
            "responseTime": 1680646568437,
            "catchQuestion": "How many <b class=\"r\">red<\/b> marbles did you actually draw (before any changes)? ",
            "catchKey": -1,
            "catchResponse": -1,
            "catchTime": 1680646568437,
            "trialTime": 0
        },
        {
            "exptPart": "trial",
            "trialNumber": 86,
            "roleCurrent": "receiver",
            "marblesSampled": 100,
            "probRed": 0.5,
            "lambda": 5,
            "drawnRed": 58,
            "reportedRed": 62,
            "inferredRed": 26,
            "playerTrialScore": -32,
            "oppTrialScore": 0,
            "playerTotalScore": -234,
            "oppTotalScore": -562,
            "waitTime": 6262.872246485848,
            "responseTime": 1680646593701,
            "catchQuestion": "How many <b class=\"r\">red<\/b> marbles did you actually draw (before any changes)? ",
            "catchKey": -1,
            "catchResponse": -1,
            "catchTime": 1680646568437,
            "trialTime": 0
        },
        {
            "exptPart": "trial",
            "trialNumber": 87,
            "roleCurrent": "sender",
            "marblesSampled": 100,
            "probRed": 0.5,
            "lambda": 5,
            "drawnRed": 30,
            "reportedRed": 72,
            "inferredRed": 68,
            "playerTrialScore": 38,
            "oppTrialScore": -38,
            "playerTotalScore": -196,
            "oppTotalScore": -600,
            "waitTime": 2107.5889506728035,
            "responseTime": 1680646630286,
            "catchQuestion": "How many <b class=\"r\">red<\/b> marbles did you actually draw (before any changes)? ",
            "catchKey": 30,
            "catchResponse": 30,
            "catchTime": 1680646630287,
            "trialTime": 0
        },
        {
            "exptPart": "trial",
            "trialNumber": 88,
            "roleCurrent": "receiver",
            "marblesSampled": 100,
            "probRed": 0.5,
            "lambda": 5,
            "drawnRed": 20,
            "reportedRed": 25,
            "inferredRed": 10,
            "playerTrialScore": -10,
            "oppTrialScore": 0,
            "playerTotalScore": -206,
            "oppTotalScore": -600,
            "waitTime": 5580.090838797831,
            "responseTime": 1680646652102,
            "catchQuestion": "How many <b class=\"r\">red<\/b> marbles did you actually draw (before any changes)? ",
            "catchKey": -1,
            "catchResponse": -1,
            "catchTime": 1680646630287,
            "trialTime": 0
        },
        {
            "exptPart": "trial",
            "trialNumber": 89,
            "roleCurrent": "sender",
            "marblesSampled": 100,
            "probRed": 0.5,
            "lambda": 5,
            "drawnRed": 34,
            "reportedRed": 73,
            "inferredRed": 72,
            "playerTrialScore": 38,
            "oppTrialScore": -38,
            "playerTotalScore": -168,
            "oppTotalScore": -638,
            "waitTime": 3102.3165851212852,
            "responseTime": 1680646689002,
            "catchQuestion": "How many <b class=\"r\">red<\/b> marbles did you actually draw (before any changes)? ",
            "catchKey": -1,
            "catchResponse": -1,
            "catchTime": 1680646630287,
            "trialTime": 0
        },
        {
            "exptPart": "trial",
            "trialNumber": 90,
            "roleCurrent": "receiver",
            "marblesSampled": 100,
            "probRed": 0.5,
            "lambda": 5,
            "drawnRed": 46,
            "reportedRed": 58,
            "inferredRed": 24,
            "playerTrialScore": -22,
            "oppTrialScore": 0,
            "playerTotalScore": -190,
            "oppTotalScore": -638,
            "waitTime": 6969.874684229484,
            "responseTime": 1680646702285,
            "catchQuestion": "How many <b class=\"r\">red<\/b> marbles did you actually draw (before any changes)? ",
            "catchKey": -1,
            "catchResponse": -1,
            "catchTime": 1680646702285,
            "trialTime": 0
        },
        {
            "exptPart": "trial",
            "trialNumber": 91,
            "roleCurrent": "sender",
            "marblesSampled": 100,
            "probRed": 0.5,
            "lambda": 5,
            "drawnRed": 43,
            "reportedRed": 77,
            "inferredRed": 72,
            "playerTrialScore": 29,
            "oppTrialScore": -29,
            "playerTotalScore": -161,
            "oppTotalScore": -667,
            "waitTime": 2715.896414802684,
            "responseTime": 1680646736993,
            "catchQuestion": "How many <b class=\"r\">red<\/b> marbles did you actually draw (before any changes)? ",
            "catchKey": -1,
            "catchResponse": -1,
            "catchTime": 1680646702285,
            "trialTime": 0
        },
        {
            "exptPart": "trial",
            "trialNumber": 92,
            "roleCurrent": "receiver",
            "marblesSampled": 100,
            "probRed": 0.5,
            "lambda": 5,
            "drawnRed": 39,
            "reportedRed": 44,
            "inferredRed": 22,
            "playerTrialScore": -17,
            "oppTrialScore": 0,
            "playerTotalScore": -178,
            "oppTotalScore": -667,
            "waitTime": 6008.363808011664,
            "responseTime": 1680646746050,
            "catchQuestion": "How many <b class=\"r\">red<\/b> marbles did your opponent report drawing? ",
            "catchKey": 44,
            "catchResponse": 44,
            "catchTime": 1680646746050,
            "trialTime": 0
        },
        {
            "exptPart": "trial",
            "trialNumber": 93,
            "roleCurrent": "sender",
            "marblesSampled": 100,
            "probRed": 0.5,
            "lambda": 5,
            "drawnRed": 47,
            "reportedRed": 94,
            "inferredRed": 88,
            "playerTrialScore": 41,
            "oppTrialScore": -41,
            "playerTotalScore": -137,
            "oppTotalScore": -708,
            "waitTime": 2984.714679978209,
            "responseTime": 1680646795604,
            "catchQuestion": "How many <b class=\"r\">red<\/b> marbles did your opponent report drawing? ",
            "catchKey": -1,
            "catchResponse": -1,
            "catchTime": 1680646746050,
            "trialTime": 0
        },
        {
            "exptPart": "trial",
            "trialNumber": 94,
            "roleCurrent": "receiver",
            "marblesSampled": 100,
            "probRed": 0.5,
            "lambda": 5,
            "drawnRed": 33,
            "reportedRed": 43,
            "inferredRed": 20,
            "playerTrialScore": -13,
            "oppTrialScore": 0,
            "playerTotalScore": -150,
            "oppTotalScore": -708,
            "waitTime": 5597.362036460632,
            "responseTime": 1680646807709,
            "catchQuestion": "How many <b class=\"r\">red<\/b> marbles did your opponent report drawing? ",
            "catchKey": -1,
            "catchResponse": -1,
            "catchTime": 1680646746050,
            "trialTime": 0
        },
        {
            "exptPart": "trial",
            "trialNumber": 95,
            "roleCurrent": "sender",
            "marblesSampled": 100,
            "probRed": 0.5,
            "lambda": 5,
            "drawnRed": 50,
            "reportedRed": 56,
            "inferredRed": 47,
            "playerTrialScore": 0,
            "oppTrialScore": -3,
            "playerTotalScore": -150,
            "oppTotalScore": -711,
            "waitTime": 2573.044599279863,
            "responseTime": 1680646821335,
            "catchQuestion": "How many <b class=\"r\">red<\/b> marbles did your opponent report drawing? ",
            "catchKey": -1,
            "catchResponse": -1,
            "catchTime": 1680646821335,
            "trialTime": 0
        },
        {
            "exptPart": "trial",
            "trialNumber": 96,
            "roleCurrent": "receiver",
            "marblesSampled": 100,
            "probRed": 0.5,
            "lambda": 5,
            "drawnRed": 67,
            "reportedRed": 72,
            "inferredRed": 27,
            "playerTrialScore": -40,
            "oppTrialScore": 0,
            "playerTotalScore": -190,
            "oppTotalScore": -711,
            "waitTime": 7306.840780402151,
            "responseTime": 1680646836866,
            "catchQuestion": "How many <b class=\"r\">red<\/b> marbles did your opponent report drawing? ",
            "catchKey": -1,
            "catchResponse": -1,
            "catchTime": 1680646821335,
            "trialTime": 0
        },
        {
            "exptPart": "trial",
            "trialNumber": 97,
            "roleCurrent": "sender",
            "marblesSampled": 100,
            "probRed": 0.5,
            "lambda": 5,
            "drawnRed": 33,
            "reportedRed": 79,
            "inferredRed": 73,
            "playerTrialScore": 40,
            "oppTrialScore": -40,
            "playerTotalScore": -150,
            "oppTotalScore": -751,
            "waitTime": 3194.5595658804596,
            "responseTime": 1680646875465,
            "catchQuestion": "How many <b class=\"r\">red<\/b> marbles did your opponent report drawing? ",
            "catchKey": -1,
            "catchResponse": -1,
            "catchTime": 1680646821335,
            "trialTime": 0
        },
        {
            "exptPart": "trial",
            "trialNumber": 98,
            "roleCurrent": "receiver",
            "marblesSampled": 100,
            "probRed": 0.5,
            "lambda": 5,
            "drawnRed": 40,
            "reportedRed": 48,
            "inferredRed": 24,
            "playerTrialScore": -16,
            "oppTrialScore": 0,
            "playerTotalScore": -166,
            "oppTotalScore": -751,
            "waitTime": 6436.276371381635,
            "responseTime": 1680646887111,
            "catchQuestion": "How many <b class=\"r\">red<\/b> marbles did your opponent report drawing? ",
            "catchKey": -1,
            "catchResponse": -1,
            "catchTime": 1680646821335,
            "trialTime": 0
        },
        {
            "exptPart": "trial",
            "trialNumber": 99,
            "roleCurrent": "sender",
            "marblesSampled": 100,
            "probRed": 0.5,
            "lambda": 5,
            "drawnRed": 45,
            "reportedRed": 54,
            "inferredRed": 50,
            "playerTrialScore": 5,
            "oppTrialScore": -5,
            "playerTotalScore": -161,
            "oppTotalScore": -756,
            "waitTime": 2657.9947539028785,
            "responseTime": 1680646901891,
            "catchQuestion": "How many <b class=\"r\">red<\/b> marbles did your opponent report drawing? ",
            "catchKey": -1,
            "catchResponse": -1,
            "catchTime": 1680646821335,
            "trialTime": 0
        },
        {
            "exptPart": "trial",
            "trialNumber": 100,
            "roleCurrent": "receiver",
            "marblesSampled": 100,
            "probRed": 0.5,
            "lambda": 5,
            "drawnRed": 70,
            "reportedRed": 73,
            "inferredRed": 37,
            "playerTrialScore": -33,
            "oppTrialScore": 0,
            "playerTotalScore": -194,
            "oppTotalScore": -756,
            "waitTime": 6846.244958571773,
            "responseTime": 1680646911841,
            "catchQuestion": "How many <b class=\"r\">red<\/b> marbles did your opponent report drawing? ",
            "catchKey": -1,
            "catchResponse": -1,
            "catchTime": 1680646911841,
            "trialTime": 0
        }
    ]
}