{
    "client": {
        "type": "sona",
        "experiment_id": 2228,
        "credit_token": "b315147ae43241ea9c65086cb510cfb7",
        "survey_code": "44813",
        "sid": "sona-44813",
        "window": {
            "width": 1440,
            "height": 821
        },
        "screen": {
            "width": 1440,
            "height": 900
        },
        "userAgent": "Mozilla\/5.0 (Macintosh; Intel Mac OS X 10_15_7) AppleWebKit\/537.36 (KHTML, like Gecko) Chrome\/111.0.0.0 Safari\/537.36",
        "score": 0,
        "bonus": 0
    },
    "expt": {
        "saveURL": "submit.simple.php",
        "trials": 100,
        "practiceTrials": 2,
        "marblesSampled": 100,
        "probRed": 0.5,
        "lambdaAI": 5,
        "roleFirst": "receiver",
        "roles": [
            "sender",
            "receiver"
        ],
        "cost": "unif",
        "goal": "over",
        "goalInstructTxt": "below",
        "catchTrials": [
            99,
            88,
            95,
            94,
            74,
            24,
            8,
            13,
            80,
            41
        ],
        "scoreTotal": {
            "player": -568,
            "opp": -230
        },
        "sona": {
            "experiment_id": 2228,
            "credit_token": "b315147ae43241ea9c65086cb510cfb7"
        },
        "pilot": false,
        "debug": false
    },
    "trials": [
        {
            "exptPart": "practice",
            "trialNumber": 1,
            "roleCurrent": "sender",
            "marblesSampled": 100,
            "probRed": 0.5,
            "lambda": 5,
            "drawnRed": 49,
            "reportedRed": -1,
            "inferredRed": 0,
            "playerTrialScore": 0,
            "oppTrialScore": -49,
            "playerTotalScore": 0,
            "oppTotalScore": -49,
            "waitTime": 2923.9287486685625,
            "responseTime": 1680671051353,
            "catchQuestion": "How many <b class=\"r\">red<\/b> marbles did you actually draw (before any changes)? ",
            "catchKey": 49,
            "catchResponse": 51,
            "catchTime": 1680671051353,
            "trialTime": 0
        },
        {
            "exptPart": "practice",
            "trialNumber": 2,
            "roleCurrent": "receiver",
            "marblesSampled": 100,
            "probRed": 0.5,
            "lambda": 5,
            "drawnRed": 25,
            "reportedRed": 27,
            "inferredRed": 50,
            "playerTrialScore": -25,
            "oppTrialScore": 25,
            "playerTotalScore": -25,
            "oppTotalScore": -24,
            "waitTime": 5929.806641008821,
            "responseTime": 1680671105734,
            "catchQuestion": "How many <b class=\"r\">red<\/b> marbles did your opponent report drawing? ",
            "catchKey": 27,
            "catchResponse": 27,
            "catchTime": 1680671105735,
            "trialTime": 0
        },
        {
            "exptPart": "trial",
            "trialNumber": 1,
            "roleCurrent": "receiver",
            "marblesSampled": 100,
            "probRed": 0.5,
            "lambda": 5,
            "drawnRed": 46,
            "reportedRed": 54,
            "inferredRed": 60,
            "playerTrialScore": -14,
            "oppTrialScore": 14,
            "playerTotalScore": -14,
            "oppTotalScore": 14,
            "waitTime": 6126.883998855885,
            "responseTime": 1680671167184,
            "catchQuestion": "How many <b class=\"r\">red<\/b> marbles did your opponent report drawing? ",
            "catchKey": -1,
            "catchResponse": -1,
            "catchTime": 1680671105735,
            "trialTime": 0
        },
        {
            "exptPart": "trial",
            "trialNumber": 2,
            "roleCurrent": "sender",
            "marblesSampled": 100,
            "probRed": 0.5,
            "lambda": 5,
            "drawnRed": 88,
            "reportedRed": 74,
            "inferredRed": 71,
            "playerTrialScore": 0,
            "oppTrialScore": -17,
            "playerTotalScore": -14,
            "oppTotalScore": -3,
            "waitTime": 2547.70940779888,
            "responseTime": 1680671191603,
            "catchQuestion": "How many <b class=\"r\">red<\/b> marbles did your opponent report drawing? ",
            "catchKey": -1,
            "catchResponse": -1,
            "catchTime": 1680671105735,
            "trialTime": 0
        },
        {
            "exptPart": "trial",
            "trialNumber": 3,
            "roleCurrent": "receiver",
            "marblesSampled": 100,
            "probRed": 0.5,
            "lambda": 5,
            "drawnRed": 83,
            "reportedRed": 86,
            "inferredRed": 77,
            "playerTrialScore": -6,
            "oppTrialScore": 0,
            "playerTotalScore": -20,
            "oppTotalScore": -3,
            "waitTime": 6834.940962269577,
            "responseTime": 1680671205037,
            "catchQuestion": "How many <b class=\"r\">red<\/b> marbles did your opponent report drawing? ",
            "catchKey": -1,
            "catchResponse": -1,
            "catchTime": 1680671105735,
            "trialTime": 0
        },
        {
            "exptPart": "trial",
            "trialNumber": 4,
            "roleCurrent": "sender",
            "marblesSampled": 100,
            "probRed": 0.5,
            "lambda": 5,
            "drawnRed": 63,
            "reportedRed": 42,
            "inferredRed": 37,
            "playerTrialScore": 0,
            "oppTrialScore": -26,
            "playerTotalScore": -20,
            "oppTotalScore": -29,
            "waitTime": 2562.5251750932475,
            "responseTime": 1680671226753,
            "catchQuestion": "How many <b class=\"r\">red<\/b> marbles did your opponent report drawing? ",
            "catchKey": -1,
            "catchResponse": -1,
            "catchTime": 1680671105735,
            "trialTime": 0
        },
        {
            "exptPart": "trial",
            "trialNumber": 5,
            "roleCurrent": "receiver",
            "marblesSampled": 100,
            "probRed": 0.5,
            "lambda": 5,
            "drawnRed": 43,
            "reportedRed": 48,
            "inferredRed": 67,
            "playerTrialScore": -24,
            "oppTrialScore": 24,
            "playerTotalScore": -44,
            "oppTotalScore": -5,
            "waitTime": 5786.328646421985,
            "responseTime": 1680671238968,
            "catchQuestion": "How many <b class=\"r\">red<\/b> marbles did your opponent report drawing? ",
            "catchKey": -1,
            "catchResponse": -1,
            "catchTime": 1680671238968,
            "trialTime": 0
        },
        {
            "exptPart": "trial",
            "trialNumber": 6,
            "roleCurrent": "sender",
            "marblesSampled": 100,
            "probRed": 0.5,
            "lambda": 5,
            "drawnRed": 63,
            "reportedRed": 36,
            "inferredRed": 29,
            "playerTrialScore": 0,
            "oppTrialScore": -34,
            "playerTotalScore": -44,
            "oppTotalScore": -39,
            "waitTime": 2165.4930117303506,
            "responseTime": 1680671269737,
            "catchQuestion": "How many <b class=\"r\">red<\/b> marbles did your opponent report drawing? ",
            "catchKey": -1,
            "catchResponse": -1,
            "catchTime": 1680671238968,
            "trialTime": 0
        },
        {
            "exptPart": "trial",
            "trialNumber": 7,
            "roleCurrent": "receiver",
            "marblesSampled": 100,
            "probRed": 0.5,
            "lambda": 5,
            "drawnRed": 32,
            "reportedRed": 40,
            "inferredRed": 51,
            "playerTrialScore": -19,
            "oppTrialScore": 19,
            "playerTotalScore": -63,
            "oppTotalScore": -20,
            "waitTime": 5602.44189076675,
            "responseTime": 1680671279868,
            "catchQuestion": "How many <b class=\"r\">red<\/b> marbles did your opponent report drawing? ",
            "catchKey": -1,
            "catchResponse": -1,
            "catchTime": 1680671238968,
            "trialTime": 0
        },
        {
            "exptPart": "trial",
            "trialNumber": 8,
            "roleCurrent": "sender",
            "marblesSampled": 100,
            "probRed": 0.5,
            "lambda": 5,
            "drawnRed": 47,
            "reportedRed": 34,
            "inferredRed": 27,
            "playerTrialScore": 0,
            "oppTrialScore": -20,
            "playerTotalScore": -63,
            "oppTotalScore": -40,
            "waitTime": 2624.684852783441,
            "responseTime": 1680671310353,
            "catchQuestion": "How many <b class=\"r\">red<\/b> marbles did your opponent report drawing? ",
            "catchKey": -1,
            "catchResponse": -1,
            "catchTime": 1680671238968,
            "trialTime": 0
        },
        {
            "exptPart": "trial",
            "trialNumber": 9,
            "roleCurrent": "receiver",
            "marblesSampled": 100,
            "probRed": 0.5,
            "lambda": 5,
            "drawnRed": 54,
            "reportedRed": 63,
            "inferredRed": 72,
            "playerTrialScore": -18,
            "oppTrialScore": 18,
            "playerTotalScore": -81,
            "oppTotalScore": -22,
            "waitTime": 6605.571729416626,
            "responseTime": 1680671322902,
            "catchQuestion": "How many <b class=\"r\">red<\/b> marbles did your opponent report drawing? ",
            "catchKey": 63,
            "catchResponse": 63,
            "catchTime": 1680671322902,
            "trialTime": 0
        },
        {
            "exptPart": "trial",
            "trialNumber": 10,
            "roleCurrent": "sender",
            "marblesSampled": 100,
            "probRed": 0.5,
            "lambda": 5,
            "drawnRed": 32,
            "reportedRed": 42,
            "inferredRed": 40,
            "playerTrialScore": 8,
            "oppTrialScore": -8,
            "playerTotalScore": -73,
            "oppTotalScore": -30,
            "waitTime": 2113.967699611976,
            "responseTime": 1680671345837,
            "catchQuestion": "How many <b class=\"r\">red<\/b> marbles did your opponent report drawing? ",
            "catchKey": -1,
            "catchResponse": -1,
            "catchTime": 1680671345837,
            "trialTime": 0
        },
        {
            "exptPart": "trial",
            "trialNumber": 11,
            "roleCurrent": "receiver",
            "marblesSampled": 100,
            "probRed": 0.5,
            "lambda": 5,
            "drawnRed": 60,
            "reportedRed": 63,
            "inferredRed": 52,
            "playerTrialScore": -8,
            "oppTrialScore": 0,
            "playerTotalScore": -81,
            "oppTotalScore": -30,
            "waitTime": 5624.477028757108,
            "responseTime": 1680671363935,
            "catchQuestion": "How many <b class=\"r\">red<\/b> marbles did your opponent report drawing? ",
            "catchKey": -1,
            "catchResponse": -1,
            "catchTime": 1680671345837,
            "trialTime": 0
        },
        {
            "exptPart": "trial",
            "trialNumber": 12,
            "roleCurrent": "sender",
            "marblesSampled": 100,
            "probRed": 0.5,
            "lambda": 5,
            "drawnRed": 64,
            "reportedRed": 75,
            "inferredRed": 70,
            "playerTrialScore": 6,
            "oppTrialScore": -6,
            "playerTotalScore": -75,
            "oppTotalScore": -36,
            "waitTime": 2192.8529145480616,
            "responseTime": 1680671381237,
            "catchQuestion": "How many <b class=\"r\">red<\/b> marbles did your opponent report drawing? ",
            "catchKey": -1,
            "catchResponse": -1,
            "catchTime": 1680671345837,
            "trialTime": 0
        },
        {
            "exptPart": "trial",
            "trialNumber": 13,
            "roleCurrent": "receiver",
            "marblesSampled": 100,
            "probRed": 0.5,
            "lambda": 5,
            "drawnRed": 70,
            "reportedRed": 78,
            "inferredRed": 67,
            "playerTrialScore": -3,
            "oppTrialScore": 0,
            "playerTotalScore": -78,
            "oppTotalScore": -36,
            "waitTime": 5569.1955042757145,
            "responseTime": 1680671390719,
            "catchQuestion": "How many <b class=\"r\">red<\/b> marbles did your opponent report drawing? ",
            "catchKey": -1,
            "catchResponse": -1,
            "catchTime": 1680671345837,
            "trialTime": 0
        },
        {
            "exptPart": "trial",
            "trialNumber": 14,
            "roleCurrent": "sender",
            "marblesSampled": 100,
            "probRed": 0.5,
            "lambda": 5,
            "drawnRed": 71,
            "reportedRed": 91,
            "inferredRed": 86,
            "playerTrialScore": 15,
            "oppTrialScore": -15,
            "playerTotalScore": -63,
            "oppTotalScore": -51,
            "waitTime": 3084.2421513751847,
            "responseTime": 1680671421721,
            "catchQuestion": "How many <b class=\"r\">red<\/b> marbles did you actually draw (before any changes)? ",
            "catchKey": 71,
            "catchResponse": 67,
            "catchTime": 1680671421721,
            "trialTime": 0
        },
        {
            "exptPart": "trial",
            "trialNumber": 15,
            "roleCurrent": "receiver",
            "marblesSampled": 100,
            "probRed": 0.5,
            "lambda": 5,
            "drawnRed": 56,
            "reportedRed": 60,
            "inferredRed": 49,
            "playerTrialScore": -7,
            "oppTrialScore": 0,
            "playerTotalScore": -70,
            "oppTotalScore": -51,
            "waitTime": 6900.447795064221,
            "responseTime": 1680671450220,
            "catchQuestion": "How many <b class=\"r\">red<\/b> marbles did you actually draw (before any changes)? ",
            "catchKey": -1,
            "catchResponse": -1,
            "catchTime": 1680671450220,
            "trialTime": 0
        },
        {
            "exptPart": "trial",
            "trialNumber": 16,
            "roleCurrent": "sender",
            "marblesSampled": 100,
            "probRed": 0.5,
            "lambda": 5,
            "drawnRed": 31,
            "reportedRed": 50,
            "inferredRed": 48,
            "playerTrialScore": 17,
            "oppTrialScore": -17,
            "playerTotalScore": -53,
            "oppTotalScore": -68,
            "waitTime": 2771.4452321033377,
            "responseTime": 1680671476020,
            "catchQuestion": "How many <b class=\"r\">red<\/b> marbles did you actually draw (before any changes)? ",
            "catchKey": -1,
            "catchResponse": -1,
            "catchTime": 1680671450220,
            "trialTime": 0
        },
        {
            "exptPart": "trial",
            "trialNumber": 17,
            "roleCurrent": "receiver",
            "marblesSampled": 100,
            "probRed": 0.5,
            "lambda": 5,
            "drawnRed": 33,
            "reportedRed": 39,
            "inferredRed": 45,
            "playerTrialScore": -12,
            "oppTrialScore": 12,
            "playerTotalScore": -65,
            "oppTotalScore": -56,
            "waitTime": 5592.805029593412,
            "responseTime": 1680671485953,
            "catchQuestion": "How many <b class=\"r\">red<\/b> marbles did you actually draw (before any changes)? ",
            "catchKey": -1,
            "catchResponse": -1,
            "catchTime": 1680671450220,
            "trialTime": 0
        },
        {
            "exptPart": "trial",
            "trialNumber": 18,
            "roleCurrent": "sender",
            "marblesSampled": 100,
            "probRed": 0.5,
            "lambda": 5,
            "drawnRed": 40,
            "reportedRed": 45,
            "inferredRed": 40,
            "playerTrialScore": 0,
            "oppTrialScore": 0,
            "playerTotalScore": -65,
            "oppTotalScore": -56,
            "waitTime": 2132.1965246420395,
            "responseTime": 1680671497821,
            "catchQuestion": "How many <b class=\"r\">red<\/b> marbles did you actually draw (before any changes)? ",
            "catchKey": -1,
            "catchResponse": -1,
            "catchTime": 1680671450220,
            "trialTime": 0
        },
        {
            "exptPart": "trial",
            "trialNumber": 19,
            "roleCurrent": "receiver",
            "marblesSampled": 100,
            "probRed": 0.5,
            "lambda": 5,
            "drawnRed": 23,
            "reportedRed": 35,
            "inferredRed": 56,
            "playerTrialScore": -33,
            "oppTrialScore": 33,
            "playerTotalScore": -98,
            "oppTotalScore": -23,
            "waitTime": 6450.186754479502,
            "responseTime": 1680671508270,
            "catchQuestion": "How many <b class=\"r\">red<\/b> marbles did you actually draw (before any changes)? ",
            "catchKey": -1,
            "catchResponse": -1,
            "catchTime": 1680671450220,
            "trialTime": 0
        },
        {
            "exptPart": "trial",
            "trialNumber": 20,
            "roleCurrent": "sender",
            "marblesSampled": 100,
            "probRed": 0.5,
            "lambda": 5,
            "drawnRed": 71,
            "reportedRed": 92,
            "inferredRed": 85,
            "playerTrialScore": 14,
            "oppTrialScore": -14,
            "playerTotalScore": -84,
            "oppTotalScore": -37,
            "waitTime": 2962.1787395347164,
            "responseTime": 1680671530887,
            "catchQuestion": "How many <b class=\"r\">red<\/b> marbles did you actually draw (before any changes)? ",
            "catchKey": -1,
            "catchResponse": -1,
            "catchTime": 1680671530888,
            "trialTime": 0
        },
        {
            "exptPart": "trial",
            "trialNumber": 21,
            "roleCurrent": "receiver",
            "marblesSampled": 100,
            "probRed": 0.5,
            "lambda": 5,
            "drawnRed": 67,
            "reportedRed": 74,
            "inferredRed": 46,
            "playerTrialScore": -21,
            "oppTrialScore": 0,
            "playerTotalScore": -105,
            "oppTotalScore": -37,
            "waitTime": 5687.753586331401,
            "responseTime": 1680671543570,
            "catchQuestion": "How many <b class=\"r\">red<\/b> marbles did you actually draw (before any changes)? ",
            "catchKey": -1,
            "catchResponse": -1,
            "catchTime": 1680671530888,
            "trialTime": 0
        },
        {
            "exptPart": "trial",
            "trialNumber": 22,
            "roleCurrent": "sender",
            "marblesSampled": 100,
            "probRed": 0.5,
            "lambda": 5,
            "drawnRed": 72,
            "reportedRed": 57,
            "inferredRed": 55,
            "playerTrialScore": 0,
            "oppTrialScore": -17,
            "playerTotalScore": -105,
            "oppTotalScore": -54,
            "waitTime": 2611.905408112463,
            "responseTime": 1680671563688,
            "catchQuestion": "How many <b class=\"r\">red<\/b> marbles did you actually draw (before any changes)? ",
            "catchKey": -1,
            "catchResponse": -1,
            "catchTime": 1680671530888,
            "trialTime": 0
        },
        {
            "exptPart": "trial",
            "trialNumber": 23,
            "roleCurrent": "receiver",
            "marblesSampled": 100,
            "probRed": 0.5,
            "lambda": 5,
            "drawnRed": 61,
            "reportedRed": 65,
            "inferredRed": 49,
            "playerTrialScore": -12,
            "oppTrialScore": 0,
            "playerTotalScore": -117,
            "oppTotalScore": -54,
            "waitTime": 6998.47489402718,
            "responseTime": 1680671581571,
            "catchQuestion": "How many <b class=\"r\">red<\/b> marbles did you actually draw (before any changes)? ",
            "catchKey": -1,
            "catchResponse": -1,
            "catchTime": 1680671530888,
            "trialTime": 0
        },
        {
            "exptPart": "trial",
            "trialNumber": 24,
            "roleCurrent": "sender",
            "marblesSampled": 100,
            "probRed": 0.5,
            "lambda": 5,
            "drawnRed": 92,
            "reportedRed": 100,
            "inferredRed": 94,
            "playerTrialScore": 2,
            "oppTrialScore": -2,
            "playerTotalScore": -115,
            "oppTotalScore": -56,
            "waitTime": 2977.4847433200807,
            "responseTime": 1680671602205,
            "catchQuestion": "How many <b class=\"r\">red<\/b> marbles did you actually draw (before any changes)? ",
            "catchKey": -1,
            "catchResponse": -1,
            "catchTime": 1680671530888,
            "trialTime": 0
        },
        {
            "exptPart": "trial",
            "trialNumber": 25,
            "roleCurrent": "receiver",
            "marblesSampled": 100,
            "probRed": 0.5,
            "lambda": 5,
            "drawnRed": 48,
            "reportedRed": 56,
            "inferredRed": 45,
            "playerTrialScore": -3,
            "oppTrialScore": 0,
            "playerTotalScore": -118,
            "oppTotalScore": -56,
            "waitTime": 6500.900544424908,
            "responseTime": 1680671613922,
            "catchQuestion": "How many <b class=\"r\">red<\/b> marbles did your opponent report drawing? ",
            "catchKey": 56,
            "catchResponse": 56,
            "catchTime": 1680671613922,
            "trialTime": 0
        },
        {
            "exptPart": "trial",
            "trialNumber": 26,
            "roleCurrent": "sender",
            "marblesSampled": 100,
            "probRed": 0.5,
            "lambda": 5,
            "drawnRed": 37,
            "reportedRed": 54,
            "inferredRed": 49,
            "playerTrialScore": 12,
            "oppTrialScore": -12,
            "playerTotalScore": -106,
            "oppTotalScore": -68,
            "waitTime": 2365.4278020135125,
            "responseTime": 1680671638607,
            "catchQuestion": "How many <b class=\"r\">red<\/b> marbles did your opponent report drawing? ",
            "catchKey": -1,
            "catchResponse": -1,
            "catchTime": 1680671613922,
            "trialTime": 0
        },
        {
            "exptPart": "trial",
            "trialNumber": 27,
            "roleCurrent": "receiver",
            "marblesSampled": 100,
            "probRed": 0.5,
            "lambda": 5,
            "drawnRed": 17,
            "reportedRed": 23,
            "inferredRed": 22,
            "playerTrialScore": -5,
            "oppTrialScore": 5,
            "playerTotalScore": -111,
            "oppTotalScore": -63,
            "waitTime": 7448.772001807819,
            "responseTime": 1680671649538,
            "catchQuestion": "How many <b class=\"r\">red<\/b> marbles did your opponent report drawing? ",
            "catchKey": -1,
            "catchResponse": -1,
            "catchTime": 1680671613922,
            "trialTime": 0
        },
        {
            "exptPart": "trial",
            "trialNumber": 28,
            "roleCurrent": "sender",
            "marblesSampled": 100,
            "probRed": 0.5,
            "lambda": 5,
            "drawnRed": 8,
            "reportedRed": 0,
            "inferredRed": 0,
            "playerTrialScore": 0,
            "oppTrialScore": -8,
            "playerTotalScore": -111,
            "oppTotalScore": -71,
            "waitTime": 3225.9772245776353,
            "responseTime": 1680671671273,
            "catchQuestion": "How many <b class=\"r\">red<\/b> marbles did your opponent report drawing? ",
            "catchKey": -1,
            "catchResponse": -1,
            "catchTime": 1680671613922,
            "trialTime": 0
        },
        {
            "exptPart": "trial",
            "trialNumber": 29,
            "roleCurrent": "receiver",
            "marblesSampled": 100,
            "probRed": 0.5,
            "lambda": 5,
            "drawnRed": 58,
            "reportedRed": 61,
            "inferredRed": 60,
            "playerTrialScore": -2,
            "oppTrialScore": 2,
            "playerTotalScore": -113,
            "oppTotalScore": -69,
            "waitTime": 6443.015710242512,
            "responseTime": 1680671684688,
            "catchQuestion": "How many <b class=\"r\">red<\/b> marbles did your opponent report drawing? ",
            "catchKey": -1,
            "catchResponse": -1,
            "catchTime": 1680671613922,
            "trialTime": 0
        },
        {
            "exptPart": "trial",
            "trialNumber": 30,
            "roleCurrent": "sender",
            "marblesSampled": 100,
            "probRed": 0.5,
            "lambda": 5,
            "drawnRed": 50,
            "reportedRed": 50,
            "inferredRed": 45,
            "playerTrialScore": 0,
            "oppTrialScore": -5,
            "playerTotalScore": -113,
            "oppTotalScore": -74,
            "waitTime": 2689.8414225628217,
            "responseTime": 1680671694522,
            "catchQuestion": "How many <b class=\"r\">red<\/b> marbles did your opponent report drawing? ",
            "catchKey": -1,
            "catchResponse": -1,
            "catchTime": 1680671694522,
            "trialTime": 0
        },
        {
            "exptPart": "trial",
            "trialNumber": 31,
            "roleCurrent": "receiver",
            "marblesSampled": 100,
            "probRed": 0.5,
            "lambda": 5,
            "drawnRed": 43,
            "reportedRed": 51,
            "inferredRed": 43,
            "playerTrialScore": 0,
            "oppTrialScore": 0,
            "playerTotalScore": -113,
            "oppTotalScore": -74,
            "waitTime": 6094.105640676722,
            "responseTime": 1680671726038,
            "catchQuestion": "How many <b class=\"r\">red<\/b> marbles did your opponent report drawing? ",
            "catchKey": -1,
            "catchResponse": -1,
            "catchTime": 1680671694522,
            "trialTime": 0
        },
        {
            "exptPart": "trial",
            "trialNumber": 32,
            "roleCurrent": "sender",
            "marblesSampled": 100,
            "probRed": 0.5,
            "lambda": 5,
            "drawnRed": 44,
            "reportedRed": 57,
            "inferredRed": 51,
            "playerTrialScore": 7,
            "oppTrialScore": -7,
            "playerTotalScore": -106,
            "oppTotalScore": -81,
            "waitTime": 2131.066879699032,
            "responseTime": 1680671749324,
            "catchQuestion": "How many <b class=\"r\">red<\/b> marbles did your opponent report drawing? ",
            "catchKey": -1,
            "catchResponse": -1,
            "catchTime": 1680671694522,
            "trialTime": 0
        },
        {
            "exptPart": "trial",
            "trialNumber": 33,
            "roleCurrent": "receiver",
            "marblesSampled": 100,
            "probRed": 0.5,
            "lambda": 5,
            "drawnRed": 16,
            "reportedRed": 23,
            "inferredRed": 13,
            "playerTrialScore": -3,
            "oppTrialScore": 0,
            "playerTotalScore": -109,
            "oppTotalScore": -81,
            "waitTime": 5486.3543135268765,
            "responseTime": 1680671760221,
            "catchQuestion": "How many <b class=\"r\">red<\/b> marbles did your opponent report drawing? ",
            "catchKey": -1,
            "catchResponse": -1,
            "catchTime": 1680671694522,
            "trialTime": 0
        },
        {
            "exptPart": "trial",
            "trialNumber": 34,
            "roleCurrent": "sender",
            "marblesSampled": 100,
            "probRed": 0.5,
            "lambda": 5,
            "drawnRed": 25,
            "reportedRed": 15,
            "inferredRed": 12,
            "playerTrialScore": 0,
            "oppTrialScore": -13,
            "playerTotalScore": -109,
            "oppTotalScore": -94,
            "waitTime": 2176.615705109605,
            "responseTime": 1680671792106,
            "catchQuestion": "How many <b class=\"r\">red<\/b> marbles did your opponent report drawing? ",
            "catchKey": -1,
            "catchResponse": -1,
            "catchTime": 1680671694522,
            "trialTime": 0
        },
        {
            "exptPart": "trial",
            "trialNumber": 35,
            "roleCurrent": "receiver",
            "marblesSampled": 100,
            "probRed": 0.5,
            "lambda": 5,
            "drawnRed": 48,
            "reportedRed": 51,
            "inferredRed": 33,
            "playerTrialScore": -15,
            "oppTrialScore": 0,
            "playerTotalScore": -124,
            "oppTotalScore": -94,
            "waitTime": 5963.207372415125,
            "responseTime": 1680671800689,
            "catchQuestion": "How many <b class=\"r\">red<\/b> marbles did your opponent report drawing? ",
            "catchKey": -1,
            "catchResponse": -1,
            "catchTime": 1680671800689,
            "trialTime": 0
        },
        {
            "exptPart": "trial",
            "trialNumber": 36,
            "roleCurrent": "sender",
            "marblesSampled": 100,
            "probRed": 0.5,
            "lambda": 5,
            "drawnRed": 33,
            "reportedRed": 10,
            "inferredRed": 5,
            "playerTrialScore": 0,
            "oppTrialScore": -28,
            "playerTotalScore": -124,
            "oppTotalScore": -122,
            "waitTime": 3236.1762748567353,
            "responseTime": 1680671823257,
            "catchQuestion": "How many <b class=\"r\">red<\/b> marbles did your opponent report drawing? ",
            "catchKey": -1,
            "catchResponse": -1,
            "catchTime": 1680671800689,
            "trialTime": 0
        },
        {
            "exptPart": "trial",
            "trialNumber": 37,
            "roleCurrent": "receiver",
            "marblesSampled": 100,
            "probRed": 0.5,
            "lambda": 5,
            "drawnRed": 68,
            "reportedRed": 76,
            "inferredRed": 54,
            "playerTrialScore": -14,
            "oppTrialScore": 0,
            "playerTotalScore": -138,
            "oppTotalScore": -122,
            "waitTime": 6364.932292604943,
            "responseTime": 1680671833761,
            "catchQuestion": "How many <b class=\"r\">red<\/b> marbles did your opponent report drawing? ",
            "catchKey": -1,
            "catchResponse": -1,
            "catchTime": 1680671800689,
            "trialTime": 0
        },
        {
            "exptPart": "trial",
            "trialNumber": 38,
            "roleCurrent": "sender",
            "marblesSampled": 100,
            "probRed": 0.5,
            "lambda": 5,
            "drawnRed": 32,
            "reportedRed": 32,
            "inferredRed": 24,
            "playerTrialScore": 0,
            "oppTrialScore": -8,
            "playerTotalScore": -138,
            "oppTotalScore": -130,
            "waitTime": 2774.6235814890897,
            "responseTime": 1680671844606,
            "catchQuestion": "How many <b class=\"r\">red<\/b> marbles did your opponent report drawing? ",
            "catchKey": -1,
            "catchResponse": -1,
            "catchTime": 1680671800689,
            "trialTime": 0
        },
        {
            "exptPart": "trial",
            "trialNumber": 39,
            "roleCurrent": "receiver",
            "marblesSampled": 100,
            "probRed": 0.5,
            "lambda": 5,
            "drawnRed": 56,
            "reportedRed": 61,
            "inferredRed": 44,
            "playerTrialScore": -12,
            "oppTrialScore": 0,
            "playerTotalScore": -150,
            "oppTotalScore": -130,
            "waitTime": 5558.7323677402255,
            "responseTime": 1680671855656,
            "catchQuestion": "How many <b class=\"r\">red<\/b> marbles did your opponent report drawing? ",
            "catchKey": -1,
            "catchResponse": -1,
            "catchTime": 1680671800689,
            "trialTime": 0
        },
        {
            "exptPart": "trial",
            "trialNumber": 40,
            "roleCurrent": "sender",
            "marblesSampled": 100,
            "probRed": 0.5,
            "lambda": 5,
            "drawnRed": 42,
            "reportedRed": 48,
            "inferredRed": 45,
            "playerTrialScore": 3,
            "oppTrialScore": -3,
            "playerTotalScore": -147,
            "oppTotalScore": -133,
            "waitTime": 2441.0704157965574,
            "responseTime": 1680671867656,
            "catchQuestion": "How many <b class=\"r\">red<\/b> marbles did your opponent report drawing? ",
            "catchKey": -1,
            "catchResponse": -1,
            "catchTime": 1680671867656,
            "trialTime": 0
        },
        {
            "exptPart": "trial",
            "trialNumber": 41,
            "roleCurrent": "receiver",
            "marblesSampled": 100,
            "probRed": 0.5,
            "lambda": 5,
            "drawnRed": 73,
            "reportedRed": 82,
            "inferredRed": 66,
            "playerTrialScore": -7,
            "oppTrialScore": 0,
            "playerTotalScore": -154,
            "oppTotalScore": -133,
            "waitTime": 5385.753237330839,
            "responseTime": 1680671881555,
            "catchQuestion": "How many <b class=\"r\">red<\/b> marbles did your opponent report drawing? ",
            "catchKey": -1,
            "catchResponse": -1,
            "catchTime": 1680671867656,
            "trialTime": 0
        },
        {
            "exptPart": "trial",
            "trialNumber": 42,
            "roleCurrent": "sender",
            "marblesSampled": 100,
            "probRed": 0.5,
            "lambda": 5,
            "drawnRed": 11,
            "reportedRed": 0,
            "inferredRed": 0,
            "playerTrialScore": 0,
            "oppTrialScore": -11,
            "playerTotalScore": -154,
            "oppTotalScore": -144,
            "waitTime": 3246.8716633399217,
            "responseTime": 1680671896739,
            "catchQuestion": "How many <b class=\"r\">red<\/b> marbles did you actually draw (before any changes)? ",
            "catchKey": 11,
            "catchResponse": 1,
            "catchTime": 1680671896740,
            "trialTime": 0
        },
        {
            "exptPart": "trial",
            "trialNumber": 43,
            "roleCurrent": "receiver",
            "marblesSampled": 100,
            "probRed": 0.5,
            "lambda": 5,
            "drawnRed": 21,
            "reportedRed": 25,
            "inferredRed": 23,
            "playerTrialScore": -2,
            "oppTrialScore": 2,
            "playerTotalScore": -156,
            "oppTotalScore": -142,
            "waitTime": 6959.62958686162,
            "responseTime": 1680671924706,
            "catchQuestion": "How many <b class=\"r\">red<\/b> marbles did you actually draw (before any changes)? ",
            "catchKey": -1,
            "catchResponse": -1,
            "catchTime": 1680671896740,
            "trialTime": 0
        },
        {
            "exptPart": "trial",
            "trialNumber": 44,
            "roleCurrent": "sender",
            "marblesSampled": 100,
            "probRed": 0.5,
            "lambda": 5,
            "drawnRed": 29,
            "reportedRed": 18,
            "inferredRed": 11,
            "playerTrialScore": 0,
            "oppTrialScore": -18,
            "playerTotalScore": -156,
            "oppTotalScore": -160,
            "waitTime": 2338.663773227319,
            "responseTime": 1680671960924,
            "catchQuestion": "How many <b class=\"r\">red<\/b> marbles did you actually draw (before any changes)? ",
            "catchKey": -1,
            "catchResponse": -1,
            "catchTime": 1680671896740,
            "trialTime": 0
        },
        {
            "exptPart": "trial",
            "trialNumber": 45,
            "roleCurrent": "receiver",
            "marblesSampled": 100,
            "probRed": 0.5,
            "lambda": 5,
            "drawnRed": 47,
            "reportedRed": 50,
            "inferredRed": 33,
            "playerTrialScore": -14,
            "oppTrialScore": 0,
            "playerTotalScore": -170,
            "oppTotalScore": -160,
            "waitTime": 6865.693606145401,
            "responseTime": 1680671971239,
            "catchQuestion": "How many <b class=\"r\">red<\/b> marbles did you actually draw (before any changes)? ",
            "catchKey": -1,
            "catchResponse": -1,
            "catchTime": 1680671971240,
            "trialTime": 0
        },
        {
            "exptPart": "trial",
            "trialNumber": 46,
            "roleCurrent": "sender",
            "marblesSampled": 100,
            "probRed": 0.5,
            "lambda": 5,
            "drawnRed": 55,
            "reportedRed": 49,
            "inferredRed": 46,
            "playerTrialScore": 0,
            "oppTrialScore": -9,
            "playerTotalScore": -170,
            "oppTotalScore": -169,
            "waitTime": 2139.448612550633,
            "responseTime": 1680671988691,
            "catchQuestion": "How many <b class=\"r\">red<\/b> marbles did you actually draw (before any changes)? ",
            "catchKey": -1,
            "catchResponse": -1,
            "catchTime": 1680671971240,
            "trialTime": 0
        },
        {
            "exptPart": "trial",
            "trialNumber": 47,
            "roleCurrent": "receiver",
            "marblesSampled": 100,
            "probRed": 0.5,
            "lambda": 5,
            "drawnRed": 84,
            "reportedRed": 93,
            "inferredRed": 23,
            "playerTrialScore": -61,
            "oppTrialScore": 0,
            "playerTotalScore": -231,
            "oppTotalScore": -169,
            "waitTime": 5923.3824659861675,
            "responseTime": 1680672000574,
            "catchQuestion": "How many <b class=\"r\">red<\/b> marbles did you actually draw (before any changes)? ",
            "catchKey": -1,
            "catchResponse": -1,
            "catchTime": 1680671971240,
            "trialTime": 0
        },
        {
            "exptPart": "trial",
            "trialNumber": 48,
            "roleCurrent": "sender",
            "marblesSampled": 100,
            "probRed": 0.5,
            "lambda": 5,
            "drawnRed": 43,
            "reportedRed": 43,
            "inferredRed": 38,
            "playerTrialScore": 0,
            "oppTrialScore": -5,
            "playerTotalScore": -231,
            "oppTotalScore": -174,
            "waitTime": 2476.8921349905445,
            "responseTime": 1680672010457,
            "catchQuestion": "How many <b class=\"r\">red<\/b> marbles did you actually draw (before any changes)? ",
            "catchKey": -1,
            "catchResponse": -1,
            "catchTime": 1680671971240,
            "trialTime": 0
        },
        {
            "exptPart": "trial",
            "trialNumber": 49,
            "roleCurrent": "receiver",
            "marblesSampled": 100,
            "probRed": 0.5,
            "lambda": 5,
            "drawnRed": 57,
            "reportedRed": 63,
            "inferredRed": 34,
            "playerTrialScore": -23,
            "oppTrialScore": 0,
            "playerTotalScore": -254,
            "oppTotalScore": -174,
            "waitTime": 5476.368000028689,
            "responseTime": 1680672018790,
            "catchQuestion": "How many <b class=\"r\">red<\/b> marbles did you actually draw (before any changes)? ",
            "catchKey": -1,
            "catchResponse": -1,
            "catchTime": 1680671971240,
            "trialTime": 0
        },
        {
            "exptPart": "trial",
            "trialNumber": 50,
            "roleCurrent": "sender",
            "marblesSampled": 100,
            "probRed": 0.5,
            "lambda": 5,
            "drawnRed": 50,
            "reportedRed": 36,
            "inferredRed": 34,
            "playerTrialScore": 0,
            "oppTrialScore": -16,
            "playerTotalScore": -254,
            "oppTotalScore": -190,
            "waitTime": 2232.5005538298356,
            "responseTime": 1680672035875,
            "catchQuestion": "How many <b class=\"r\">red<\/b> marbles did you actually draw (before any changes)? ",
            "catchKey": -1,
            "catchResponse": -1,
            "catchTime": 1680672035875,
            "trialTime": 0
        },
        {
            "exptPart": "trial",
            "trialNumber": 51,
            "roleCurrent": "receiver",
            "marblesSampled": 100,
            "probRed": 0.5,
            "lambda": 5,
            "drawnRed": 65,
            "reportedRed": 73,
            "inferredRed": 45,
            "playerTrialScore": -20,
            "oppTrialScore": 0,
            "playerTotalScore": -274,
            "oppTotalScore": -190,
            "waitTime": 6195.77295844342,
            "responseTime": 1680672046657,
            "catchQuestion": "How many <b class=\"r\">red<\/b> marbles did you actually draw (before any changes)? ",
            "catchKey": -1,
            "catchResponse": -1,
            "catchTime": 1680672035875,
            "trialTime": 0
        },
        {
            "exptPart": "trial",
            "trialNumber": 52,
            "roleCurrent": "sender",
            "marblesSampled": 100,
            "probRed": 0.5,
            "lambda": 5,
            "drawnRed": 86,
            "reportedRed": 92,
            "inferredRed": 88,
            "playerTrialScore": 2,
            "oppTrialScore": -2,
            "playerTotalScore": -272,
            "oppTotalScore": -192,
            "waitTime": 2269.381644540208,
            "responseTime": 1680672059208,
            "catchQuestion": "How many <b class=\"r\">red<\/b> marbles did you actually draw (before any changes)? ",
            "catchKey": -1,
            "catchResponse": -1,
            "catchTime": 1680672035875,
            "trialTime": 0
        },
        {
            "exptPart": "trial",
            "trialNumber": 53,
            "roleCurrent": "receiver",
            "marblesSampled": 100,
            "probRed": 0.5,
            "lambda": 5,
            "drawnRed": 64,
            "reportedRed": 64,
            "inferredRed": 77,
            "playerTrialScore": -13,
            "oppTrialScore": 13,
            "playerTotalScore": -285,
            "oppTotalScore": -179,
            "waitTime": 5412.513049311355,
            "responseTime": 1680672068640,
            "catchQuestion": "How many <b class=\"r\">red<\/b> marbles did you actually draw (before any changes)? ",
            "catchKey": -1,
            "catchResponse": -1,
            "catchTime": 1680672035875,
            "trialTime": 0
        },
        {
            "exptPart": "trial",
            "trialNumber": 54,
            "roleCurrent": "sender",
            "marblesSampled": 100,
            "probRed": 0.5,
            "lambda": 5,
            "drawnRed": 66,
            "reportedRed": 75,
            "inferredRed": 70,
            "playerTrialScore": 4,
            "oppTrialScore": -4,
            "playerTotalScore": -281,
            "oppTotalScore": -183,
            "waitTime": 2588.1039675443426,
            "responseTime": 1680672082175,
            "catchQuestion": "How many <b class=\"r\">red<\/b> marbles did you actually draw (before any changes)? ",
            "catchKey": -1,
            "catchResponse": -1,
            "catchTime": 1680672035875,
            "trialTime": 0
        },
        {
            "exptPart": "trial",
            "trialNumber": 55,
            "roleCurrent": "receiver",
            "marblesSampled": 100,
            "probRed": 0.5,
            "lambda": 5,
            "drawnRed": 29,
            "reportedRed": 31,
            "inferredRed": 31,
            "playerTrialScore": -2,
            "oppTrialScore": 2,
            "playerTotalScore": -283,
            "oppTotalScore": -181,
            "waitTime": 6008.471891376695,
            "responseTime": 1680672090457,
            "catchQuestion": "How many <b class=\"r\">red<\/b> marbles did you actually draw (before any changes)? ",
            "catchKey": -1,
            "catchResponse": -1,
            "catchTime": 1680672090457,
            "trialTime": 0
        },
        {
            "exptPart": "trial",
            "trialNumber": 56,
            "roleCurrent": "sender",
            "marblesSampled": 100,
            "probRed": 0.5,
            "lambda": 5,
            "drawnRed": 43,
            "reportedRed": 59,
            "inferredRed": 51,
            "playerTrialScore": 8,
            "oppTrialScore": -8,
            "playerTotalScore": -275,
            "oppTotalScore": -189,
            "waitTime": 2515.1860562744937,
            "responseTime": 1680672108658,
            "catchQuestion": "How many <b class=\"r\">red<\/b> marbles did you actually draw (before any changes)? ",
            "catchKey": -1,
            "catchResponse": -1,
            "catchTime": 1680672090457,
            "trialTime": 0
        },
        {
            "exptPart": "trial",
            "trialNumber": 57,
            "roleCurrent": "receiver",
            "marblesSampled": 100,
            "probRed": 0.5,
            "lambda": 5,
            "drawnRed": 57,
            "reportedRed": 61,
            "inferredRed": 44,
            "playerTrialScore": -13,
            "oppTrialScore": 0,
            "playerTotalScore": -288,
            "oppTotalScore": -189,
            "waitTime": 5827.098841516779,
            "responseTime": 1680672117775,
            "catchQuestion": "How many <b class=\"r\">red<\/b> marbles did you actually draw (before any changes)? ",
            "catchKey": -1,
            "catchResponse": -1,
            "catchTime": 1680672090457,
            "trialTime": 0
        },
        {
            "exptPart": "trial",
            "trialNumber": 58,
            "roleCurrent": "sender",
            "marblesSampled": 100,
            "probRed": 0.5,
            "lambda": 5,
            "drawnRed": 41,
            "reportedRed": 39,
            "inferredRed": 34,
            "playerTrialScore": 0,
            "oppTrialScore": -7,
            "playerTotalScore": -288,
            "oppTotalScore": -196,
            "waitTime": 2225.966426453128,
            "responseTime": 1680672127893,
            "catchQuestion": "How many <b class=\"r\">red<\/b> marbles did you actually draw (before any changes)? ",
            "catchKey": -1,
            "catchResponse": -1,
            "catchTime": 1680672090457,
            "trialTime": 0
        },
        {
            "exptPart": "trial",
            "trialNumber": 59,
            "roleCurrent": "receiver",
            "marblesSampled": 100,
            "probRed": 0.5,
            "lambda": 5,
            "drawnRed": 35,
            "reportedRed": 39,
            "inferredRed": 38,
            "playerTrialScore": -3,
            "oppTrialScore": 3,
            "playerTotalScore": -291,
            "oppTotalScore": -193,
            "waitTime": 5363.150576411319,
            "responseTime": 1680672136939,
            "catchQuestion": "How many <b class=\"r\">red<\/b> marbles did you actually draw (before any changes)? ",
            "catchKey": -1,
            "catchResponse": -1,
            "catchTime": 1680672090457,
            "trialTime": 0
        },
        {
            "exptPart": "trial",
            "trialNumber": 60,
            "roleCurrent": "sender",
            "marblesSampled": 100,
            "probRed": 0.5,
            "lambda": 5,
            "drawnRed": 28,
            "reportedRed": 25,
            "inferredRed": 21,
            "playerTrialScore": 0,
            "oppTrialScore": -7,
            "playerTotalScore": -291,
            "oppTotalScore": -200,
            "waitTime": 3152.6475178035525,
            "responseTime": 1680672153124,
            "catchQuestion": "How many <b class=\"r\">red<\/b> marbles did you actually draw (before any changes)? ",
            "catchKey": -1,
            "catchResponse": -1,
            "catchTime": 1680672153124,
            "trialTime": 0
        },
        {
            "exptPart": "trial",
            "trialNumber": 61,
            "roleCurrent": "receiver",
            "marblesSampled": 100,
            "probRed": 0.5,
            "lambda": 5,
            "drawnRed": 28,
            "reportedRed": 30,
            "inferredRed": 22,
            "playerTrialScore": -6,
            "oppTrialScore": 0,
            "playerTotalScore": -297,
            "oppTotalScore": -200,
            "waitTime": 7181.503777332545,
            "responseTime": 1680672167325,
            "catchQuestion": "How many <b class=\"r\">red<\/b> marbles did you actually draw (before any changes)? ",
            "catchKey": -1,
            "catchResponse": -1,
            "catchTime": 1680672153124,
            "trialTime": 0
        },
        {
            "exptPart": "trial",
            "trialNumber": 62,
            "roleCurrent": "sender",
            "marblesSampled": 100,
            "probRed": 0.5,
            "lambda": 5,
            "drawnRed": 45,
            "reportedRed": 51,
            "inferredRed": 44,
            "playerTrialScore": 0,
            "oppTrialScore": -1,
            "playerTotalScore": -297,
            "oppTotalScore": -201,
            "waitTime": 3115.898059799006,
            "responseTime": 1680672186392,
            "catchQuestion": "How many <b class=\"r\">red<\/b> marbles did you actually draw (before any changes)? ",
            "catchKey": -1,
            "catchResponse": -1,
            "catchTime": 1680672153124,
            "trialTime": 0
        },
        {
            "exptPart": "trial",
            "trialNumber": 63,
            "roleCurrent": "receiver",
            "marblesSampled": 100,
            "probRed": 0.5,
            "lambda": 5,
            "drawnRed": 29,
            "reportedRed": 35,
            "inferredRed": 22,
            "playerTrialScore": -7,
            "oppTrialScore": 0,
            "playerTotalScore": -304,
            "oppTotalScore": -201,
            "waitTime": 6992.762449022126,
            "responseTime": 1680672196158,
            "catchQuestion": "How many <b class=\"r\">red<\/b> marbles did you actually draw (before any changes)? ",
            "catchKey": -1,
            "catchResponse": -1,
            "catchTime": 1680672153124,
            "trialTime": 0
        },
        {
            "exptPart": "trial",
            "trialNumber": 64,
            "roleCurrent": "sender",
            "marblesSampled": 100,
            "probRed": 0.5,
            "lambda": 5,
            "drawnRed": 22,
            "reportedRed": 20,
            "inferredRed": 17,
            "playerTrialScore": 0,
            "oppTrialScore": -5,
            "playerTotalScore": -304,
            "oppTotalScore": -206,
            "waitTime": 2794.876620389702,
            "responseTime": 1680672205491,
            "catchQuestion": "How many <b class=\"r\">red<\/b> marbles did you actually draw (before any changes)? ",
            "catchKey": -1,
            "catchResponse": -1,
            "catchTime": 1680672153124,
            "trialTime": 0
        },
        {
            "exptPart": "trial",
            "trialNumber": 65,
            "roleCurrent": "receiver",
            "marblesSampled": 100,
            "probRed": 0.5,
            "lambda": 5,
            "drawnRed": 50,
            "reportedRed": 59,
            "inferredRed": 45,
            "playerTrialScore": -5,
            "oppTrialScore": 0,
            "playerTotalScore": -309,
            "oppTotalScore": -206,
            "waitTime": 5960.439193995699,
            "responseTime": 1680672214557,
            "catchQuestion": "How many <b class=\"r\">red<\/b> marbles did you actually draw (before any changes)? ",
            "catchKey": -1,
            "catchResponse": -1,
            "catchTime": 1680672214557,
            "trialTime": 0
        },
        {
            "exptPart": "trial",
            "trialNumber": 66,
            "roleCurrent": "sender",
            "marblesSampled": 100,
            "probRed": 0.5,
            "lambda": 5,
            "drawnRed": 54,
            "reportedRed": 42,
            "inferredRed": 38,
            "playerTrialScore": 0,
            "oppTrialScore": -16,
            "playerTotalScore": -309,
            "oppTotalScore": -222,
            "waitTime": 2685.1257878812316,
            "responseTime": 1680672235625,
            "catchQuestion": "How many <b class=\"r\">red<\/b> marbles did you actually draw (before any changes)? ",
            "catchKey": -1,
            "catchResponse": -1,
            "catchTime": 1680672214557,
            "trialTime": 0
        },
        {
            "exptPart": "trial",
            "trialNumber": 67,
            "roleCurrent": "receiver",
            "marblesSampled": 100,
            "probRed": 0.5,
            "lambda": 5,
            "drawnRed": 41,
            "reportedRed": 50,
            "inferredRed": 66,
            "playerTrialScore": -25,
            "oppTrialScore": 25,
            "playerTotalScore": -334,
            "oppTotalScore": -197,
            "waitTime": 5779.335521507135,
            "responseTime": 1680672244658,
            "catchQuestion": "How many <b class=\"r\">red<\/b> marbles did you actually draw (before any changes)? ",
            "catchKey": -1,
            "catchResponse": -1,
            "catchTime": 1680672214557,
            "trialTime": 0
        },
        {
            "exptPart": "trial",
            "trialNumber": 68,
            "roleCurrent": "sender",
            "marblesSampled": 100,
            "probRed": 0.5,
            "lambda": 5,
            "drawnRed": 51,
            "reportedRed": 71,
            "inferredRed": 65,
            "playerTrialScore": 14,
            "oppTrialScore": -14,
            "playerTotalScore": -320,
            "oppTotalScore": -211,
            "waitTime": 3150.3649853271204,
            "responseTime": 1680672266975,
            "catchQuestion": "How many <b class=\"r\">red<\/b> marbles did you actually draw (before any changes)? ",
            "catchKey": -1,
            "catchResponse": -1,
            "catchTime": 1680672214557,
            "trialTime": 0
        },
        {
            "exptPart": "trial",
            "trialNumber": 69,
            "roleCurrent": "receiver",
            "marblesSampled": 100,
            "probRed": 0.5,
            "lambda": 5,
            "drawnRed": 9,
            "reportedRed": 18,
            "inferredRed": 44,
            "playerTrialScore": -35,
            "oppTrialScore": 35,
            "playerTotalScore": -355,
            "oppTotalScore": -176,
            "waitTime": 6381.55631426688,
            "responseTime": 1680672276342,
            "catchQuestion": "How many <b class=\"r\">red<\/b> marbles did you actually draw (before any changes)? ",
            "catchKey": -1,
            "catchResponse": -1,
            "catchTime": 1680672214557,
            "trialTime": 0
        },
        {
            "exptPart": "trial",
            "trialNumber": 70,
            "roleCurrent": "sender",
            "marblesSampled": 100,
            "probRed": 0.5,
            "lambda": 5,
            "drawnRed": 61,
            "reportedRed": 65,
            "inferredRed": 60,
            "playerTrialScore": 0,
            "oppTrialScore": -1,
            "playerTotalScore": -355,
            "oppTotalScore": -177,
            "waitTime": 2119.142618168795,
            "responseTime": 1680672289009,
            "catchQuestion": "How many <b class=\"r\">red<\/b> marbles did you actually draw (before any changes)? ",
            "catchKey": -1,
            "catchResponse": -1,
            "catchTime": 1680672289009,
            "trialTime": 0
        },
        {
            "exptPart": "trial",
            "trialNumber": 71,
            "roleCurrent": "receiver",
            "marblesSampled": 100,
            "probRed": 0.5,
            "lambda": 5,
            "drawnRed": 76,
            "reportedRed": 83,
            "inferredRed": 45,
            "playerTrialScore": -31,
            "oppTrialScore": 0,
            "playerTotalScore": -386,
            "oppTotalScore": -177,
            "waitTime": 5168.298516489938,
            "responseTime": 1680672300341,
            "catchQuestion": "How many <b class=\"r\">red<\/b> marbles did you actually draw (before any changes)? ",
            "catchKey": -1,
            "catchResponse": -1,
            "catchTime": 1680672289009,
            "trialTime": 0
        },
        {
            "exptPart": "trial",
            "trialNumber": 72,
            "roleCurrent": "sender",
            "marblesSampled": 100,
            "probRed": 0.5,
            "lambda": 5,
            "drawnRed": 52,
            "reportedRed": 62,
            "inferredRed": 57,
            "playerTrialScore": 5,
            "oppTrialScore": -5,
            "playerTotalScore": -381,
            "oppTotalScore": -182,
            "waitTime": 2805.936055172136,
            "responseTime": 1680672314126,
            "catchQuestion": "How many <b class=\"r\">red<\/b> marbles did you actually draw (before any changes)? ",
            "catchKey": -1,
            "catchResponse": -1,
            "catchTime": 1680672289009,
            "trialTime": 0
        },
        {
            "exptPart": "trial",
            "trialNumber": 73,
            "roleCurrent": "receiver",
            "marblesSampled": 100,
            "probRed": 0.5,
            "lambda": 5,
            "drawnRed": 39,
            "reportedRed": 45,
            "inferredRed": 43,
            "playerTrialScore": -4,
            "oppTrialScore": 4,
            "playerTotalScore": -385,
            "oppTotalScore": -178,
            "waitTime": 5712.002271549293,
            "responseTime": 1680672322543,
            "catchQuestion": "How many <b class=\"r\">red<\/b> marbles did you actually draw (before any changes)? ",
            "catchKey": -1,
            "catchResponse": -1,
            "catchTime": 1680672289009,
            "trialTime": 0
        },
        {
            "exptPart": "trial",
            "trialNumber": 74,
            "roleCurrent": "sender",
            "marblesSampled": 100,
            "probRed": 0.5,
            "lambda": 5,
            "drawnRed": 69,
            "reportedRed": 75,
            "inferredRed": 70,
            "playerTrialScore": 1,
            "oppTrialScore": -1,
            "playerTotalScore": -384,
            "oppTotalScore": -179,
            "waitTime": 2206.5528165358564,
            "responseTime": 1680672332393,
            "catchQuestion": "How many <b class=\"r\">red<\/b> marbles did you actually draw (before any changes)? ",
            "catchKey": -1,
            "catchResponse": -1,
            "catchTime": 1680672289009,
            "trialTime": 0
        },
        {
            "exptPart": "trial",
            "trialNumber": 75,
            "roleCurrent": "receiver",
            "marblesSampled": 100,
            "probRed": 0.5,
            "lambda": 5,
            "drawnRed": 78,
            "reportedRed": 85,
            "inferredRed": 34,
            "playerTrialScore": -44,
            "oppTrialScore": 0,
            "playerTotalScore": -428,
            "oppTotalScore": -179,
            "waitTime": 6167.653497126773,
            "responseTime": 1680672343308,
            "catchQuestion": "How many <b class=\"r\">red<\/b> marbles did your opponent report drawing? ",
            "catchKey": 85,
            "catchResponse": 85,
            "catchTime": 1680672343308,
            "trialTime": 0
        },
        {
            "exptPart": "trial",
            "trialNumber": 76,
            "roleCurrent": "sender",
            "marblesSampled": 100,
            "probRed": 0.5,
            "lambda": 5,
            "drawnRed": 68,
            "reportedRed": 75,
            "inferredRed": 70,
            "playerTrialScore": 2,
            "oppTrialScore": -2,
            "playerTotalScore": -426,
            "oppTotalScore": -181,
            "waitTime": 2740.797984091302,
            "responseTime": 1680672382193,
            "catchQuestion": "How many <b class=\"r\">red<\/b> marbles did your opponent report drawing? ",
            "catchKey": -1,
            "catchResponse": -1,
            "catchTime": 1680672343308,
            "trialTime": 0
        },
        {
            "exptPart": "trial",
            "trialNumber": 77,
            "roleCurrent": "receiver",
            "marblesSampled": 100,
            "probRed": 0.5,
            "lambda": 5,
            "drawnRed": 39,
            "reportedRed": 43,
            "inferredRed": 23,
            "playerTrialScore": -16,
            "oppTrialScore": 0,
            "playerTotalScore": -442,
            "oppTotalScore": -181,
            "waitTime": 5629.989241402964,
            "responseTime": 1680672408476,
            "catchQuestion": "How many <b class=\"r\">red<\/b> marbles did your opponent report drawing? ",
            "catchKey": -1,
            "catchResponse": -1,
            "catchTime": 1680672343308,
            "trialTime": 0
        },
        {
            "exptPart": "trial",
            "trialNumber": 78,
            "roleCurrent": "sender",
            "marblesSampled": 100,
            "probRed": 0.5,
            "lambda": 5,
            "drawnRed": 74,
            "reportedRed": 64,
            "inferredRed": 80,
            "playerTrialScore": 6,
            "oppTrialScore": -6,
            "playerTotalScore": -436,
            "oppTotalScore": -187,
            "waitTime": 2236.050619329887,
            "responseTime": 1680672450443,
            "catchQuestion": "How many <b class=\"r\">red<\/b> marbles did your opponent report drawing? ",
            "catchKey": -1,
            "catchResponse": -1,
            "catchTime": 1680672343308,
            "trialTime": 0
        },
        {
            "exptPart": "trial",
            "trialNumber": 79,
            "roleCurrent": "receiver",
            "marblesSampled": 100,
            "probRed": 0.5,
            "lambda": 5,
            "drawnRed": 57,
            "reportedRed": 59,
            "inferredRed": 34,
            "playerTrialScore": -23,
            "oppTrialScore": 0,
            "playerTotalScore": -459,
            "oppTotalScore": -187,
            "waitTime": 5959.968754116822,
            "responseTime": 1680672472612,
            "catchQuestion": "How many <b class=\"r\">red<\/b> marbles did your opponent report drawing? ",
            "catchKey": -1,
            "catchResponse": -1,
            "catchTime": 1680672343308,
            "trialTime": 0
        },
        {
            "exptPart": "trial",
            "trialNumber": 80,
            "roleCurrent": "sender",
            "marblesSampled": 100,
            "probRed": 0.5,
            "lambda": 5,
            "drawnRed": 23,
            "reportedRed": 28,
            "inferredRed": 44,
            "playerTrialScore": 21,
            "oppTrialScore": -21,
            "playerTotalScore": -438,
            "oppTotalScore": -208,
            "waitTime": 2534.894955431234,
            "responseTime": 1680672521594,
            "catchQuestion": "How many <b class=\"r\">red<\/b> marbles did your opponent report drawing? ",
            "catchKey": -1,
            "catchResponse": -1,
            "catchTime": 1680672521594,
            "trialTime": 0
        },
        {
            "exptPart": "trial",
            "trialNumber": 81,
            "roleCurrent": "receiver",
            "marblesSampled": 100,
            "probRed": 0.5,
            "lambda": 5,
            "drawnRed": 49,
            "reportedRed": 54,
            "inferredRed": 33,
            "playerTrialScore": -16,
            "oppTrialScore": 0,
            "playerTotalScore": -454,
            "oppTotalScore": -208,
            "waitTime": 5729.637417802505,
            "responseTime": 1680672534144,
            "catchQuestion": "How many <b class=\"r\">red<\/b> marbles did your opponent report drawing? ",
            "catchKey": 54,
            "catchResponse": 54,
            "catchTime": 1680672534145,
            "trialTime": 0
        },
        {
            "exptPart": "trial",
            "trialNumber": 82,
            "roleCurrent": "sender",
            "marblesSampled": 100,
            "probRed": 0.5,
            "lambda": 5,
            "drawnRed": 49,
            "reportedRed": 23,
            "inferredRed": 30,
            "playerTrialScore": 0,
            "oppTrialScore": -19,
            "playerTotalScore": -454,
            "oppTotalScore": -227,
            "waitTime": 2271.376050589959,
            "responseTime": 1680672638094,
            "catchQuestion": "How many <b class=\"r\">red<\/b> marbles did your opponent report drawing? ",
            "catchKey": -1,
            "catchResponse": -1,
            "catchTime": 1680672534145,
            "trialTime": 0
        },
        {
            "exptPart": "trial",
            "trialNumber": 83,
            "roleCurrent": "receiver",
            "marblesSampled": 100,
            "probRed": 0.5,
            "lambda": 5,
            "drawnRed": 39,
            "reportedRed": 42,
            "inferredRed": 33,
            "playerTrialScore": -6,
            "oppTrialScore": 0,
            "playerTotalScore": -460,
            "oppTotalScore": -227,
            "waitTime": 5413.716370357719,
            "responseTime": 1680672651261,
            "catchQuestion": "How many <b class=\"r\">red<\/b> marbles did your opponent report drawing? ",
            "catchKey": -1,
            "catchResponse": -1,
            "catchTime": 1680672534145,
            "trialTime": 0
        },
        {
            "exptPart": "trial",
            "trialNumber": 84,
            "roleCurrent": "sender",
            "marblesSampled": 100,
            "probRed": 0.5,
            "lambda": 5,
            "drawnRed": 48,
            "reportedRed": 48,
            "inferredRed": 39,
            "playerTrialScore": 0,
            "oppTrialScore": -9,
            "playerTotalScore": -460,
            "oppTotalScore": -236,
            "waitTime": 2942.5409042662322,
            "responseTime": 1680672693963,
            "catchQuestion": "How many <b class=\"r\">red<\/b> marbles did your opponent report drawing? ",
            "catchKey": -1,
            "catchResponse": -1,
            "catchTime": 1680672534145,
            "trialTime": 0
        },
        {
            "exptPart": "trial",
            "trialNumber": 85,
            "roleCurrent": "receiver",
            "marblesSampled": 100,
            "probRed": 0.5,
            "lambda": 5,
            "drawnRed": 44,
            "reportedRed": 48,
            "inferredRed": 78,
            "playerTrialScore": -34,
            "oppTrialScore": 34,
            "playerTotalScore": -494,
            "oppTotalScore": -202,
            "waitTime": 5432.841281428277,
            "responseTime": 1680672732944,
            "catchQuestion": "How many <b class=\"r\">red<\/b> marbles did your opponent report drawing? ",
            "catchKey": -1,
            "catchResponse": -1,
            "catchTime": 1680672732944,
            "trialTime": 0
        },
        {
            "exptPart": "trial",
            "trialNumber": 86,
            "roleCurrent": "sender",
            "marblesSampled": 100,
            "probRed": 0.5,
            "lambda": 5,
            "drawnRed": 34,
            "reportedRed": 24,
            "inferredRed": 25,
            "playerTrialScore": 0,
            "oppTrialScore": -9,
            "playerTotalScore": -494,
            "oppTotalScore": -211,
            "waitTime": 2331.5951814885443,
            "responseTime": 1680672804663,
            "catchQuestion": "How many <b class=\"r\">red<\/b> marbles did your opponent report drawing? ",
            "catchKey": -1,
            "catchResponse": -1,
            "catchTime": 1680672732944,
            "trialTime": 0
        },
        {
            "exptPart": "trial",
            "trialNumber": 87,
            "roleCurrent": "receiver",
            "marblesSampled": 100,
            "probRed": 0.5,
            "lambda": 5,
            "drawnRed": 47,
            "reportedRed": 55,
            "inferredRed": 67,
            "playerTrialScore": -20,
            "oppTrialScore": 20,
            "playerTotalScore": -514,
            "oppTotalScore": -191,
            "waitTime": 5498.5098808099265,
            "responseTime": 1680672822968,
            "catchQuestion": "How many <b class=\"r\">red<\/b> marbles did your opponent report drawing? ",
            "catchKey": -1,
            "catchResponse": -1,
            "catchTime": 1680672732944,
            "trialTime": 0
        },
        {
            "exptPart": "trial",
            "trialNumber": 88,
            "roleCurrent": "sender",
            "marblesSampled": 100,
            "probRed": 0.5,
            "lambda": 5,
            "drawnRed": 32,
            "reportedRed": 49,
            "inferredRed": 41,
            "playerTrialScore": 9,
            "oppTrialScore": -9,
            "playerTotalScore": -505,
            "oppTotalScore": -200,
            "waitTime": 2164.194794793182,
            "responseTime": 1680672888963,
            "catchQuestion": "How many <b class=\"r\">red<\/b> marbles did your opponent report drawing? ",
            "catchKey": -1,
            "catchResponse": -1,
            "catchTime": 1680672732944,
            "trialTime": 0
        },
        {
            "exptPart": "trial",
            "trialNumber": 89,
            "roleCurrent": "receiver",
            "marblesSampled": 100,
            "probRed": 0.5,
            "lambda": 5,
            "drawnRed": 46,
            "reportedRed": 50,
            "inferredRed": 22,
            "playerTrialScore": -24,
            "oppTrialScore": 0,
            "playerTotalScore": -529,
            "oppTotalScore": -200,
            "waitTime": 6263.337190417168,
            "responseTime": 1680672935529,
            "catchQuestion": "How many <b class=\"r\">red<\/b> marbles did your opponent report drawing? ",
            "catchKey": 50,
            "catchResponse": 50,
            "catchTime": 1680672935529,
            "trialTime": 0
        },
        {
            "exptPart": "trial",
            "trialNumber": 90,
            "roleCurrent": "sender",
            "marblesSampled": 100,
            "probRed": 0.5,
            "lambda": 5,
            "drawnRed": 39,
            "reportedRed": 43,
            "inferredRed": 53,
            "playerTrialScore": 14,
            "oppTrialScore": -14,
            "playerTotalScore": -515,
            "oppTotalScore": -214,
            "waitTime": 2089.008323961345,
            "responseTime": 1680673021714,
            "catchQuestion": "How many <b class=\"r\">red<\/b> marbles did your opponent report drawing? ",
            "catchKey": -1,
            "catchResponse": -1,
            "catchTime": 1680673021714,
            "trialTime": 0
        },
        {
            "exptPart": "trial",
            "trialNumber": 91,
            "roleCurrent": "receiver",
            "marblesSampled": 100,
            "probRed": 0.5,
            "lambda": 5,
            "drawnRed": 37,
            "reportedRed": 40,
            "inferredRed": 33,
            "playerTrialScore": -4,
            "oppTrialScore": 0,
            "playerTotalScore": -519,
            "oppTotalScore": -214,
            "waitTime": 5894.097139965383,
            "responseTime": 1680673040897,
            "catchQuestion": "How many <b class=\"r\">red<\/b> marbles did your opponent report drawing? ",
            "catchKey": -1,
            "catchResponse": -1,
            "catchTime": 1680673021714,
            "trialTime": 0
        },
        {
            "exptPart": "trial",
            "trialNumber": 92,
            "roleCurrent": "sender",
            "marblesSampled": 100,
            "probRed": 0.5,
            "lambda": 5,
            "drawnRed": 70,
            "reportedRed": 63,
            "inferredRed": 57,
            "playerTrialScore": 0,
            "oppTrialScore": -13,
            "playerTotalScore": -519,
            "oppTotalScore": -227,
            "waitTime": 2110.2517582310475,
            "responseTime": 1680673151431,
            "catchQuestion": "How many <b class=\"r\">red<\/b> marbles did your opponent report drawing? ",
            "catchKey": -1,
            "catchResponse": -1,
            "catchTime": 1680673021714,
            "trialTime": 0
        },
        {
            "exptPart": "trial",
            "trialNumber": 93,
            "roleCurrent": "receiver",
            "marblesSampled": 100,
            "probRed": 0.5,
            "lambda": 5,
            "drawnRed": 40,
            "reportedRed": 46,
            "inferredRed": 43,
            "playerTrialScore": -3,
            "oppTrialScore": 3,
            "playerTotalScore": -522,
            "oppTotalScore": -224,
            "waitTime": 6034.378256164821,
            "responseTime": 1680673299615,
            "catchQuestion": "How many <b class=\"r\">red<\/b> marbles did your opponent report drawing? ",
            "catchKey": -1,
            "catchResponse": -1,
            "catchTime": 1680673021714,
            "trialTime": 0
        },
        {
            "exptPart": "trial",
            "trialNumber": 94,
            "roleCurrent": "sender",
            "marblesSampled": 100,
            "probRed": 0.5,
            "lambda": 5,
            "drawnRed": 58,
            "reportedRed": 60,
            "inferredRed": 42,
            "playerTrialScore": 0,
            "oppTrialScore": -16,
            "playerTotalScore": -522,
            "oppTotalScore": -240,
            "waitTime": 2622.1397384710554,
            "responseTime": 1680673341899,
            "catchQuestion": "How many <b class=\"r\">red<\/b> marbles did your opponent report drawing? ",
            "catchKey": -1,
            "catchResponse": -1,
            "catchTime": 1680673021714,
            "trialTime": 0
        },
        {
            "exptPart": "trial",
            "trialNumber": 95,
            "roleCurrent": "receiver",
            "marblesSampled": 100,
            "probRed": 0.5,
            "lambda": 5,
            "drawnRed": 24,
            "reportedRed": 32,
            "inferredRed": 56,
            "playerTrialScore": -32,
            "oppTrialScore": 32,
            "playerTotalScore": -554,
            "oppTotalScore": -208,
            "waitTime": 5305.291952410487,
            "responseTime": 1680673433366,
            "catchQuestion": "How many <b class=\"r\">red<\/b> marbles did your opponent report drawing? ",
            "catchKey": 32,
            "catchResponse": 32,
            "catchTime": 1680673433366,
            "trialTime": 0
        },
        {
            "exptPart": "trial",
            "trialNumber": 96,
            "roleCurrent": "sender",
            "marblesSampled": 100,
            "probRed": 0.5,
            "lambda": 5,
            "drawnRed": 83,
            "reportedRed": 95,
            "inferredRed": 74,
            "playerTrialScore": 0,
            "oppTrialScore": -9,
            "playerTotalScore": -554,
            "oppTotalScore": -217,
            "waitTime": 2122.4180823026722,
            "responseTime": 1680673467650,
            "catchQuestion": "How many <b class=\"r\">red<\/b> marbles did you actually draw (before any changes)? ",
            "catchKey": 83,
            "catchResponse": 83,
            "catchTime": 1680673467650,
            "trialTime": 0
        },
        {
            "exptPart": "trial",
            "trialNumber": 97,
            "roleCurrent": "receiver",
            "marblesSampled": 100,
            "probRed": 0.5,
            "lambda": 5,
            "drawnRed": 41,
            "reportedRed": 48,
            "inferredRed": 32,
            "playerTrialScore": -9,
            "oppTrialScore": 0,
            "playerTotalScore": -563,
            "oppTotalScore": -217,
            "waitTime": 6408.955020437843,
            "responseTime": 1680673482451,
            "catchQuestion": "How many <b class=\"r\">red<\/b> marbles did you actually draw (before any changes)? ",
            "catchKey": -1,
            "catchResponse": -1,
            "catchTime": 1680673467650,
            "trialTime": 0
        },
        {
            "exptPart": "trial",
            "trialNumber": 98,
            "roleCurrent": "sender",
            "marblesSampled": 100,
            "probRed": 0.5,
            "lambda": 5,
            "drawnRed": 65,
            "reportedRed": 63,
            "inferredRed": 52,
            "playerTrialScore": 0,
            "oppTrialScore": -13,
            "playerTotalScore": -563,
            "oppTotalScore": -230,
            "waitTime": 2850.2476502274976,
            "responseTime": 1680673523351,
            "catchQuestion": "How many <b class=\"r\">red<\/b> marbles did you actually draw (before any changes)? ",
            "catchKey": -1,
            "catchResponse": -1,
            "catchTime": 1680673467650,
            "trialTime": 0
        },
        {
            "exptPart": "trial",
            "trialNumber": 99,
            "roleCurrent": "receiver",
            "marblesSampled": 100,
            "probRed": 0.5,
            "lambda": 5,
            "drawnRed": 42,
            "reportedRed": 47,
            "inferredRed": 47,
            "playerTrialScore": -5,
            "oppTrialScore": 5,
            "playerTotalScore": -568,
            "oppTotalScore": -225,
            "waitTime": 6638.263973459348,
            "responseTime": 1680673535525,
            "catchQuestion": "How many <b class=\"r\">red<\/b> marbles did you actually draw (before any changes)? ",
            "catchKey": -1,
            "catchResponse": -1,
            "catchTime": 1680673467650,
            "trialTime": 0
        },
        {
            "exptPart": "trial",
            "trialNumber": 100,
            "roleCurrent": "sender",
            "marblesSampled": 100,
            "probRed": 0.5,
            "lambda": 5,
            "drawnRed": 35,
            "reportedRed": 35,
            "inferredRed": 30,
            "playerTrialScore": 0,
            "oppTrialScore": -5,
            "playerTotalScore": -568,
            "oppTotalScore": -230,
            "waitTime": 2267.0605202137567,
            "responseTime": 1680673604802,
            "catchQuestion": "How many <b class=\"r\">red<\/b> marbles did you actually draw (before any changes)? ",
            "catchKey": 35,
            "catchResponse": 54,
            "catchTime": 1680673604802,
            "trialTime": 0
        }
    ]
}