subjID,cost,goal,exptPart,trialNumber,roleCurrent,marblesSampled,probRed,lambda,k,ksay,kest,playerTrialScore,oppTrialScore,playerTotalScore,oppTotalScore,waitTime,responseTime,catchQuestion,catchKey,catchResponse,catchTime,trialTime,accuracy
sona-33494,unif,over,trial,1,receiver,100,0.5,5,29,34,29,0,0,0,0,6165.719139570623,1680660045878,"How many <b class=""r"">red</b> marbles did your opponent report drawing?",-1,-1,1680660004303,0,0.9166666666666666
sona-33494,unif,over,trial,3,receiver,100,0.5,5,22,30,26,-4,4,1,-1,7005.246227077672,1680660102611,"How many <b class=""r"">red</b> marbles did you actually draw (before any changes)?",-1,-1,1680660077258,0,0.9166666666666666
sona-33494,unif,over,trial,5,receiver,100,0.5,5,83,87,62,-21,0,-20,-2,6906.246642649251,1680660148900,"How many <b class=""r"">red</b> marbles did you actually draw (before any changes)?",-1,-1,1680660148900,0,0.9166666666666666
sona-33494,unif,over,trial,7,receiver,100,0.5,5,30,33,22,-8,0,2,-32,6076.114132712424,1680660218021,"How many <b class=""r"">red</b> marbles did you actually draw (before any changes)?",-1,-1,1680660148900,0,0.9166666666666666
sona-33494,unif,over,trial,9,receiver,100,0.5,5,26,29,21,-5,0,14,-49,6479.346108384645,1680660290228,"How many <b class=""r"">red</b> marbles did you actually draw (before any changes)?",-1,-1,1680660148900,0,0.9166666666666666
sona-33494,unif,over,trial,11,receiver,100,0.5,5,82,87,62,-20,0,-6,-69,5275.040962280285,1680660340770,"How many <b class=""r"">red</b> marbles did you actually draw (before any changes)?",-1,-1,1680660323766,0,0.9166666666666666
sona-33494,unif,over,trial,13,receiver,100,0.5,5,8,16,16,-8,8,-4,-71,7000.692794412642,1680660421342,"How many <b class=""r"">red</b> marbles did you actually draw (before any changes)?",-1,-1,1680660323766,0,0.9166666666666666
sona-33494,unif,over,trial,15,receiver,100,0.5,5,54,60,44,-10,0,-14,-72,6848.10720708753,1680660456893,"How many <b class=""r"">red</b> marbles did you actually draw (before any changes)?",-1,-1,1680660456894,0,0.9166666666666666
sona-33494,unif,over,trial,17,receiver,100,0.5,5,82,86,55,-27,0,-31,-82,5229.2365252954005,1680660526631,"How many <b class=""r"">red</b> marbles did you actually draw (before any changes)?",-1,-1,1680660494550,0,0.9166666666666666
sona-33494,unif,over,trial,19,receiver,100,0.5,5,17,20,14,-3,0,-14,-102,6679.740244595357,1680660582677,"How many <b class=""r"">red</b> marbles did you actually draw (before any changes)?",-1,-1,1680660494550,0,0.9166666666666666
sona-33494,unif,over,trial,21,receiver,100,0.5,5,62,67,52,-10,0,5,-131,6070.82958754752,1680660637343,"How many <b class=""r"">red</b> marbles did you actually draw (before any changes)?",-1,-1,1680660619622,0,0.9166666666666666
sona-33494,unif,over,trial,23,receiver,100,0.5,5,66,73,64,-2,0,22,-150,6295.539460805763,1680660688413,"How many <b class=""r"">red</b> marbles did you actually draw (before any changes)?",-1,-1,1680660619622,0,0.9166666666666666
sona-33494,unif,over,trial,25,receiver,100,0.5,5,48,51,37,-11,0,26,-165,6136.964516282724,1680660724388,"How many <b class=""r"">red</b> marbles did you actually draw (before any changes)?",-1,-1,1680660724389,0,0.9166666666666666
sona-33494,unif,over,trial,27,receiver,100,0.5,5,35,40,28,-7,0,32,-178,7437.654189425817,1680660804489,"How many <b class=""r"">red</b> marbles did you actually draw (before any changes)?",-1,-1,1680660724389,0,0.9166666666666666
sona-33494,unif,over,trial,29,receiver,100,0.5,5,53,57,42,-11,0,31,-188,5690.712878208739,1680660846599,"How many <b class=""r"">red</b> marbles did you actually draw (before any changes)?",-1,-1,1680660724389,0,0.9166666666666666
sona-33494,unif,over,trial,31,receiver,100,0.5,5,82,87,58,-24,0,19,-200,6459.81992299673,1680660906016,"How many <b class=""r"">red</b> marbles did you actually draw (before any changes)?",-1,-1,1680660870878,0,0.9166666666666666
sona-33494,unif,over,trial,33,receiver,100,0.5,5,42,47,36,-6,0,31,-218,5715.5917312183865,1680660964589,"How many <b class=""r"">red</b> marbles did you actually draw (before any changes)?",-1,-1,1680660870878,0,0.9166666666666666
sona-33494,unif,over,trial,35,receiver,100,0.5,5,23,27,19,-4,0,42,-233,6989.294268264768,1680661023466,"How many <b class=""r"">red</b> marbles did you actually draw (before any changes)?",-1,-1,1680661023466,0,0.9166666666666666
sona-33494,unif,over,trial,37,receiver,100,0.5,5,57,61,49,-8,0,46,-245,6398.629523010857,1680661083090,"How many <b class=""r"">red</b> marbles did you actually draw (before any changes)?",-1,-1,1680661023466,0,0.9166666666666666
sona-33494,unif,over,trial,39,receiver,100,0.5,5,21,28,17,-4,0,51,-254,6916.3999516170115,1680661145905,"How many <b class=""r"">red</b> marbles did you actually draw (before any changes)?",-1,-1,1680661023466,0,0.9166666666666666
sona-33494,unif,over,trial,41,receiver,100,0.5,5,32,35,28,-4,0,55,-262,7340.657868706882,1680661236553,"How many <b class=""r"">red</b> marbles did you actually draw (before any changes)?",-1,-1,1680661215630,0,0.9166666666666666
sona-33494,unif,over,trial,43,receiver,100,0.5,5,72,77,57,-15,0,47,-269,5168.240360963246,1680661284500,"How many <b class=""r"">red</b> marbles did you actually draw (before any changes)?",-1,-1,1680661215630,0,0.9166666666666666
sona-33494,unif,over,trial,45,receiver,100,0.5,5,49,56,46,-3,0,61,-286,5725.582439841091,1680661334639,"How many <b class=""r"">red</b> marbles did you actually draw (before any changes)?",-1,-1,1680661334639,0,0.9166666666666666
sona-33494,unif,over,trial,47,receiver,100,0.5,5,68,73,55,-13,0,55,-293,5445.1334499794175,1680661373043,"How many <b class=""r"">red</b> marbles did your opponent report drawing?",73,73,1680661373044,0,0.9166666666666666
sona-33494,unif,over,trial,49,receiver,100,0.5,5,55,68,56,-1,1,57,-295,6783.653964829677,1680661428188,"How many <b class=""r"">red</b> marbles did your opponent report drawing?",-1,-1,1680661373044,0,0.9166666666666666
sona-33494,unif,over,trial,51,receiver,100,0.5,5,25,33,22,-3,0,68,-309,5493.009004192835,1680661477060,"How many <b class=""r"">red</b> marbles did your opponent report drawing?",33,33,1680661477060,0,0.9166666666666666
sona-33494,unif,over,trial,53,receiver,100,0.5,5,48,51,34,-14,0,62,-317,6395.196288663581,1680661519897,"How many <b class=""r"">red</b> marbles did your opponent report drawing?",-1,-1,1680661477060,0,0.9166666666666666
sona-33494,unif,over,trial,55,receiver,100,0.5,5,33,43,32,-1,0,87,-343,7107.224964548088,1680661572936,"How many <b class=""r"">red</b> marbles did your opponent report drawing?",-1,-1,1680661572936,0,0.9166666666666666
sona-33494,unif,over,trial,57,receiver,100,0.5,5,68,72,59,-9,0,108,-373,5540.0195930990985,1680661630824,"How many <b class=""r"">red</b> marbles did your opponent report drawing?",72,72,1680661630825,0,0.9166666666666666
sona-33494,unif,over,trial,59,receiver,100,0.5,5,72,78,45,-27,0,97,-389,7277.1574876759405,1680661687633,"How many <b class=""r"">red</b> marbles did your opponent report drawing?",-1,-1,1680661630825,0,0.9166666666666666
sona-33494,unif,over,trial,61,receiver,100,0.5,5,68,78,60,-8,0,89,-389,5953.485182962848,1680661733305,"How many <b class=""r"">red</b> marbles did your opponent report drawing?",78,78,1680661733305,0,0.9166666666666666
sona-33494,unif,over,trial,63,receiver,100,0.5,5,48,53,42,-6,0,91,-397,6571.041093902605,1680661786687,"How many <b class=""r"">red</b> marbles did your opponent report drawing?",-1,-1,1680661733305,0,0.9166666666666666
sona-33494,unif,over,trial,65,receiver,100,0.5,5,50,55,34,-16,0,92,-414,5597.514144205055,1680661823755,"How many <b class=""r"">red</b> marbles did your opponent report drawing?",-1,-1,1680661823756,0,0.9166666666666666
sona-33494,unif,over,trial,67,receiver,100,0.5,5,51,53,39,-12,0,96,-430,6459.037347804962,1680661881210,"How many <b class=""r"">red</b> marbles did your opponent report drawing?",53,53,1680661881210,0,0.9166666666666666
sona-33494,unif,over,trial,69,receiver,100,0.5,5,46,52,45,-1,0,103,-438,6573.875492111176,1680661929940,"How many <b class=""r"">red</b> marbles did your opponent report drawing?",-1,-1,1680661881210,0,0.9166666666666666
sona-33494,unif,over,trial,71,receiver,100,0.5,5,41,44,35,-6,0,113,-454,6905.306762630511,1680661986019,"How many <b class=""r"">red</b> marbles did your opponent report drawing?",-1,-1,1680661965606,0,0.9166666666666666
sona-33494,unif,over,trial,73,receiver,100,0.5,5,68,71,44,-24,0,117,-482,6269.282557343626,1680662043796,"How many <b class=""r"">red</b> marbles did your opponent report drawing?",-1,-1,1680661965606,0,0.9166666666666666
sona-33494,unif,over,trial,75,receiver,100,0.5,5,61,63,47,-14,0,120,-499,6042.994006536541,1680662103370,"How many <b class=""r"">red</b> marbles did your opponent report drawing?",63,63,1680662103370,0,0.9166666666666666
sona-33494,unif,over,trial,77,receiver,100,0.5,5,39,45,35,-4,0,131,-514,5482.425465240637,1680662150857,"How many <b class=""r"">red</b> marbles did your opponent report drawing?",-1,-1,1680662103370,0,0.9166666666666666
sona-33494,unif,over,trial,79,receiver,100,0.5,5,72,82,63,-9,0,155,-547,6665.44028180375,1680662194836,"How many <b class=""r"">red</b> marbles did your opponent report drawing?",-1,-1,1680662103370,0,0.9166666666666666
sona-33494,unif,over,trial,81,receiver,100,0.5,5,50,53,37,-13,0,158,-563,7068.545777014175,1680662241693,"How many <b class=""r"">red</b> marbles did your opponent report drawing?",53,53,1680662241693,0,0.9166666666666666
sona-33494,unif,over,trial,83,receiver,100,0.5,5,67,73,38,-29,0,162,-596,5935.68086178342,1680662296110,"How many <b class=""r"">red</b> marbles did your opponent report drawing?",-1,-1,1680662241693,0,0.9166666666666666
sona-33494,unif,over,trial,85,receiver,100,0.5,5,17,22,12,-5,0,207,-646,5204.1927602689575,1680662355516,"How many <b class=""r"">red</b> marbles did your opponent report drawing?",22,22,1680662355516,0,0.9166666666666666
sona-33494,unif,over,trial,87,receiver,100,0.5,5,52,61,40,-12,0,228,-679,6742.712270927655,1680662407935,"How many <b class=""r"">red</b> marbles did your opponent report drawing?",-1,-1,1680662355516,0,0.9166666666666666
sona-33494,unif,over,trial,89,receiver,100,0.5,5,15,20,11,-4,0,245,-700,5638.453895718554,1680662440077,"How many <b class=""r"">red</b> marbles did your opponent report drawing?",-1,-1,1680662355516,0,0.9166666666666666
sona-33494,unif,over,trial,91,receiver,100,0.5,5,57,63,48,-9,0,248,-712,7397.785554334538,1680662490448,"How many <b class=""r"">red</b> marbles did your opponent report drawing?",-1,-1,1680662467663,0,0.9166666666666666
sona-33494,unif,over,trial,93,receiver,100,0.5,5,16,23,13,-3,0,280,-747,7152.607229587566,1680662539438,"How many <b class=""r"">red</b> marbles did your opponent report drawing?",-1,-1,1680662467663,0,0.9166666666666666
sona-33494,unif,over,trial,95,receiver,100,0.5,5,28,31,14,-14,0,316,-797,6395.137938304263,1680662590937,"How many <b class=""r"">red</b> marbles did your opponent report drawing?",-1,-1,1680662590937,0,0.9166666666666666
sona-33494,unif,over,trial,97,receiver,100,0.5,5,51,58,47,-4,0,331,-816,6225.4949143214835,1680662634778,"How many <b class=""r"">red</b> marbles did your opponent report drawing?",-1,-1,1680662590937,0,0.9166666666666666
sona-33494,unif,over,trial,99,receiver,100,0.5,5,58,64,51,-7,0,349,-841,6844.310327779593,1680662679182,"How many <b class=""r"">red</b> marbles did your opponent report drawing?",-1,-1,1680662590937,0,0.9166666666666666
sona-48135,unif,under,trial,1,receiver,100,0.5,5,68,61,61,-7,7,-7,7,6807.947162074332,1680628042460,"How many <b class=""r"">red</b> marbles did your opponent report drawing?",-1,-1,1680627998850,0,0.9166666666666666
sona-48135,unif,under,trial,3,receiver,100,0.5,5,63,54,54,-9,9,-16,1,7298.955650892267,1680628102367,"How many <b class=""r"">red</b> marbles did your opponent report drawing?",-1,-1,1680627998850,0,0.9166666666666666
sona-48135,unif,under,trial,5,receiver,100,0.5,5,42,37,35,-7,7,-23,4,6097.1739628741025,1680628170716,"How many <b class=""r"">red</b> marbles did your opponent report drawing?",-1,-1,1680628170716,0,0.9166666666666666
sona-48135,unif,under,trial,7,receiver,100,0.5,5,38,34,37,-1,1,-24,0,5566.342250632322,1680628217590,"How many <b class=""r"">red</b> marbles did your opponent report drawing?",-1,-1,1680628170716,0,0.9166666666666666
sona-48135,unif,under,trial,9,receiver,100,0.5,5,27,19,20,-7,7,-31,4,7385.177158687563,1680628289934,"How many <b class=""r"">red</b> marbles did your opponent report drawing?",-1,-1,1680628170716,0,0.9166666666666666
sona-48135,unif,under,trial,11,receiver,100,0.5,5,66,61,53,-13,13,-42,15,5351.631369974861,1680628380409,"How many <b class=""r"">red</b> marbles did your opponent report drawing?",-1,-1,1680628341082,0,0.9166666666666666
sona-48135,unif,under,trial,13,receiver,100,0.5,5,6,4,10,-4,0,-46,-7,5463.385650045782,1680628436693,"How many <b class=""r"">red</b> marbles did your opponent report drawing?",-1,-1,1680628341082,0,0.9166666666666666
sona-48135,unif,under,trial,15,receiver,100,0.5,5,54,48,55,-1,0,-47,-11,5129.295841916122,1680628462668,"How many <b class=""r"">red</b> marbles did your opponent report drawing?",-1,-1,1680628462668,0,0.9166666666666666
sona-48135,unif,under,trial,17,receiver,100,0.5,5,73,67,50,-23,23,-70,-24,6289.807808157566,1680628521193,"How many <b class=""r"">red</b> marbles did your opponent report drawing?",-1,-1,1680628462668,0,0.9166666666666666
sona-48135,unif,under,trial,19,receiver,100,0.5,5,60,52,53,-7,7,-77,-20,5729.542980069949,1680628545517,"How many <b class=""r"">red</b> marbles did your opponent report drawing?",52,53,1680628545517,0,0.9166666666666666
sona-48135,unif,under,trial,21,receiver,100,0.5,5,38,36,37,-1,1,-73,-24,5387.562038184831,1680628645291,"How many <b class=""r"">red</b> marbles did your opponent report drawing?",-1,-1,1680628594440,0,0.9166666666666666
sona-48135,unif,under,trial,23,receiver,100,0.5,5,41,32,30,-11,11,-75,-22,5568.215451569901,1680628706400,"How many <b class=""r"">red</b> marbles did your opponent report drawing?",-1,-1,1680628594440,0,0.9166666666666666
sona-48135,unif,under,trial,25,receiver,100,0.5,5,47,42,30,-17,17,-92,-9,5511.9494862591055,1680628731175,"How many <b class=""r"">red</b> marbles did your opponent report drawing?",42,42,1680628731175,0,0.9166666666666666
sona-48135,unif,under,trial,27,receiver,100,0.5,5,31,28,32,-1,0,-89,-13,5909.082409799717,1680628798789,"How many <b class=""r"">red</b> marbles did your opponent report drawing?",-1,-1,1680628731175,0,0.9166666666666666
sona-48135,unif,under,trial,29,receiver,100,0.5,5,16,10,5,-11,11,-100,-62,5134.855286177724,1680628868466,"How many <b class=""r"">red</b> marbles did your opponent report drawing?",-1,-1,1680628731175,0,0.9166666666666666
sona-48135,unif,under,trial,31,receiver,100,0.5,5,64,60,42,-22,22,-122,-48,5227.6091709416705,1680628922186,"How many <b class=""r"">red</b> marbles did your opponent report drawing?",-1,-1,1680628892526,0,0.9166666666666666
sona-48135,unif,under,trial,33,receiver,100,0.5,5,45,37,42,-3,3,-120,-50,5690.788219021364,1680628965814,"How many <b class=""r"">red</b> marbles did you actually draw (before any changes)?",-1,-1,1680628938153,0,0.9166666666666666
sona-48135,unif,under,trial,35,receiver,100,0.5,5,20,18,20,0,0,-120,-56,6726.071841260611,1680628989533,"How many <b class=""r"">red</b> marbles did you actually draw (before any changes)?",-1,-1,1680628989533,0,0.9166666666666666
sona-48135,unif,under,trial,37,receiver,100,0.5,5,38,33,32,-6,6,-126,-66,5265.9489531276595,1680629046118,"How many <b class=""r"">red</b> marbles did you actually draw (before any changes)?",-1,-1,1680629022760,0,0.9166666666666666
sona-48135,unif,under,trial,39,receiver,100,0.5,5,60,53,48,-12,12,-138,-65,5593.047466882932,1680629085659,"How many <b class=""r"">red</b> marbles did you actually draw (before any changes)?",-1,-1,1680629022760,0,0.9166666666666666
sona-48135,unif,under,trial,41,receiver,100,0.5,5,28,25,27,-1,1,-137,-66,5780.5700648508755,1680629155901,"How many <b class=""r"">red</b> marbles did you actually draw (before any changes)?",-1,-1,1680629110504,0,0.9166666666666666
sona-48135,unif,under,trial,43,receiver,100,0.5,5,66,62,62,-4,4,-141,-68,5834.000734708451,1680629178841,"How many <b class=""r"">red</b> marbles did you actually draw (before any changes)?",-1,-1,1680629110504,0,0.9166666666666666
sona-48135,unif,under,trial,45,receiver,100,0.5,5,78,75,63,-15,15,-156,-76,5480.1515141669115,1680629223225,"How many <b class=""r"">red</b> marbles did you actually draw (before any changes)?",-1,-1,1680629223225,0,0.9166666666666666
sona-48135,unif,under,trial,47,receiver,100,0.5,5,81,75,64,-17,17,-171,-61,6929.739748737373,1680629286866,"How many <b class=""r"">red</b> marbles did you actually draw (before any changes)?",-1,-1,1680629223225,0,0.9166666666666666
sona-48135,unif,under,trial,49,receiver,100,0.5,5,65,60,60,-5,5,-170,-62,5508.105101398339,1680629320448,"How many <b class=""r"">red</b> marbles did you actually draw (before any changes)?",-1,-1,1680629304967,0,0.9166666666666666
sona-48135,unif,under,trial,51,receiver,100,0.5,5,89,86,53,-36,36,-206,-26,5158.198287462663,1680629372986,"How many <b class=""r"">red</b> marbles did you actually draw (before any changes)?",-1,-1,1680629333623,0,0.9166666666666666
sona-48135,unif,under,trial,53,receiver,100,0.5,5,65,60,56,-9,9,-215,-42,7239.731491564818,1680629427945,"How many <b class=""r"">red</b> marbles did you actually draw (before any changes)?",-1,-1,1680629333623,0,0.9166666666666666
sona-48135,unif,under,trial,55,receiver,100,0.5,5,44,37,37,-7,7,-222,-43,6530.967242795605,1680629472018,"How many <b class=""r"">red</b> marbles did you actually draw (before any changes)?",-1,-1,1680629472018,0,0.9166666666666666
sona-48135,unif,under,trial,57,receiver,100,0.5,5,31,28,30,-1,1,-223,-44,6452.663907175972,1680629518174,"How many <b class=""r"">red</b> marbles did you actually draw (before any changes)?",-1,-1,1680629472018,0,0.9166666666666666
sona-48135,unif,under,trial,59,receiver,100,0.5,5,58,54,70,-12,0,-235,-47,5292.502267564835,1680629566437,"How many <b class=""r"">red</b> marbles did you actually draw (before any changes)?",-1,-1,1680629472018,0,0.9166666666666666
sona-48135,unif,under,trial,61,receiver,100,0.5,5,32,27,30,-2,2,-237,-50,6894.286008070155,1680629602759,"How many <b class=""r"">red</b> marbles did you actually draw (before any changes)?",-1,-1,1680629575290,0,0.9166666666666666
sona-48135,unif,under,trial,63,receiver,100,0.5,5,77,73,67,-10,10,-247,-40,5313.631682572763,1680629639709,"How many <b class=""r"">red</b> marbles did you actually draw (before any changes)?",-1,-1,1680629575290,0,0.9166666666666666
sona-48135,unif,under,trial,65,receiver,100,0.5,5,40,35,32,-8,8,-255,-36,6669.318373896818,1680629674807,"How many <b class=""r"">red</b> marbles did you actually draw (before any changes)?",-1,-1,1680629674807,0,0.9166666666666666
sona-48135,unif,under,trial,67,receiver,100,0.5,5,76,71,68,-8,8,-263,-28,6929.194962871594,1680629745277,"How many <b class=""r"">red</b> marbles did you actually draw (before any changes)?",-1,-1,1680629674807,0,0.9166666666666666
sona-48135,unif,under,trial,69,receiver,100,0.5,5,41,35,69,-28,0,-291,-51,6421.8255762602985,1680629789964,"How many <b class=""r"">red</b> marbles did you actually draw (before any changes)?",-1,-1,1680629674807,0,0.9166666666666666
sona-48135,unif,under,trial,71,receiver,100,0.5,5,58,54,56,-2,2,-279,-63,6981.862575221987,1680629850435,"How many <b class=""r"">red</b> marbles did you actually draw (before any changes)?",-1,-1,1680629821662,0,0.9166666666666666
sona-48135,unif,under,trial,73,receiver,100,0.5,5,49,40,40,-9,9,-288,-62,5521.005537768495,1680629896691,"How many <b class=""r"">red</b> marbles did you actually draw (before any changes)?",-1,-1,1680629867905,0,0.9166666666666666
sona-48135,unif,under,trial,75,receiver,100,0.5,5,58,54,57,-1,1,-281,-69,6186.79582642758,1680629941911,"How many <b class=""r"">red</b> marbles did you actually draw (before any changes)?",-1,-1,1680629941911,0,0.9166666666666666
sona-48135,unif,under,trial,77,receiver,100,0.5,5,73,67,62,-11,11,-292,-75,5927.277324251361,1680629993297,"How many <b class=""r"">red</b> marbles did you actually draw (before any changes)?",-1,-1,1680629941911,0,0.9166666666666666
sona-48135,unif,under,trial,79,receiver,100,0.5,5,70,63,55,-15,15,-307,-73,6716.234483402242,1680630026199,"How many <b class=""r"">red</b> marbles did your opponent report drawing?",63,63,1680630026199,0,0.9166666666666666
sona-48135,unif,under,trial,81,receiver,100,0.5,5,22,18,25,-3,0,-310,-82,6898.054639390944,1680630074765,"How many <b class=""r"">red</b> marbles did your opponent report drawing?",-1,-1,1680630047298,0,0.9166666666666666
sona-48135,unif,under,trial,83,receiver,100,0.5,5,57,53,62,-5,0,-311,-86,6165.778620369878,1680630113041,"How many <b class=""r"">red</b> marbles did your opponent report drawing?",-1,-1,1680630047298,0,0.9166666666666666
sona-48135,unif,under,trial,85,receiver,100,0.5,5,41,36,42,-1,0,-312,-117,5247.882899619965,1680630183659,"How many <b class=""r"">red</b> marbles did your opponent report drawing?",-1,-1,1680630183659,0,0.9166666666666666
sona-48135,unif,under,trial,87,receiver,100,0.5,5,93,91,91,-2,2,-314,-121,6834.530642733853,1680630224754,"How many <b class=""r"">red</b> marbles did your opponent report drawing?",-1,-1,1680630183659,0,0.9166666666666666
sona-48135,unif,under,trial,89,receiver,100,0.5,5,61,54,57,-4,4,-318,-119,7114.422433887529,1680630270191,"How many <b class=""r"">red</b> marbles did you actually draw (before any changes)?",-1,-1,1680630241973,0,0.9166666666666666
sona-48135,unif,under,trial,91,receiver,100,0.5,5,58,54,53,-5,5,-323,-125,7469.353906001368,1680630318934,"How many <b class=""r"">red</b> marbles did you actually draw (before any changes)?",-1,-1,1680630292468,0,0.9166666666666666
sona-48135,unif,under,trial,93,receiver,100,0.5,5,51,42,39,-12,12,-335,-120,5826.419359922631,1680630344061,"How many <b class=""r"">red</b> marbles did you actually draw (before any changes)?",-1,-1,1680630292468,0,0.9166666666666666
sona-48135,unif,under,trial,95,receiver,100,0.5,5,32,27,27,-5,5,-340,-116,5650.4689484665205,1680630383857,"How many <b class=""r"">red</b> marbles did you actually draw (before any changes)?",-1,-1,1680630383857,0,0.9166666666666666
sona-48135,unif,under,trial,97,receiver,100,0.5,5,35,31,36,-1,0,-341,-121,6012.311532948945,1680630430597,"How many <b class=""r"">red</b> marbles did you actually draw (before any changes)?",-1,-1,1680630383857,0,0.9166666666666666
sona-48135,unif,under,trial,99,receiver,100,0.5,5,83,78,64,-19,19,-360,-120,6005.317008349501,1680630468033,"How many <b class=""r"">red</b> marbles did you actually draw (before any changes)?",-1,-1,1680630383857,0,0.9166666666666666
sona-37592,unif,under,trial,1,receiver,100,0.5,5,61,51,57,-4,4,-4,4,6473.483984740458,1678834881551,"How many <b class=""r"">red</b> marbles did your opponent report drawing?",-1,-1,1678834791824,0,1
sona-37592,unif,under,trial,3,receiver,100,0.5,5,51,47,49,-2,2,-1,1,6319.932584604721,1678834922552,"How many <b class=""r"">red</b> marbles did your opponent report drawing?",-1,-1,1678834791824,0,1
sona-37592,unif,under,trial,5,receiver,100,0.5,5,54,52,54,0,0,-1,-5,6563.505394926466,1678834956657,"How many <b class=""r"">red</b> marbles did your opponent report drawing?",-1,-1,1678834956657,0,1
sona-37592,unif,under,trial,7,receiver,100,0.5,5,82,74,79,-3,3,-4,-3,7003.600663924122,1678834993091,"How many <b class=""r"">red</b> marbles did your opponent report drawing?",74,73,1678834993092,0,1
sona-37592,unif,under,trial,9,receiver,100,0.5,5,44,41,44,0,0,-3,-4,5926.081076075419,1678835049028,"How many <b class=""r"">red</b> marbles did your opponent report drawing?",-1,-1,1678834993092,0,1
sona-37592,unif,under,trial,11,receiver,100,0.5,5,33,31,32,-1,1,-3,-4,5471.310376801512,1678835079744,"How many <b class=""r"">red</b> marbles did your opponent report drawing?",-1,-1,1678835065015,0,1
sona-37592,unif,under,trial,15,receiver,100,0.5,5,40,34,33,-7,7,-13,0,5262.272816373633,1678835152202,"How many <b class=""r"">red</b> marbles did your opponent report drawing?",-1,-1,1678835152202,0,1
sona-37592,unif,under,trial,17,receiver,100,0.5,5,51,46,48,-3,3,-4,-9,6838.1455653757,1678835191675,"How many <b class=""r"">red</b> marbles did your opponent report drawing?",-1,-1,1678835152202,0,1
sona-37592,unif,under,trial,19,receiver,100,0.5,5,79,76,80,-1,0,-5,-10,5570.989279261555,1678835217164,"How many <b class=""r"">red</b> marbles did your opponent report drawing?",-1,-1,1678835152202,0,1
sona-37592,unif,under,trial,21,receiver,100,0.5,5,64,59,62,-2,2,2,-17,6150.134886045378,1678835248036,"How many <b class=""r"">red</b> marbles did your opponent report drawing?",-1,-1,1678835235231,0,1
sona-37592,unif,under,trial,23,receiver,100,0.5,5,15,15,19,-4,0,0,-19,6639.959728927883,1678835278635,"How many <b class=""r"">red</b> marbles did your opponent report drawing?",-1,-1,1678835235231,0,1
sona-37592,unif,under,trial,25,receiver,100,0.5,5,33,27,31,-2,2,-2,-20,6104.0841978470435,1678835302514,"How many <b class=""r"">red</b> marbles did your opponent report drawing?",-1,-1,1678835302515,0,1
sona-37592,unif,under,trial,27,receiver,100,0.5,5,34,31,36,-2,0,6,-30,5452.9893677841,1678835337480,"How many <b class=""r"">red</b> marbles did your opponent report drawing?",31,31,1678835337480,0,1
sona-37592,unif,under,trial,29,receiver,100,0.5,5,83,78,82,-1,1,6,-30,6533.4765178197595,1678835381746,"How many <b class=""r"">red</b> marbles did you actually draw (before any changes)?",-1,-1,1678835364114,0,1
sona-37592,unif,under,trial,31,receiver,100,0.5,5,69,64,69,0,0,9,-33,7396.436580465792,1678835416863,"How many <b class=""r"">red</b> marbles did you actually draw (before any changes)?",-1,-1,1678835399945,0,1
sona-37592,unif,under,trial,33,receiver,100,0.5,5,90,85,90,0,0,19,-43,6783.367398264629,1678835445679,"How many <b class=""r"">red</b> marbles did you actually draw (before any changes)?",-1,-1,1678835399945,0,1
sona-37592,unif,under,trial,35,receiver,100,0.5,5,21,19,24,-3,0,23,-50,6632.282767989334,1678835478279,"How many <b class=""r"">red</b> marbles did you actually draw (before any changes)?",-1,-1,1678835478279,0,1
sona-37592,unif,under,trial,37,receiver,100,0.5,5,41,37,41,0,0,33,-60,5713.186738634966,1678835531844,"How many <b class=""r"">red</b> marbles did you actually draw (before any changes)?",-1,-1,1678835478279,0,1
sona-37592,unif,under,trial,39,receiver,100,0.5,5,57,50,54,-3,3,47,-74,5787.9081531119045,1678835562692,"How many <b class=""r"">red</b> marbles did your opponent report drawing?",50,50,1678835562692,0,1
sona-37592,unif,under,trial,41,receiver,100,0.5,5,17,14,19,-2,0,52,-81,5504.941174517417,1678835603275,"How many <b class=""r"">red</b> marbles did your opponent report drawing?",-1,-1,1678835589294,0,1
sona-37592,unif,under,trial,43,receiver,100,0.5,5,65,58,64,-1,1,54,-83,5794.247089517336,1678835629524,"How many <b class=""r"">red</b> marbles did your opponent report drawing?",-1,-1,1678835589294,0,1
sona-37592,unif,under,trial,45,receiver,100,0.5,5,10,4,9,-1,1,65,-94,5370.640130920698,1678835662509,"How many <b class=""r"">red</b> marbles did your opponent report drawing?",-1,-1,1678835662509,0,1
sona-37592,unif,under,trial,47,receiver,100,0.5,5,74,66,71,-3,3,80,-109,6344.314215598958,1678835703490,"How many <b class=""r"">red</b> marbles did you actually draw (before any changes)?",-1,-1,1678835685374,0,1
sona-37592,unif,under,trial,49,receiver,100,0.5,5,47,36,40,-7,7,81,-110,6317.322136486289,1678835733073,"How many <b class=""r"">red</b> marbles did you actually draw (before any changes)?",-1,-1,1678835685374,0,1
sona-37592,unif,under,trial,51,receiver,100,0.5,5,48,46,50,-2,0,88,-119,6422.176535374594,1678835769855,"How many <b class=""r"">red</b> marbles did you actually draw (before any changes)?",-1,-1,1678835759589,0,1
sona-37592,unif,under,trial,53,receiver,100,0.5,5,46,40,44,-2,2,99,-130,5679.009555066128,1678835805887,"How many <b class=""r"">red</b> marbles did you actually draw (before any changes)?",-1,-1,1678835759589,0,1
sona-37592,unif,under,trial,55,receiver,100,0.5,5,29,24,29,0,0,110,-141,5403.75148037094,1678835838604,"How many <b class=""r"">red</b> marbles did you actually draw (before any changes)?",-1,-1,1678835838604,0,1
sona-37592,unif,under,trial,57,receiver,100,0.5,5,54,48,50,-4,4,118,-149,5566.815931602849,1678835873519,"How many <b class=""r"">red</b> marbles did you actually draw (before any changes)?",-1,-1,1678835838604,0,1
sona-37592,unif,under,trial,59,receiver,100,0.5,5,29,20,26,-3,3,123,-154,5317.881953020802,1678835908368,"How many <b class=""r"">red</b> marbles did you actually draw (before any changes)?",-1,-1,1678835893652,0,1
sona-37592,unif,under,trial,61,receiver,100,0.5,5,25,23,26,-1,0,131,-163,6795.542347849847,1678835943550,"How many <b class=""r"">red</b> marbles did you actually draw (before any changes)?",-1,-1,1678835930838,0,1
sona-37592,unif,under,trial,63,receiver,100,0.5,5,44,41,45,-1,0,145,-178,5695.458294723979,1678835974917,"How many <b class=""r"">red</b> marbles did your opponent report drawing?",41,41,1678835974917,0,1
sona-37592,unif,under,trial,65,receiver,100,0.5,5,48,42,46,-2,2,149,-182,5224.432026651886,1678836010132,"How many <b class=""r"">red</b> marbles did your opponent report drawing?",-1,-1,1678836010132,0,1
sona-37592,unif,under,trial,67,receiver,100,0.5,5,65,60,66,-1,0,155,-189,7358.304740610833,1678836040631,"How many <b class=""r"">red</b> marbles did your opponent report drawing?",-1,-1,1678836010132,0,1
sona-37592,unif,under,trial,69,receiver,100,0.5,5,51,44,49,-2,2,161,-195,7207.876964092245,1678836077948,"How many <b class=""r"">red</b> marbles did your opponent report drawing?",-1,-1,1678836010132,0,1
sona-37592,unif,under,trial,71,receiver,100,0.5,5,29,22,26,-3,3,173,-207,6284.22460042569,1678836115963,"How many <b class=""r"">red</b> marbles did your opponent report drawing?",-1,-1,1678836103413,0,1
sona-37592,unif,under,trial,73,receiver,100,0.5,5,35,31,35,0,0,182,-216,6815.339048927497,1678836150112,"How many <b class=""r"">red</b> marbles did you actually draw (before any changes)?",-1,-1,1678836134414,0,1
sona-37592,unif,under,trial,75,receiver,100,0.5,5,62,58,61,-1,1,195,-229,6532.967076202045,1678836181895,"How many <b class=""r"">red</b> marbles did you actually draw (before any changes)?",-1,-1,1678836181895,0,1
sona-37592,unif,under,trial,77,receiver,100,0.5,5,34,28,31,-3,3,204,-238,6866.922412777811,1678836212877,"How many <b class=""r"">red</b> marbles did you actually draw (before any changes)?",-1,-1,1678836181895,0,1
sona-37592,unif,under,trial,79,receiver,100,0.5,5,59,52,56,-3,3,205,-239,5220.1806112885915,1678836248226,"How many <b class=""r"">red</b> marbles did you actually draw (before any changes)?",-1,-1,1678836181895,0,1
sona-37592,unif,under,trial,81,receiver,100,0.5,5,34,30,36,-2,0,213,-249,5765.476092561334,1678836294825,"How many <b class=""r"">red</b> marbles did your opponent report drawing?",30,30,1678836294825,0,1
sona-37592,unif,under,trial,83,receiver,100,0.5,5,47,43,46,-1,1,219,-255,7176.185220587909,1678836348924,"How many <b class=""r"">red</b> marbles did your opponent report drawing?",-1,-1,1678836294825,0,1
sona-37592,unif,under,trial,85,receiver,100,0.5,5,61,55,59,-2,2,232,-268,6852.014382789434,1678836383240,"How many <b class=""r"">red</b> marbles did your opponent report drawing?",-1,-1,1678836383240,0,1
sona-37592,unif,under,trial,87,receiver,100,0.5,5,55,52,56,-1,0,237,-274,6370.80003328872,1678836414906,"How many <b class=""r"">red</b> marbles did your opponent report drawing?",-1,-1,1678836383240,0,1
sona-37592,unif,under,trial,89,receiver,100,0.5,5,50,45,49,-1,1,256,-293,6881.689051326172,1678836459332,"How many <b class=""r"">red</b> marbles did your opponent report drawing?",-1,-1,1678836383240,0,1
sona-37592,unif,under,trial,91,receiver,100,0.5,5,35,31,36,-1,0,264,-302,5928.880914224223,1678836491684,"How many <b class=""r"">red</b> marbles did your opponent report drawing?",-1,-1,1678836480700,0,1
sona-37592,unif,under,trial,93,receiver,100,0.5,5,58,53,56,-2,2,270,-308,7214.02092056146,1678836518699,"How many <b class=""r"">red</b> marbles did your opponent report drawing?",-1,-1,1678836480700,0,1
sona-37592,unif,under,trial,95,receiver,100,0.5,5,57,53,56,-1,1,283,-321,5194.006511597441,1678836553200,"How many <b class=""r"">red</b> marbles did your opponent report drawing?",-1,-1,1678836553200,0,1
sona-37592,unif,under,trial,97,receiver,100,0.5,5,31,25,29,-2,2,296,-334,5969.088523858312,1678836598366,"How many <b class=""r"">red</b> marbles did your opponent report drawing?",25,25,1678836598366,0,1
sona-37592,unif,under,trial,99,receiver,100,0.5,5,20,14,19,-1,1,305,-343,6306.539099448923,1678836639466,"How many <b class=""r"">red</b> marbles did your opponent report drawing?",-1,-1,1678836598366,0,1
sona-43903,linear,under,trial,1,receiver,100,0.5,5,56,52,50,-6,6,-6,6,5515.120920463029,1678828763834,"How many <b class=""r"">red</b> marbles did your opponent report drawing?",-1,-1,1678828706309,0,0.75
sona-43903,linear,under,trial,3,receiver,100,0.5,5,65,62,60,-5,5,-11,7,6908.364711194734,1678828827893,"How many <b class=""r"">red</b> marbles did your opponent report drawing?",-1,-1,1678828706309,0,0.75
sona-43903,linear,under,trial,5,receiver,100,0.5,5,57,55,53,-4,4,-15,6,5144.414321146069,1678828864558,"How many <b class=""r"">red</b> marbles did your opponent report drawing?",-1,-1,1678828864558,0,0.75
sona-43903,linear,under,trial,7,receiver,100,0.5,5,42,39,34,-8,8,-23,7,5598.145765567237,1678828993907,"How many <b class=""r"">red</b> marbles did your opponent report drawing?",-1,-1,1678828864558,0,0.75
sona-43903,linear,under,trial,9,receiver,100,0.5,5,46,42,42,-4,4,-27,8,5179.294331819221,1678829023453,"How many <b class=""r"">red</b> marbles did your opponent report drawing?",-1,-1,1678828864558,0,0.75
sona-43903,linear,under,trial,11,receiver,100,0.5,5,21,19,24,-3,0,-30,0,6965.229111280198,1678829087196,"How many <b class=""r"">red</b> marbles did your opponent report drawing?",-1,-1,1678829061137,0,0.75
sona-43903,linear,under,trial,13,receiver,100,0.5,5,50,42,30,-20,20,-50,8,7033.900211651673,1678829129661,"How many <b class=""r"">red</b> marbles did your opponent report drawing?",42,43,1678829129661,0,0.75
sona-43903,linear,under,trial,15,receiver,100,0.5,5,34,30,28,-6,6,-56,10,6621.980449883638,1678829212104,"How many <b class=""r"">red</b> marbles did you actually draw (before any changes)?",-1,-1,1678829212104,0,0.75
sona-43903,linear,under,trial,17,receiver,100,0.5,5,26,21,20,-6,6,-62,10,5367.32851980397,1678831045059,"How many <b class=""r"">red</b> marbles did you actually draw (before any changes)?",-1,-1,1678829212104,0,0.75
sona-43903,linear,under,trial,19,receiver,100,0.5,5,48,41,51,-3,0,-65,4,5908.985884104936,1678836058004,"How many <b class=""r"">red</b> marbles did you actually draw (before any changes)?",-1,-1,1678829212104,0,0.75
sona-43903,linear,under,trial,21,receiver,100,0.5,5,57,53,50,-7,7,-72,10,5367.93416275368,1678836082559,"How many <b class=""r"">red</b> marbles did you actually draw (before any changes)?",-1,-1,1678836070543,0,0.75
sona-43903,linear,under,trial,23,receiver,100,0.5,5,61,58,55,-6,6,-78,7,6751.7665316970915,1678836113087,"How many <b class=""r"">red</b> marbles did you actually draw (before any changes)?",-1,-1,1678836070543,0,0.75
sona-43903,linear,under,trial,25,receiver,100,0.5,5,53,50,49,-4,4,-82,7,5891.836017461321,1678855576074,"How many <b class=""r"">red</b> marbles did you actually draw (before any changes)?",-1,-1,1678855576081,0,0.75
sona-43903,linear,under,trial,27,receiver,100,0.5,5,41,38,36,-5,5,-86,11,6542.751726855135,1678855626654,"How many <b class=""r"">red</b> marbles did you actually draw (before any changes)?",-1,-1,1678855576081,0,0.75
sona-43903,linear,under,trial,29,receiver,100,0.5,5,68,61,52,-16,16,-102,17,5571.829874712104,1678855854836,"How many <b class=""r"">red</b> marbles did you actually draw (before any changes)?",-1,-1,1678855576081,0,0.75
sona-43903,linear,under,trial,31,receiver,100,0.5,5,66,64,50,-16,16,-118,26,6798.745451310431,1678855977859,"How many <b class=""r"">red</b> marbles did your opponent report drawing?",64,64,1678855977859,0,0.75
sona-43903,linear,under,trial,33,receiver,100,0.5,5,47,45,42,-5,5,-120,28,7043.60465401669,1678856065230,"How many <b class=""r"">red</b> marbles did you actually draw (before any changes)?",-1,-1,1678856018992,0,0.75
sona-43903,linear,under,trial,35,receiver,100,0.5,5,74,70,67,-7,7,-127,31,5610.6470687254705,1678856122495,"How many <b class=""r"">red</b> marbles did you actually draw (before any changes)?",-1,-1,1678856122495,0,0.75
sona-43903,linear,under,trial,37,receiver,100,0.5,5,32,25,30,-2,2,-120,24,6167.256989458063,1678856219775,"How many <b class=""r"">red</b> marbles did you actually draw (before any changes)?",-1,-1,1678856122495,0,0.75
sona-43903,linear,under,trial,39,receiver,100,0.5,5,37,30,20,-17,17,-137,35,5863.082319417466,1678856283935,"How many <b class=""r"">red</b> marbles did you actually draw (before any changes)?",-1,-1,1678856122495,0,0.75
sona-43903,linear,under,trial,41,receiver,100,0.5,5,33,27,25,-8,8,-145,39,5905.073879686612,1678856464642,"How many <b class=""r"">red</b> marbles did you actually draw (before any changes)?",-1,-1,1678856294697,0,0.75
sona-43903,linear,under,trial,43,receiver,100,0.5,5,48,42,38,-10,10,-155,48,6604.511191353171,1678856492847,"How many <b class=""r"">red</b> marbles did your opponent report drawing?",42,42,1678856492848,0,0.75
sona-43903,linear,under,trial,45,receiver,100,0.5,5,64,56,53,-11,11,-166,54,5153.217043990453,1678856577162,"How many <b class=""r"">red</b> marbles did your opponent report drawing?",-1,-1,1678856577163,0,0.75
sona-43903,linear,under,trial,47,receiver,100,0.5,5,30,25,20,-10,10,-176,57,6742.0969842712175,1678856720631,"How many <b class=""r"">red</b> marbles did your opponent report drawing?",-1,-1,1678856577163,0,0.75
sona-43903,linear,under,trial,49,receiver,100,0.5,5,26,19,15,-11,11,-187,60,5873.043025021914,1678856754051,"How many <b class=""r"">red</b> marbles did your opponent report drawing?",-1,-1,1678856577163,0,0.75
sona-43903,linear,under,trial,51,receiver,100,0.5,5,74,70,68,-6,6,-193,56,7006.93896330298,1678856810569,"How many <b class=""r"">red</b> marbles did your opponent report drawing?",70,70,1678856810569,0,0.75
sona-43903,linear,under,trial,53,receiver,100,0.5,5,43,38,40,-3,3,-196,54,5458.314369072459,1678856855003,"How many <b class=""r"">red</b> marbles did your opponent report drawing?",-1,-1,1678856810569,0,0.75
sona-43903,linear,under,trial,55,receiver,100,0.5,5,47,45,43,-4,4,-200,50,5264.456501587962,1678856922535,"How many <b class=""r"">red</b> marbles did your opponent report drawing?",-1,-1,1678856922535,0,0.75
sona-43903,linear,under,trial,57,receiver,100,0.5,5,46,40,37,-9,9,-209,51,5886.368614908384,1678856985038,"How many <b class=""r"">red</b> marbles did your opponent report drawing?",-1,-1,1678856922535,0,0.75
sona-43903,linear,under,trial,59,receiver,100,0.5,5,79,74,80,-1,0,-210,43,5608.476902797574,1678857042111,"How many <b class=""r"">red</b> marbles did your opponent report drawing?",-1,-1,1678856922535,0,0.75
sona-43903,linear,under,trial,61,receiver,100,0.5,5,21,14,10,-11,11,-221,47,5142.730513897516,1678857097761,"How many <b class=""r"">red</b> marbles did your opponent report drawing?",-1,-1,1678857057918,0,0.75
sona-43903,linear,under,trial,63,receiver,100,0.5,5,61,56,54,-7,7,-228,54,7439.304049163729,1678857142416,"How many <b class=""r"">red</b> marbles did your opponent report drawing?",-1,-1,1678857057918,0,0.75
sona-43903,linear,under,trial,65,receiver,100,0.5,5,49,44,40,-9,9,-237,51,6026.093595783092,1678857204871,"How many <b class=""r"">red</b> marbles did your opponent report drawing?",-1,-1,1678857204872,0,0.75
sona-43903,linear,under,trial,67,receiver,100,0.5,5,63,57,56,-7,7,-244,52,6398.06550931102,1678857241872,"How many <b class=""r"">red</b> marbles did your opponent report drawing?",-1,-1,1678857204872,0,0.75
sona-43903,linear,under,trial,69,receiver,100,0.5,5,58,54,53,-5,5,-249,52,5418.589958155411,1678857277000,"How many <b class=""r"">red</b> marbles did you actually draw (before any changes)?",-1,-1,1678857258161,0,0.75
sona-43903,linear,under,trial,71,receiver,100,0.5,5,34,28,27,-7,7,-256,56,5235.302665306517,1678857309601,"How many <b class=""r"">red</b> marbles did you actually draw (before any changes)?",-1,-1,1678857294326,0,0.75
sona-43903,linear,under,trial,73,receiver,100,0.5,5,35,31,30,-5,5,-258,58,5695.619220491078,1678857344615,"How many <b class=""r"">red</b> marbles did you actually draw (before any changes)?",-1,-1,1678857294326,0,0.75
sona-43903,linear,under,trial,75,receiver,100,0.5,5,60,51,50,-10,10,-264,64,6648.565487726159,1678857373424,"How many <b class=""r"">red</b> marbles did you actually draw (before any changes)?",-1,-1,1678857373424,0,0.75
sona-43903,linear,under,trial,77,receiver,100,0.5,5,16,11,10,-6,6,-269,69,5273.053597529257,1678857408021,"How many <b class=""r"">red</b> marbles did you actually draw (before any changes)?",-1,-1,1678857373424,0,0.75
sona-43903,linear,under,trial,81,receiver,100,0.5,5,75,70,69,-6,6,-277,57,6824.102203908394,1678857488172,"How many <b class=""r"">red</b> marbles did you actually draw (before any changes)?",-1,-1,1678857472492,0,0.75
sona-43903,linear,under,trial,83,receiver,100,0.5,5,49,46,45,-4,4,-281,54,6512.046280481858,1678857534428,"How many <b class=""r"">red</b> marbles did you actually draw (before any changes)?",-1,-1,1678857472492,0,0.75
sona-43903,linear,under,trial,85,receiver,100,0.5,5,57,53,52,-5,5,-286,49,5541.415458934809,1678857564585,"How many <b class=""r"">red</b> marbles did you actually draw (before any changes)?",-1,-1,1678857564585,0,0.75
sona-43903,linear,under,trial,87,receiver,100,0.5,5,74,73,72,-2,2,-288,30,5372.209904468202,1678857617184,"How many <b class=""r"">red</b> marbles did you actually draw (before any changes)?",-1,-1,1678857564585,0,0.75
sona-43903,linear,under,trial,89,receiver,100,0.5,5,52,45,45,-7,7,-295,30,6083.976179204208,1678857639330,"How many <b class=""r"">red</b> marbles did you actually draw (before any changes)?",-1,-1,1678857564585,0,0.75
sona-43903,linear,under,trial,91,receiver,100,0.5,5,30,25,25,-5,5,-300,26,6098.3501451819675,1678857670486,"How many <b class=""r"">red</b> marbles did you actually draw (before any changes)?",-1,-1,1678857650491,0,0.75
sona-43903,linear,under,trial,93,receiver,100,0.5,5,77,72,72,-5,5,-305,20,6929.200324901033,1678857715384,"How many <b class=""r"">red</b> marbles did your opponent report drawing?",72,72,1678857715384,0,0.75
sona-43903,linear,under,trial,95,receiver,100,0.5,5,37,29,29,-8,8,-313,22,6414.01247898522,1678857759499,"How many <b class=""r"">red</b> marbles did your opponent report drawing?",-1,-1,1678857759499,0,0.75
sona-43903,linear,under,trial,97,receiver,100,0.5,5,13,8,7,-6,6,-319,18,6133.170853085961,1678857794716,"How many <b class=""r"">red</b> marbles did your opponent report drawing?",-1,-1,1678857759499,0,0.75
sona-43903,linear,under,trial,99,receiver,100,0.5,5,68,64,65,-3,3,-320,19,5327.333466530037,1678857830749,"How many <b class=""r"">red</b> marbles did your opponent report drawing?",64,64,1678857830749,0,0.75
sona-47782,unif,under,trial,2,receiver,100,0.5,5,22,15,30,-8,0,27,-35,6426.662228742538,1678829358265,"How many <b class=""r"">red</b> marbles did your opponent report drawing?",-1,-1,1678829240581,0,0.8333333333333334
sona-47782,unif,under,trial,4,receiver,100,0.5,5,56,53,15,-41,41,-14,5,5133.562124169164,1678829422199,"How many <b class=""r"">red</b> marbles did your opponent report drawing?",-1,-1,1678829240581,0,0.8333333333333334
sona-47782,unif,under,trial,6,receiver,100,0.5,5,75,65,65,-10,10,-6,-3,5220.531369611603,1678829546698,"How many <b class=""r"">red</b> marbles did your opponent report drawing?",-1,-1,1678829469532,0,0.8333333333333334
sona-47782,unif,under,trial,8,receiver,100,0.5,5,67,65,44,-23,23,-29,17,5415.11316416055,1678829604265,"How many <b class=""r"">red</b> marbles did your opponent report drawing?",-1,-1,1678829469532,0,0.8333333333333334
sona-47782,unif,under,trial,10,receiver,100,0.5,5,30,27,33,-3,0,-24,9,5619.246307168776,1678829656182,"How many <b class=""r"">red</b> marbles did your opponent report drawing?",-1,-1,1678829656182,0,0.8333333333333334
sona-47782,unif,under,trial,12,receiver,100,0.5,5,23,22,40,-17,0,-41,-16,5666.396196560569,1678829713165,"How many <b class=""r"">red</b> marbles did your opponent report drawing?",-1,-1,1678829656182,0,0.8333333333333334
sona-47782,unif,under,trial,14,receiver,100,0.5,5,53,44,50,-3,3,-36,-21,5359.133397489923,1678829770065,"How many <b class=""r"">red</b> marbles did your opponent report drawing?",-1,-1,1678829656182,0,0.8333333333333334
sona-47782,unif,under,trial,16,receiver,100,0.5,5,49,44,44,-5,5,-23,-34,5809.490128397381,1678829830665,"How many <b class=""r"">red</b> marbles did your opponent report drawing?",-1,-1,1678829806866,0,0.8333333333333334
sona-47782,unif,under,trial,18,receiver,100,0.5,5,40,38,38,-2,2,-6,-51,5906.622573615205,1678829877365,"How many <b class=""r"">red</b> marbles did your opponent report drawing?",-1,-1,1678829806866,0,0.8333333333333334
sona-47782,unif,under,trial,20,receiver,100,0.5,5,34,29,35,-1,0,17,-75,7147.303997164595,1678829945815,"How many <b class=""r"">red</b> marbles did you actually draw (before any changes)?",-1,-1,1678829945815,0,0.8333333333333334
sona-47782,unif,under,trial,22,receiver,100,0.5,5,32,29,35,-3,0,17,-78,5381.4332091666165,1678829990799,"How many <b class=""r"">red</b> marbles did you actually draw (before any changes)?",-1,-1,1678829945815,0,0.8333333333333334
sona-47782,unif,under,trial,24,receiver,100,0.5,5,22,17,20,-2,2,23,-84,7006.283771888822,1678830030765,"How many <b class=""r"">red</b> marbles did you actually draw (before any changes)?",-1,-1,1678829945815,0,0.8333333333333334
sona-47782,unif,under,trial,26,receiver,100,0.5,5,57,47,55,-2,2,37,-98,5839.492600349915,1678830087315,"How many <b class=""r"">red</b> marbles did you actually draw (before any changes)?",-1,-1,1678830064883,0,0.8333333333333334
sona-47782,unif,under,trial,28,receiver,100,0.5,5,53,51,51,-2,2,53,-114,7153.356970317593,1678830135032,"How many <b class=""r"">red</b> marbles did you actually draw (before any changes)?",-1,-1,1678830064883,0,0.8333333333333334
sona-47782,unif,under,trial,30,receiver,100,0.5,5,70,69,70,0,0,53,-122,7007.467376505316,1678830201499,"How many <b class=""r"">red</b> marbles did you actually draw (before any changes)?",-1,-1,1678830201499,0,0.8333333333333334
sona-47782,unif,under,trial,32,receiver,100,0.5,5,38,34,40,-2,0,54,-125,5345.462957320269,1678830237032,"How many <b class=""r"">red</b> marbles did you actually draw (before any changes)?",-1,-1,1678830201499,0,0.8333333333333334
sona-47782,unif,under,trial,34,receiver,100,0.5,5,64,56,60,-4,4,54,-125,5172.902033170329,1678830272783,"How many <b class=""r"">red</b> marbles did your opponent report drawing?",56,64,1678830272783,0,0.8333333333333334
sona-47782,unif,under,trial,36,receiver,100,0.5,5,76,69,70,-6,6,48,-125,5149.270131098431,1678830312032,"How many <b class=""r"">red</b> marbles did your opponent report drawing?",69,69,1678830312032,0,0.8333333333333334
sona-47782,unif,under,trial,38,receiver,100,0.5,5,12,8,10,-2,2,46,-127,5577.677227847453,1678830343166,"How many <b class=""r"">red</b> marbles did your opponent report drawing?",-1,-1,1678830312032,0,0.8333333333333334
sona-47782,unif,under,trial,40,receiver,100,0.5,5,25,23,30,-5,0,41,-131,6760.115912498954,1678830381682,"How many <b class=""r"">red</b> marbles did your opponent report drawing?",-1,-1,1678830381683,0,0.8333333333333334
sona-47782,unif,under,trial,42,receiver,100,0.5,5,41,39,40,-1,1,40,-137,5665.955805860845,1678830526633,"How many <b class=""r"">red</b> marbles did your opponent report drawing?",-1,-1,1678830381683,0,0.8333333333333334
sona-47782,unif,under,trial,44,receiver,100,0.5,5,55,53,55,0,0,40,-143,6033.780161811666,1678830553934,"How many <b class=""r"">red</b> marbles did your opponent report drawing?",-1,-1,1678830381683,0,0.8333333333333334
sona-47782,unif,under,trial,46,receiver,100,0.5,5,47,41,45,-2,2,38,-145,5876.031376486006,1678830795083,"How many <b class=""r"">red</b> marbles did your opponent report drawing?",41,43,1678830795083,0,0.8333333333333334
sona-47782,unif,under,trial,48,receiver,100,0.5,5,48,46,50,-2,0,36,-153,6792.918701774135,1678830831483,"How many <b class=""r"">red</b> marbles did your opponent report drawing?",-1,-1,1678830795083,0,0.8333333333333334
sona-47782,unif,under,trial,50,receiver,100,0.5,5,86,78,78,-8,8,28,-151,6081.848577827352,1678830859433,"How many <b class=""r"">red</b> marbles did your opponent report drawing?",-1,-1,1678830859433,0,0.8333333333333334
sona-47782,unif,under,trial,52,receiver,100,0.5,5,70,68,71,-1,0,27,-151,6012.7074099030615,1678830893600,"How many <b class=""r"">red</b> marbles did your opponent report drawing?",-1,-1,1678830859433,0,0.8333333333333334
sona-47782,unif,under,trial,54,receiver,100,0.5,5,47,43,50,-3,0,24,-154,5197.745347751863,1678830930850,"How many <b class=""r"">red</b> marbles did your opponent report drawing?",-1,-1,1678830859433,0,0.8333333333333334
sona-47782,unif,under,trial,56,receiver,100,0.5,5,54,48,55,-1,0,29,-160,6598.025460741283,1678831091717,"How many <b class=""r"">red</b> marbles did your opponent report drawing?",48,48,1678831091717,0,0.8333333333333334
sona-47782,unif,under,trial,58,receiver,100,0.5,5,55,50,65,-10,0,20,-161,6860.644768977376,1678831137700,"How many <b class=""r"">red</b> marbles did your opponent report drawing?",-1,-1,1678831091717,0,0.8333333333333334
sona-47782,unif,under,trial,60,receiver,100,0.5,5,30,25,30,0,0,20,-165,5768.0912020642445,1678831169467,"How many <b class=""r"">red</b> marbles did you actually draw (before any changes)?",-1,-1,1678831169467,0,0.8333333333333334
sona-47782,unif,under,trial,62,receiver,100,0.5,5,77,73,80,-3,0,17,-169,6013.108345415807,1678831327817,"How many <b class=""r"">red</b> marbles did you actually draw (before any changes)?",-1,-1,1678831169467,0,0.8333333333333334
sona-47782,unif,under,trial,64,receiver,100,0.5,5,59,54,60,-1,0,16,-170,5277.970520546861,1678831349118,"How many <b class=""r"">red</b> marbles did you actually draw (before any changes)?",-1,-1,1678831169467,0,0.8333333333333334
sona-47782,unif,under,trial,66,receiver,100,0.5,5,50,49,55,-5,0,11,-176,5150.41275398237,1678831370617,"How many <b class=""r"">red</b> marbles did you actually draw (before any changes)?",-1,-1,1678831356651,0,0.8333333333333334
sona-47782,unif,under,trial,68,receiver,100,0.5,5,45,40,47,-2,0,14,-181,5756.799007235728,1678831400934,"How many <b class=""r"">red</b> marbles did you actually draw (before any changes)?",-1,-1,1678831356651,0,0.8333333333333334
sona-47782,unif,under,trial,70,receiver,100,0.5,5,40,32,40,0,0,14,-188,6265.559130981523,1678831426017,"How many <b class=""r"">red</b> marbles did you actually draw (before any changes)?",-1,-1,1678831426017,0,0.8333333333333334
sona-47782,unif,under,trial,72,receiver,100,0.5,5,33,27,35,-2,0,21,-197,6565.470552285187,1678831474734,"How many <b class=""r"">red</b> marbles did you actually draw (before any changes)?",-1,-1,1678831426017,0,0.8333333333333334
sona-47782,unif,under,trial,74,receiver,100,0.5,5,30,24,33,-3,0,18,-203,5679.442714846395,1678831497368,"How many <b class=""r"">red</b> marbles did you actually draw (before any changes)?",-1,-1,1678831426017,0,0.8333333333333334
sona-47782,unif,under,trial,76,receiver,100,0.5,5,73,69,70,-3,3,34,-219,5979.1087340778195,1678831540734,"How many <b class=""r"">red</b> marbles did you actually draw (before any changes)?",-1,-1,1678831522251,0,0.8333333333333334
sona-47782,unif,under,trial,78,receiver,100,0.5,5,29,25,33,-4,0,35,-224,5953.007881712916,1678831577051,"How many <b class=""r"">red</b> marbles did you actually draw (before any changes)?",-1,-1,1678831556152,0,0.8333333333333334
sona-47782,unif,under,trial,80,receiver,100,0.5,5,59,55,65,-6,0,33,-228,6116.3748122739935,1678831609217,"How many <b class=""r"">red</b> marbles did you actually draw (before any changes)?",-1,-1,1678831609217,0,0.8333333333333334
sona-47782,unif,under,trial,82,receiver,100,0.5,5,36,32,45,-9,0,47,-251,5323.59708154922,1678831663934,"How many <b class=""r"">red</b> marbles did you actually draw (before any changes)?",-1,-1,1678831641251,0,0.8333333333333334
sona-47782,unif,under,trial,84,receiver,100,0.5,5,52,48,55,-3,0,55,-262,6986.407422057069,1678831693217,"How many <b class=""r"">red</b> marbles did you actually draw (before any changes)?",-1,-1,1678831641251,0,0.8333333333333334
sona-47782,unif,under,trial,86,receiver,100,0.5,5,64,58,65,-1,0,54,-266,6701.9160870137,1678831721584,"How many <b class=""r"">red</b> marbles did you actually draw (before any changes)?",-1,-1,1678831703685,0,0.8333333333333334
sona-47782,unif,under,trial,88,receiver,100,0.5,5,69,62,70,-1,0,64,-277,5565.977661060256,1678831755885,"How many <b class=""r"">red</b> marbles did your opponent report drawing?",62,62,1678831755885,0,0.8333333333333334
sona-47782,unif,under,trial,90,receiver,100,0.5,5,33,31,40,-7,0,57,-280,6339.668783679216,1678831783652,"How many <b class=""r"">red</b> marbles did your opponent report drawing?",-1,-1,1678831783652,0,0.8333333333333334
sona-47782,unif,under,trial,92,receiver,100,0.5,5,66,62,71,-5,0,55,-283,5699.379152590751,1678831813934,"How many <b class=""r"">red</b> marbles did your opponent report drawing?",-1,-1,1678831783652,0,0.8333333333333334
sona-47782,unif,under,trial,94,receiver,100,0.5,5,56,48,55,-1,1,55,-283,6941.7597738349905,1678831849885,"How many <b class=""r"">red</b> marbles did your opponent report drawing?",-1,-1,1678831783652,0,0.8333333333333334
sona-47782,unif,under,trial,96,receiver,100,0.5,5,45,33,40,-5,5,50,-284,7122.8720437315205,1678831887468,"How many <b class=""r"">red</b> marbles did your opponent report drawing?",-1,-1,1678831869485,0,0.8333333333333334
sona-47782,unif,under,trial,98,receiver,100,0.5,5,27,21,25,-2,2,48,-289,5207.377521695491,1678831909501,"How many <b class=""r"">red</b> marbles did your opponent report drawing?",-1,-1,1678831869485,0,0.8333333333333334
sona-47782,unif,under,trial,100,receiver,100,0.5,5,28,24,30,-2,0,46,-293,6512.381479021694,1678831930201,"How many <b class=""r"">red</b> marbles did your opponent report drawing?",-1,-1,1678831930201,0,0.8333333333333334
sona-48031,unif,under,trial,1,receiver,100,0.5,5,79,75,78,-1,1,-1,1,5241.862461128067,1678826415660,"How many <b class=""r"">red</b> marbles did your opponent report drawing?",-1,-1,1678826386525,0,0.9166666666666666
sona-48031,unif,under,trial,3,receiver,100,0.5,5,41,34,43,-2,0,0,-2,6512.4495619999425,1678826446400,"How many <b class=""r"">red</b> marbles did your opponent report drawing?",-1,-1,1678826386525,0,0.9166666666666666
sona-48031,unif,under,trial,5,receiver,100,0.5,5,47,40,40,-7,7,-7,0,6063.290997011889,1678826477818,"How many <b class=""r"">red</b> marbles did your opponent report drawing?",-1,-1,1678826477818,0,0.9166666666666666
sona-48031,unif,under,trial,7,receiver,100,0.5,5,51,46,51,0,0,21,-28,6384.349174623971,1678826532305,"How many <b class=""r"">red</b> marbles did your opponent report drawing?",-1,-1,1678826477818,0,0.9166666666666666
sona-48031,unif,under,trial,9,receiver,100,0.5,5,56,46,61,-5,0,16,-31,5848.039702244148,1678826564374,"How many <b class=""r"">red</b> marbles did your opponent report drawing?",-1,-1,1678826477818,0,0.9166666666666666
sona-48031,unif,under,trial,11,receiver,100,0.5,5,49,44,49,0,0,16,-60,6180.577821746905,1678826615697,"How many <b class=""r"">red</b> marbles did your opponent report drawing?",44,44,1678826615697,0,0.9166666666666666
sona-48031,unif,under,trial,13,receiver,100,0.5,5,16,11,27,-11,0,5,-88,6565.73201756733,1678826665002,"How many <b class=""r"">red</b> marbles did your opponent report drawing?",-1,-1,1678826615697,0,0.9166666666666666
sona-48031,unif,under,trial,15,receiver,100,0.5,5,44,42,57,-13,0,6,-102,6047.095552390054,1678826703597,"How many <b class=""r"">red</b> marbles did your opponent report drawing?",-1,-1,1678826703597,0,0.9166666666666666
sona-48031,unif,under,trial,17,receiver,100,0.5,5,22,19,26,-4,0,2,-136,5513.918633309472,1678826766958,"How many <b class=""r"">red</b> marbles did you actually draw (before any changes)?",-1,-1,1678826747312,0,0.9166666666666666
sona-48031,unif,under,trial,19,receiver,100,0.5,5,77,72,84,-7,0,17,-158,5483.114454775729,1678826814166,"How many <b class=""r"">red</b> marbles did you actually draw (before any changes)?",-1,-1,1678826793368,0,0.9166666666666666
sona-48031,unif,under,trial,21,receiver,100,0.5,5,25,21,32,-7,0,10,-159,5730.125456953865,1678826848318,"How many <b class=""r"">red</b> marbles did your opponent report drawing?",21,21,1678826848318,0,0.9166666666666666
sona-48031,unif,under,trial,23,receiver,100,0.5,5,69,62,70,-1,0,9,-165,6533.9304851760435,1678826881499,"How many <b class=""r"">red</b> marbles did your opponent report drawing?",-1,-1,1678826848318,0,0.9166666666666666
sona-48031,unif,under,trial,25,receiver,100,0.5,5,56,53,59,-3,0,6,-199,7191.733032158235,1678826923317,"How many <b class=""r"">red</b> marbles did your opponent report drawing?",-1,-1,1678826923317,0,0.9166666666666666
sona-48031,unif,under,trial,27,receiver,100,0.5,5,29,26,31,-2,0,4,-220,6273.707250187546,1678826968804,"How many <b class=""r"">red</b> marbles did your opponent report drawing?",-1,-1,1678826923317,0,0.9166666666666666
sona-48031,unif,under,trial,29,receiver,100,0.5,5,41,39,43,-2,0,2,-224,6420.591706136316,1678827012531,"How many <b class=""r"">red</b> marbles did your opponent report drawing?",-1,-1,1678826923317,0,0.9166666666666666
sona-48031,unif,under,trial,31,receiver,100,0.5,5,27,22,27,0,0,2,-255,6817.03802629911,1678827061465,"How many <b class=""r"">red</b> marbles did your opponent report drawing?",-1,-1,1678827045550,0,0.9166666666666666
sona-48031,unif,under,trial,33,receiver,100,0.5,5,18,14,23,-5,0,26,-284,7010.895013941808,1678827138316,"How many <b class=""r"">red</b> marbles did your opponent report drawing?",-1,-1,1678827045550,0,0.9166666666666666
sona-48031,unif,under,trial,35,receiver,100,0.5,5,40,35,47,-7,0,19,-317,5719.810412901741,1678827189544,"How many <b class=""r"">red</b> marbles did your opponent report drawing?",-1,-1,1678827189544,0,0.9166666666666666
sona-48031,unif,under,trial,37,receiver,100,0.5,5,56,49,57,-1,0,34,-333,7290.572958045135,1678827227576,"How many <b class=""r"">red</b> marbles did your opponent report drawing?",-1,-1,1678827189544,0,0.9166666666666666
sona-48031,unif,under,trial,39,receiver,100,0.5,5,65,61,67,-2,0,54,-355,6612.336188450031,1678827276230,"How many <b class=""r"">red</b> marbles did your opponent report drawing?",-1,-1,1678827189544,0,0.9166666666666666
sona-48031,unif,under,trial,41,receiver,100,0.5,5,67,62,69,-2,0,95,-398,6974.966658009373,1678827352942,"How many <b class=""r"">red</b> marbles did you actually draw (before any changes)?",-1,-1,1678827333335,0,0.9166666666666666
sona-48031,unif,under,trial,43,receiver,100,0.5,5,50,41,48,-2,2,144,-447,6723.830157055747,1678827401839,"How many <b class=""r"">red</b> marbles did you actually draw (before any changes)?",-1,-1,1678827333335,0,0.9166666666666666
sona-48031,unif,under,trial,45,receiver,100,0.5,5,58,50,58,0,0,144,-471,7065.134454649813,1678827445980,"How many <b class=""r"">red</b> marbles did you actually draw (before any changes)?",-1,-1,1678827445980,0,0.9166666666666666
sona-48031,unif,under,trial,47,receiver,100,0.5,5,48,43,49,-1,0,149,-477,5726.323140651661,1678827471770,"How many <b class=""r"">red</b> marbles did you actually draw (before any changes)?",-1,-1,1678827445980,0,0.9166666666666666
sona-48031,unif,under,trial,49,receiver,100,0.5,5,45,36,43,-2,2,178,-506,6602.361086660788,1678827513137,"How many <b class=""r"">red</b> marbles did you actually draw (before any changes)?",-1,-1,1678827445980,0,0.9166666666666666
sona-48031,unif,under,trial,51,receiver,100,0.5,5,74,70,83,-9,0,169,-511,7219.981055010909,1678827549799,"How many <b class=""r"">red</b> marbles did your opponent report drawing?",70,71,1678827549799,0,0.9166666666666666
sona-48031,unif,under,trial,53,receiver,100,0.5,5,25,22,29,-4,0,165,-520,5560.051461046108,1678827651809,"How many <b class=""r"">red</b> marbles did your opponent report drawing?",-1,-1,1678827549799,0,0.9166666666666666
sona-48031,unif,under,trial,55,receiver,100,0.5,5,44,41,50,-6,0,159,-525,6371.642113561846,1678827695776,"How many <b class=""r"">red</b> marbles did your opponent report drawing?",-1,-1,1678827695776,0,0.9166666666666666
sona-48031,unif,under,trial,57,receiver,100,0.5,5,79,77,90,-11,0,148,-560,7160.943865769668,1678827736726,"How many <b class=""r"">red</b> marbles did your opponent report drawing?",-1,-1,1678827695776,0,0.9166666666666666
sona-48031,unif,under,trial,59,receiver,100,0.5,5,76,71,77,-1,0,178,-591,6899.8795234117515,1678827774406,"How many <b class=""r"">red</b> marbles did your opponent report drawing?",-1,-1,1678827695776,0,0.9166666666666666
sona-48031,unif,under,trial,61,receiver,100,0.5,5,79,76,82,-3,0,183,-599,6918.051744926837,1678827812221,"How many <b class=""r"">red</b> marbles did your opponent report drawing?",-1,-1,1678827798843,0,0.9166666666666666
sona-48031,unif,under,trial,63,receiver,100,0.5,5,46,43,51,-5,0,178,-604,6442.148654904515,1678827842847,"How many <b class=""r"">red</b> marbles did your opponent report drawing?",-1,-1,1678827798843,0,0.9166666666666666
sona-48031,unif,under,trial,65,receiver,100,0.5,5,44,38,47,-3,0,191,-620,5550.34225564714,1678827886840,"How many <b class=""r"">red</b> marbles did your opponent report drawing?",-1,-1,1678827886840,0,0.9166666666666666
sona-48031,unif,under,trial,67,receiver,100,0.5,5,77,74,79,-2,0,200,-631,6439.415774602244,1678827981364,"How many <b class=""r"">red</b> marbles did your opponent report drawing?",-1,-1,1678827886840,0,0.9166666666666666
sona-48031,unif,under,trial,69,receiver,100,0.5,5,51,43,51,0,0,220,-651,5822.035140197999,1678828016916,"How many <b class=""r"">red</b> marbles did your opponent report drawing?",-1,-1,1678827886840,0,0.9166666666666666
sona-48031,unif,under,trial,71,receiver,100,0.5,5,62,57,62,0,0,220,-655,5266.91241184217,1678828043169,"How many <b class=""r"">red</b> marbles did your opponent report drawing?",-1,-1,1678828032006,0,0.9166666666666666
sona-48031,unif,under,trial,73,receiver,100,0.5,5,86,82,85,-1,1,219,-671,6467.92173471368,1678828074321,"How many <b class=""r"">red</b> marbles did your opponent report drawing?",-1,-1,1678828032006,0,0.9166666666666666
sona-48031,unif,under,trial,75,receiver,100,0.5,5,44,39,45,-1,0,239,-692,5963.999077418723,1678828114262,"How many <b class=""r"">red</b> marbles did you actually draw (before any changes)?",-1,-1,1678828114262,0,0.9166666666666666
sona-48031,unif,under,trial,77,receiver,100,0.5,5,36,31,42,-6,0,248,-707,5918.529530499573,1678828150776,"How many <b class=""r"">red</b> marbles did you actually draw (before any changes)?",-1,-1,1678828114262,0,0.9166666666666666
sona-48031,unif,under,trial,79,receiver,100,0.5,5,79,75,82,-3,0,245,-709,5754.905741408113,1678828180658,"How many <b class=""r"">red</b> marbles did you actually draw (before any changes)?",-1,-1,1678828114262,0,0.9166666666666666
sona-48031,unif,under,trial,81,receiver,100,0.5,5,58,53,69,-11,0,262,-737,6007.026260544806,1678828228234,"How many <b class=""r"">red</b> marbles did you actually draw (before any changes)?",-1,-1,1678828209714,0,0.9166666666666666
sona-48031,unif,under,trial,83,receiver,100,0.5,5,20,16,29,-9,0,269,-753,5984.641546011664,1678828301994,"How many <b class=""r"">red</b> marbles did you actually draw (before any changes)?",-1,-1,1678828209714,0,0.9166666666666666
sona-48031,unif,under,trial,85,receiver,100,0.5,5,51,46,50,-1,1,285,-769,6941.608517656784,1678828354058,"How many <b class=""r"">red</b> marbles did you actually draw (before any changes)?",-1,-1,1678828354058,0,0.9166666666666666
sona-48031,unif,under,trial,89,receiver,100,0.5,5,43,37,46,-3,0,303,-810,6362.709801288648,1678828453675,"How many <b class=""r"">red</b> marbles did you actually draw (before any changes)?",-1,-1,1678828384226,0,0.9166666666666666
sona-48031,unif,under,trial,91,receiver,100,0.5,5,32,27,40,-8,0,295,-815,6326.316776677089,1678828480719,"How many <b class=""r"">red</b> marbles did your opponent report drawing?",27,27,1678828480719,0,0.9166666666666666
sona-48031,unif,under,trial,93,receiver,100,0.5,5,93,86,96,-3,0,301,-824,6368.108421846315,1678828516605,"How many <b class=""r"">red</b> marbles did your opponent report drawing?",-1,-1,1678828480719,0,0.9166666666666666
sona-48031,unif,under,trial,95,receiver,100,0.5,5,49,42,50,-1,0,323,-847,5788.377500017648,1678828572955,"How many <b class=""r"">red</b> marbles did you actually draw (before any changes)?",-1,-1,1678828572955,0,0.9166666666666666
sona-48031,unif,under,trial,97,receiver,100,0.5,5,72,71,77,-5,0,318,-851,5737.524118908222,1678828593141,"How many <b class=""r"">red</b> marbles did you actually draw (before any changes)?",-1,-1,1678828572955,0,0.9166666666666666
sona-48031,unif,under,trial,99,receiver,100,0.5,5,56,52,61,-5,0,330,-868,5759.075128165279,1678828627622,"How many <b class=""r"">red</b> marbles did you actually draw (before any changes)?",-1,-1,1678828572955,0,0.9166666666666666
sona-43387,linear,over,trial,1,receiver,100,0.5,5,45,50,48,-3,3,-3,3,5165.865521708445,1680645757485,"How many <b class=""r"">red</b> marbles did your opponent report drawing?",-1,-1,1680645688445,0,0.9166666666666666
sona-43387,linear,over,trial,3,receiver,100,0.5,5,49,52,53,-4,4,-7,1,5374.8842598901065,1680645805056,"How many <b class=""r"">red</b> marbles did your opponent report drawing?",-1,-1,1680645688445,0,0.9166666666666666
sona-43387,linear,over,trial,5,receiver,100,0.5,5,44,49,47,-3,3,-10,0,5917.010391272712,1680645830306,"How many <b class=""r"">red</b> marbles did your opponent report drawing?",-1,-1,1680645830306,0,0.9166666666666666
sona-43387,linear,over,trial,7,receiver,100,0.5,5,53,59,59,-6,6,-16,3,6669.512366071411,1680645939732,"How many <b class=""r"">red</b> marbles did your opponent report drawing?",-1,-1,1680645830306,0,0.9166666666666666
sona-43387,linear,over,trial,9,receiver,100,0.5,5,41,45,48,-7,7,-23,3,7075.148846129632,1680645985946,"How many <b class=""r"">red</b> marbles did your opponent report drawing?",-1,-1,1680645830306,0,0.9166666666666666
sona-43387,linear,over,trial,11,receiver,100,0.5,5,10,17,18,-8,8,-31,4,5645.542011760306,1680646032780,"How many <b class=""r"">red</b> marbles did you actually draw (before any changes)?",-1,-1,1680645995486,0,0.9166666666666666
sona-43387,linear,over,trial,13,receiver,100,0.5,5,62,66,70,-8,8,-39,4,5733.781933448562,1680646060764,"How many <b class=""r"">red</b> marbles did you actually draw (before any changes)?",-1,-1,1680645995486,0,0.9166666666666666
sona-43387,linear,over,trial,15,receiver,100,0.5,5,33,34,37,-4,4,-43,3,5235.270541286465,1680646100298,"How many <b class=""r"">red</b> marbles did you actually draw (before any changes)?",-1,-1,1680646100298,0,0.9166666666666666
sona-43387,linear,over,trial,17,receiver,100,0.5,5,46,50,55,-9,9,-52,10,5701.805840044768,1680646131089,"How many <b class=""r"">red</b> marbles did your opponent report drawing?",50,50,1680646131090,0,0.9166666666666666
sona-43387,linear,over,trial,19,receiver,100,0.5,5,36,44,47,-11,11,-63,19,6074.563828658679,1680646165007,"How many <b class=""r"">red</b> marbles did your opponent report drawing?",-1,-1,1680646131090,0,0.9166666666666666
sona-43387,linear,over,trial,21,receiver,100,0.5,5,29,34,34,-5,5,-68,15,5605.237304766476,1680646198170,"How many <b class=""r"">red</b> marbles did your opponent report drawing?",-1,-1,1680646182706,0,0.9166666666666666
sona-43387,linear,over,trial,23,receiver,100,0.5,5,29,31,33,-4,4,-72,13,6878.911624587097,1680646256143,"How many <b class=""r"">red</b> marbles did your opponent report drawing?",31,31,1680646256143,0,0.9166666666666666
sona-43387,linear,over,trial,25,receiver,100,0.5,5,14,18,21,-7,7,-79,11,5281.305715942545,1680646347765,"How many <b class=""r"">red</b> marbles did your opponent report drawing?",-1,-1,1680646347765,0,0.9166666666666666
sona-43387,linear,over,trial,27,receiver,100,0.5,5,62,67,67,-5,5,-84,10,7106.110842092135,1680646393630,"How many <b class=""r"">red</b> marbles did your opponent report drawing?",-1,-1,1680646347765,0,0.9166666666666666
sona-43387,linear,over,trial,29,receiver,100,0.5,5,35,41,50,-15,15,-99,10,5841.549731790245,1680646524786,"How many <b class=""r"">red</b> marbles did your opponent report drawing?",-1,-1,1680646347765,0,0.9166666666666666
sona-43387,linear,over,trial,31,receiver,100,0.5,5,48,56,63,-15,15,-114,7,5418.886287315732,1680646661281,"How many <b class=""r"">red</b> marbles did your opponent report drawing?",-1,-1,1680646642021,0,0.9166666666666666
sona-43387,linear,over,trial,33,receiver,100,0.5,5,51,53,61,-10,10,-124,-3,6136.506855248275,1680646776351,"How many <b class=""r"">red</b> marbles did your opponent report drawing?",-1,-1,1680646642021,0,0.9166666666666666
sona-43387,linear,over,trial,35,receiver,100,0.5,5,54,57,62,-8,8,-132,-4,5719.2367089109375,1680646942867,"How many <b class=""r"">red</b> marbles did your opponent report drawing?",-1,-1,1680646942867,0,0.9166666666666666
sona-43387,linear,over,trial,37,receiver,100,0.5,5,50,52,54,-4,4,-136,-11,6026.726371973411,1680646990367,"How many <b class=""r"">red</b> marbles did your opponent report drawing?",-1,-1,1680646942867,0,0.9166666666666666
sona-43387,linear,over,trial,39,receiver,100,0.5,5,35,39,45,-10,10,-146,-11,6635.271957970131,1680647022501,"How many <b class=""r"">red</b> marbles did your opponent report drawing?",-1,-1,1680646942867,0,0.9166666666666666
sona-43387,linear,over,trial,41,receiver,100,0.5,5,27,31,42,-15,15,-161,-5,5544.501783355025,1680647106392,"How many <b class=""r"">red</b> marbles did your opponent report drawing?",-1,-1,1680647088352,0,0.9166666666666666
sona-43387,linear,over,trial,43,receiver,100,0.5,5,39,41,45,-6,6,-167,-6,5732.830761012958,1680647142510,"How many <b class=""r"">red</b> marbles did your opponent report drawing?",-1,-1,1680647088352,0,0.9166666666666666
sona-43387,linear,over,trial,45,receiver,100,0.5,5,36,40,46,-10,10,-177,2,6800.47093988666,1680647178296,"How many <b class=""r"">red</b> marbles did your opponent report drawing?",40,43,1680647178296,0,0.9166666666666666
sona-43387,linear,over,trial,47,receiver,100,0.5,5,65,68,74,-9,9,-186,8,5644.391814202339,1680647232136,"How many <b class=""r"">red</b> marbles did your opponent report drawing?",-1,-1,1680647178296,0,0.9166666666666666
sona-43387,linear,over,trial,49,receiver,100,0.5,5,50,54,58,-8,8,-194,2,5352.725455685683,1680647297349,"How many <b class=""r"">red</b> marbles did your opponent report drawing?",-1,-1,1680647178296,0,0.9166666666666666
sona-43387,linear,over,trial,51,receiver,100,0.5,5,42,45,47,-5,5,-199,-3,5576.500197312058,1680647350243,"How many <b class=""r"">red</b> marbles did your opponent report drawing?",-1,-1,1680647331366,0,0.9166666666666666
sona-43387,linear,over,trial,53,receiver,100,0.5,5,79,83,87,-8,8,-207,-4,5155.677620359307,1680647413440,"How many <b class=""r"">red</b> marbles did your opponent report drawing?",-1,-1,1680647331366,0,0.9166666666666666
sona-43387,linear,over,trial,55,receiver,100,0.5,5,48,52,55,-7,7,-214,-14,5270.205288538861,1680647488440,"How many <b class=""r"">red</b> marbles did your opponent report drawing?",-1,-1,1680647488440,0,0.9166666666666666
sona-43387,linear,over,trial,57,receiver,100,0.5,5,46,49,54,-8,8,-222,-17,5275.459156948257,1680647537744,"How many <b class=""r"">red</b> marbles did your opponent report drawing?",-1,-1,1680647488440,0,0.9166666666666666
sona-43387,linear,over,trial,59,receiver,100,0.5,5,81,88,92,-11,11,-233,-19,5540.387218798816,1680647580337,"How many <b class=""r"">red</b> marbles did your opponent report drawing?",-1,-1,1680647488440,0,0.9166666666666666
sona-43387,linear,over,trial,61,receiver,100,0.5,5,38,49,53,-15,15,-248,-11,7338.321605041499,1680647624673,"How many <b class=""r"">red</b> marbles did your opponent report drawing?",-1,-1,1680647607471,0,0.9166666666666666
sona-43387,linear,over,trial,63,receiver,100,0.5,5,65,72,76,-11,11,-259,-9,6097.713671296294,1680647680413,"How many <b class=""r"">red</b> marbles did your opponent report drawing?",-1,-1,1680647607471,0,0.9166666666666666
sona-43387,linear,over,trial,65,receiver,100,0.5,5,26,29,35,-9,9,-268,-21,7064.062349723005,1680647792637,"How many <b class=""r"">red</b> marbles did your opponent report drawing?",-1,-1,1680647792638,0,0.9166666666666666
sona-43387,linear,over,trial,67,receiver,100,0.5,5,79,83,86,-7,7,-275,-19,7246.083543771988,1680647827749,"How many <b class=""r"">red</b> marbles did your opponent report drawing?",83,83,1680647827749,0,0.9166666666666666
sona-43387,linear,over,trial,69,receiver,100,0.5,5,34,40,42,-8,8,-283,-17,5159.074647260275,1680647877417,"How many <b class=""r"">red</b> marbles did your opponent report drawing?",-1,-1,1680647827749,0,0.9166666666666666
sona-43387,linear,over,trial,71,receiver,100,0.5,5,42,47,50,-8,8,-291,-22,5134.651426247955,1680647910664,"How many <b class=""r"">red</b> marbles did your opponent report drawing?",-1,-1,1680647896914,0,0.9166666666666666
sona-43387,linear,over,trial,73,receiver,100,0.5,5,20,26,28,-8,8,-299,-23,6367.2306635603,1680647945288,"How many <b class=""r"">red</b> marbles did your opponent report drawing?",-1,-1,1680647896914,0,0.9166666666666666
sona-43387,linear,over,trial,75,receiver,100,0.5,5,25,29,32,-7,7,-306,-23,5159.408933967763,1680648002668,"How many <b class=""r"">red</b> marbles did your opponent report drawing?",29,29,1680648002668,0,0.9166666666666666
sona-43387,linear,over,trial,77,receiver,100,0.5,5,65,68,68,-3,3,-309,-26,5209.1934631127315,1680648039071,"How many <b class=""r"">red</b> marbles did your opponent report drawing?",-1,-1,1680648002668,0,0.9166666666666666
sona-43387,linear,over,trial,79,receiver,100,0.5,5,48,54,59,-11,11,-320,-29,5535.833788203192,1680648074387,"How many <b class=""r"">red</b> marbles did your opponent report drawing?",-1,-1,1680648002668,0,0.9166666666666666
sona-43387,linear,over,trial,81,receiver,100,0.5,5,66,71,74,-8,8,-328,-30,6102.638015044968,1680648145224,"How many <b class=""r"">red</b> marbles did you actually draw (before any changes)?",-1,-1,1680648104068,0,0.9166666666666666
sona-43387,linear,over,trial,83,receiver,100,0.5,5,45,45,47,-2,2,-330,-36,7087.035417031047,1680648184992,"How many <b class=""r"">red</b> marbles did your opponent report drawing?",45,45,1680648184992,0,0.9166666666666666
sona-43387,linear,over,trial,85,receiver,100,0.5,5,47,55,62,-15,15,-345,-29,5781.565669316509,1680648287523,"How many <b class=""r"">red</b> marbles did your opponent report drawing?",-1,-1,1680648287523,0,0.9166666666666666
sona-43387,linear,over,trial,87,receiver,100,0.5,5,13,17,25,-12,12,-357,-24,7259.501532535155,1680648341774,"How many <b class=""r"">red</b> marbles did your opponent report drawing?",-1,-1,1680648287523,0,0.9166666666666666
sona-43387,linear,over,trial,89,receiver,100,0.5,5,62,66,70,-8,8,-365,-28,5466.274239151635,1680648394149,"How many <b class=""r"">red</b> marbles did your opponent report drawing?",-1,-1,1680648287523,0,0.9166666666666666
sona-43387,linear,over,trial,91,receiver,100,0.5,5,71,79,82,-11,11,-376,-31,5914.526932446001,1680648444586,"How many <b class=""r"">red</b> marbles did your opponent report drawing?",-1,-1,1680648426234,0,0.9166666666666666
sona-43387,linear,over,trial,93,receiver,100,0.5,5,19,23,27,-8,8,-384,-25,7017.167645934736,1680648478224,"How many <b class=""r"">red</b> marbles did your opponent report drawing?",-1,-1,1680648426234,0,0.9166666666666666
sona-43387,linear,over,trial,95,receiver,100,0.5,5,28,31,36,-8,8,-392,-26,5167.781618227331,1680648507450,"How many <b class=""r"">red</b> marbles did your opponent report drawing?",-1,-1,1680648507450,0,0.9166666666666666
sona-43387,linear,over,trial,97,receiver,100,0.5,5,58,63,65,-7,7,-399,-23,6464.572727304196,1680648540905,"How many <b class=""r"">red</b> marbles did your opponent report drawing?",-1,-1,1680648507450,0,0.9166666666666666
sona-43387,linear,over,trial,99,receiver,100,0.5,5,57,62,66,-9,9,-408,-19,7244.660610787285,1680648583192,"How many <b class=""r"">red</b> marbles did your opponent report drawing?",62,62,1680648583193,0,0.9166666666666666
sona-46869,unif,over,trial,2,receiver,100,0.5,5,57,63,58,-1,1,-1,-7,6174.447499014959,1678826099357,"How many <b class=""r"">red</b> marbles did your opponent report drawing?",-1,-1,1678825997259,0,0.8333333333333334
sona-46869,unif,over,trial,4,receiver,100,0.5,5,42,44,32,-10,0,-11,-10,5342.720305678937,1678826149170,"How many <b class=""r"">red</b> marbles did your opponent report drawing?",-1,-1,1678825997259,0,0.8333333333333334
sona-46869,unif,over,trial,6,receiver,100,0.5,5,17,23,15,-2,0,-13,-10,5203.604725521536,1678826208061,"How many <b class=""r"">red</b> marbles did your opponent report drawing?",-1,-1,1678826183549,0,0.8333333333333334
sona-46869,unif,over,trial,8,receiver,100,0.5,5,49,56,34,-15,0,-28,-35,7033.1564946709395,1678826282345,"How many <b class=""r"">red</b> marbles did your opponent report drawing?",-1,-1,1678826183549,0,0.8333333333333334
sona-46869,unif,over,trial,10,receiver,100,0.5,5,67,71,47,-20,0,-48,-37,5659.729531892838,1678826303662,"How many <b class=""r"">red</b> marbles did your opponent report drawing?",-1,-1,1678826303662,0,0.8333333333333334
sona-46869,unif,over,trial,12,receiver,100,0.5,5,43,51,27,-16,0,-41,-60,6371.777373806588,1678826364592,"How many <b class=""r"">red</b> marbles did your opponent report drawing?",-1,-1,1678826303662,0,0.8333333333333334
sona-46869,unif,over,trial,14,receiver,100,0.5,5,60,65,39,-21,0,-62,-66,5491.552457897242,1678826396964,"How many <b class=""r"">red</b> marbles did your opponent report drawing?",-1,-1,1678826303662,0,0.8333333333333334
sona-46869,unif,over,trial,16,receiver,100,0.5,5,40,42,24,-16,0,-78,-71,6975.995466597444,1678826438742,"How many <b class=""r"">red</b> marbles did your opponent report drawing?",-1,-1,1678826415401,0,0.8333333333333334
sona-46869,unif,over,trial,18,receiver,100,0.5,5,32,36,12,-20,0,-98,-115,6843.1000021684795,1678826488660,"How many <b class=""r"">red</b> marbles did your opponent report drawing?",-1,-1,1678826415401,0,0.8333333333333334
sona-46869,unif,over,trial,20,receiver,100,0.5,5,49,62,35,-14,0,-112,-125,6879.895138716072,1678826512328,"How many <b class=""r"">red</b> marbles did your opponent report drawing?",-1,-1,1678826512328,0,0.8333333333333334
sona-46869,unif,over,trial,22,receiver,100,0.5,5,47,50,50,-3,3,-115,-157,5873.872415710766,1678826564218,"How many <b class=""r"">red</b> marbles did your opponent report drawing?",-1,-1,1678826512328,0,0.8333333333333334
sona-46869,unif,over,trial,24,receiver,100,0.5,5,59,64,21,-38,0,-128,-182,6471.097243814824,1678826609025,"How many <b class=""r"">red</b> marbles did your opponent report drawing?",-1,-1,1678826512328,0,0.8333333333333334
sona-46869,unif,over,trial,26,receiver,100,0.5,5,10,18,18,-8,8,-130,-180,6786.352765482123,1678826652660,"How many <b class=""r"">red</b> marbles did your opponent report drawing?",-1,-1,1678826629432,0,0.8333333333333334
sona-46869,unif,over,trial,28,receiver,100,0.5,5,34,41,24,-10,0,-116,-204,6509.728918866863,1678826694281,"How many <b class=""r"">red</b> marbles did your opponent report drawing?",-1,-1,1678826629432,0,0.8333333333333334
sona-46869,unif,over,trial,30,receiver,100,0.5,5,70,77,10,-60,0,-176,-208,5814.439932517411,1678826719029,"How many <b class=""r"">red</b> marbles did your opponent report drawing?",-1,-1,1678826719029,0,0.8333333333333334
sona-46869,unif,over,trial,32,receiver,100,0.5,5,61,66,47,-14,0,-184,-214,6524.058008789396,1678826762526,"How many <b class=""r"">red</b> marbles did your opponent report drawing?",-1,-1,1678826719029,0,0.8333333333333334
sona-46869,unif,over,trial,34,receiver,100,0.5,5,46,52,28,-18,0,-186,-230,6519.234642015968,1678826815874,"How many <b class=""r"">red</b> marbles did your opponent report drawing?",52,52,1678826815874,0,0.8333333333333334
sona-46869,unif,over,trial,36,receiver,100,0.5,5,50,53,11,-39,0,-225,-234,7032.7411549048975,1678826862250,"How many <b class=""r"">red</b> marbles did your opponent report drawing?",-1,-1,1678826843093,0,0.8333333333333334
sona-46869,unif,over,trial,38,receiver,100,0.5,5,32,36,12,-20,0,-216,-263,7037.661757075963,1678826930917,"How many <b class=""r"">red</b> marbles did your opponent report drawing?",-1,-1,1678826843093,0,0.8333333333333334
sona-46869,unif,over,trial,40,receiver,100,0.5,5,95,98,37,-58,0,-274,-266,6177.4400096737245,1678826953598,"How many <b class=""r"">red</b> marbles did your opponent report drawing?",98,98,1678826953598,0,0.8333333333333334
sona-46869,unif,over,trial,42,receiver,100,0.5,5,76,82,31,-45,0,-319,-272,5882.351738786425,1678826986229,"How many <b class=""r"">red</b> marbles did you actually draw (before any changes)?",-1,-1,1678826969788,0,0.8333333333333334
sona-46869,unif,over,trial,44,receiver,100,0.5,5,44,48,31,-13,0,-332,-292,6743.705181701824,1678827027117,"How many <b class=""r"">red</b> marbles did you actually draw (before any changes)?",-1,-1,1678826969788,0,0.8333333333333334
sona-46869,unif,over,trial,46,receiver,100,0.5,5,90,99,11,-79,0,-371,-332,6543.986970637904,1678827104761,"How many <b class=""r"">red</b> marbles did you actually draw (before any changes)?",-1,-1,1678827064592,0,0.8333333333333334
sona-46869,unif,over,trial,48,receiver,100,0.5,5,68,71,48,-20,0,-342,-381,6942.583262644295,1678827159008,"How many <b class=""r"">red</b> marbles did you actually draw (before any changes)?",-1,-1,1678827064592,0,0.8333333333333334
sona-46869,unif,over,trial,50,receiver,100,0.5,5,66,73,52,-14,0,-348,-389,6074.929997141878,1678827194837,"How many <b class=""r"">red</b> marbles did you actually draw (before any changes)?",-1,-1,1678827194837,0,0.8333333333333334
sona-46869,unif,over,trial,52,receiver,100,0.5,5,50,56,51,-1,1,-336,-401,6159.820317117292,1678827234226,"How many <b class=""r"">red</b> marbles did you actually draw (before any changes)?",-1,-1,1678827194837,0,0.8333333333333334
sona-46869,unif,over,trial,54,receiver,100,0.5,5,40,44,14,-26,0,-323,-440,5786.737885783265,1678827283496,"How many <b class=""r"">red</b> marbles did you actually draw (before any changes)?",-1,-1,1678827194837,0,0.8333333333333334
sona-46869,unif,over,trial,56,receiver,100,0.5,5,34,37,37,-3,3,-326,-453,7006.044908160865,1678827330975,"How many <b class=""r"">red</b> marbles did you actually draw (before any changes)?",-1,-1,1678827313074,0,0.8333333333333334
sona-46869,unif,over,trial,58,receiver,100,0.5,5,46,49,22,-24,0,-350,-463,7142.676448446901,1678827367241,"How many <b class=""r"">red</b> marbles did you actually draw (before any changes)?",-1,-1,1678827313074,0,0.8333333333333334
sona-46869,unif,over,trial,60,receiver,100,0.5,5,62,66,31,-31,0,-363,-481,5916.2125582931385,1678827403178,"How many <b class=""r"">red</b> marbles did you actually draw (before any changes)?",-1,-1,1678827403178,0,0.8333333333333334
sona-46869,unif,over,trial,62,receiver,100,0.5,5,44,48,48,-4,4,-341,-503,5528.651135913784,1678827444345,"How many <b class=""r"">red</b> marbles did you actually draw (before any changes)?",-1,-1,1678827430727,0,0.8333333333333334
sona-46869,unif,over,trial,64,receiver,100,0.5,5,60,63,12,-48,0,-389,-509,5319.752807687753,1678827465728,"How many <b class=""r"">red</b> marbles did you actually draw (before any changes)?",-1,-1,1678827430727,0,0.8333333333333334
sona-46869,unif,over,trial,66,receiver,100,0.5,5,71,77,51,-20,0,-390,-528,5195.408253247122,1678827511515,"How many <b class=""r"">red</b> marbles did you actually draw (before any changes)?",-1,-1,1678827488356,0,0.8333333333333334
sona-46869,unif,over,trial,68,receiver,100,0.5,5,23,31,43,-20,20,-410,-516,7218.278636617353,1678827552106,"How many <b class=""r"">red</b> marbles did you actually draw (before any changes)?",-1,-1,1678827488356,0,0.8333333333333334
sona-46869,unif,over,trial,70,receiver,100,0.5,5,75,82,24,-51,0,-410,-567,5263.803528686186,1678827602244,"How many <b class=""r"">red</b> marbles did you actually draw (before any changes)?",-1,-1,1678827602245,0,0.8333333333333334
sona-46869,unif,over,trial,72,receiver,100,0.5,5,33,40,17,-16,0,-426,-567,5450.244793829468,1678827644336,"How many <b class=""r"">red</b> marbles did you actually draw (before any changes)?",-1,-1,1678827622813,0,0.8333333333333334
sona-46869,unif,over,trial,74,receiver,100,0.5,5,71,80,32,-39,0,-465,-569,5550.267332197362,1678827667824,"How many <b class=""r"">red</b> marbles did you actually draw (before any changes)?",-1,-1,1678827622813,0,0.8333333333333334
sona-46869,unif,over,trial,76,receiver,100,0.5,5,67,72,12,-55,0,-487,-602,6332.925400119753,1678827714472,"How many <b class=""r"">red</b> marbles did you actually draw (before any changes)?",-1,-1,1678827699499,0,0.8333333333333334
sona-46869,unif,over,trial,78,receiver,100,0.5,5,58,61,28,-30,0,-517,-607,5419.959583895205,1678827745229,"How many <b class=""r"">red</b> marbles did you actually draw (before any changes)?",-1,-1,1678827699499,0,0.8333333333333334
sona-46869,unif,over,trial,80,receiver,100,0.5,5,80,85,17,-63,0,-570,-617,5880.076935582181,1678827771873,"How many <b class=""r"">red</b> marbles did you actually draw (before any changes)?",-1,-1,1678827771873,0,0.8333333333333334
sona-46869,unif,over,trial,82,receiver,100,0.5,5,31,35,29,-2,0,-542,-647,7117.331577151897,1678827812301,"How many <b class=""r"">red</b> marbles did you actually draw (before any changes)?",-1,-1,1678827771873,0,0.8333333333333334
sona-46869,unif,over,trial,84,receiver,100,0.5,5,34,38,38,-4,4,-546,-646,7223.542296596925,1678827843531,"How many <b class=""r"">red</b> marbles did you actually draw (before any changes)?",-1,-1,1678827771873,0,0.8333333333333334
sona-46869,unif,over,trial,86,receiver,100,0.5,5,59,61,12,-47,0,-577,-662,5959.989105379907,1678827885579,"How many <b class=""r"">red</b> marbles did you actually draw (before any changes)?",-1,-1,1678827869061,0,0.8333333333333334
sona-46869,unif,over,trial,88,receiver,100,0.5,5,67,74,41,-26,0,-595,-670,6845.3910010180625,1678827915390,"How many <b class=""r"">red</b> marbles did your opponent report drawing?",74,74,1678827915391,0,0.8333333333333334
sona-46869,unif,over,trial,90,receiver,100,0.5,5,67,68,42,-25,0,-615,-675,5853.799407895314,1678827945201,"How many <b class=""r"">red</b> marbles did your opponent report drawing?",-1,-1,1678827945201,0,0.8333333333333334
sona-46869,unif,over,trial,92,receiver,100,0.5,5,46,51,39,-7,0,-622,-691,5560.411582572737,1678827976540,"How many <b class=""r"">red</b> marbles did your opponent report drawing?",-1,-1,1678827945201,0,0.8333333333333334
sona-46869,unif,over,trial,94,receiver,100,0.5,5,54,58,21,-33,0,-655,-692,6049.113447531274,1678827996478,"How many <b class=""r"">red</b> marbles did your opponent report drawing?",58,58,1678827996478,0,0.8333333333333334
sona-46869,unif,over,trial,96,receiver,100,0.5,5,80,86,11,-69,0,-689,-727,6295.837935447975,1678828043082,"How many <b class=""r"">red</b> marbles did your opponent report drawing?",-1,-1,1678828030648,0,0.8333333333333334
sona-46869,unif,over,trial,98,receiver,100,0.5,5,57,61,28,-29,0,-692,-753,7424.715963584278,1678828085064,"How many <b class=""r"">red</b> marbles did your opponent report drawing?",-1,-1,1678828030648,0,0.8333333333333334
sona-46869,unif,over,trial,100,receiver,100,0.5,5,1,4,4,-3,3,-683,-762,5356.315324396464,1678828114324,"How many <b class=""r"">red</b> marbles did your opponent report drawing?",4,4,1678828114324,0,0.8333333333333334
sona-47844,unif,under,trial,2,receiver,100,0.5,5,45,39,40,-5,5,8,-8,5288.561300321557,1678831199645,"How many <b class=""r"">red</b> marbles did your opponent report drawing?",-1,-1,1678831032318,0,0.75
sona-47844,unif,under,trial,4,receiver,100,0.5,5,16,11,20,-4,0,6,-10,5847.539573249217,1678831285144,"How many <b class=""r"">red</b> marbles did your opponent report drawing?",-1,-1,1678831032318,0,0.75
sona-47844,unif,under,trial,6,receiver,100,0.5,5,71,64,45,-26,26,2,-6,5992.771877270892,1678831372326,"How many <b class=""r"">red</b> marbles did your opponent report drawing?",-1,-1,1678831332732,0,0.75
sona-47844,unif,under,trial,8,receiver,100,0.5,5,76,67,57,-19,19,11,-15,6342.465493690759,1678831456906,"How many <b class=""r"">red</b> marbles did your opponent report drawing?",-1,-1,1678831332732,0,0.75
sona-47844,unif,under,trial,10,receiver,100,0.5,5,44,37,39,-5,5,6,-12,5744.7165543245255,1678831547453,"How many <b class=""r"">red</b> marbles did your opponent report drawing?",-1,-1,1678831547453,0,0.75
sona-47844,unif,under,trial,12,receiver,100,0.5,5,94,87,90,-4,4,12,-18,5844.395203183699,1678831617506,"How many <b class=""r"">red</b> marbles did your opponent report drawing?",-1,-1,1678831547453,0,0.75
sona-47844,unif,under,trial,14,receiver,100,0.5,5,68,59,75,-7,0,6,-19,5539.563567072817,1678831679124,"How many <b class=""r"">red</b> marbles did your opponent report drawing?",-1,-1,1678831547453,0,0.75
sona-47844,unif,under,trial,16,receiver,100,0.5,5,44,41,60,-16,0,-10,-46,6484.965323588767,1678831780765,"How many <b class=""r"">red</b> marbles did your opponent report drawing?",-1,-1,1678831732329,0,0.75
sona-47844,unif,under,trial,18,receiver,100,0.5,5,76,74,86,-10,0,5,-71,6965.668497600898,1678831858713,"How many <b class=""r"">red</b> marbles did you actually draw (before any changes)?",-1,-1,1678831826387,0,0.75
sona-47844,unif,under,trial,20,receiver,100,0.5,5,21,18,26,-5,0,13,-84,5608.144843902861,1678831927392,"How many <b class=""r"">red</b> marbles did you actually draw (before any changes)?",-1,-1,1678831927393,0,0.75
sona-47844,unif,under,trial,22,receiver,100,0.5,5,73,66,80,-7,0,13,-91,5887.272115197988,1678832052620,"How many <b class=""r"">red</b> marbles did you actually draw (before any changes)?",-1,-1,1678832017670,0,0.75
sona-47844,unif,under,trial,24,receiver,100,0.5,5,73,68,85,-12,0,18,-108,7086.663782333334,1678832143999,"How many <b class=""r"">red</b> marbles did your opponent report drawing?",68,74,1678832143999,0,0.75
sona-47844,unif,under,trial,26,receiver,100,0.5,5,14,11,25,-11,0,12,-113,6251.553838086545,1678832235426,"How many <b class=""r"">red</b> marbles did your opponent report drawing?",-1,-1,1678832217154,0,0.75
sona-47844,unif,under,trial,28,receiver,100,0.5,5,62,57,78,-16,0,9,-126,6796.578199322658,1678832281178,"How many <b class=""r"">red</b> marbles did your opponent report drawing?",-1,-1,1678832217154,0,0.75
sona-47844,unif,under,trial,30,receiver,100,0.5,5,51,46,68,-17,0,26,-160,7487.7577054013955,1678832382522,"How many <b class=""r"">red</b> marbles did you actually draw (before any changes)?",-1,-1,1678832382522,0,0.75
sona-47844,unif,under,trial,32,receiver,100,0.5,5,81,75,89,-8,0,28,-170,6063.961813903077,1678832454899,"How many <b class=""r"">red</b> marbles did you actually draw (before any changes)?",-1,-1,1678832382522,0,0.75
sona-47844,unif,under,trial,34,receiver,100,0.5,5,37,31,45,-8,0,32,-182,6578.477166201795,1678832524913,"How many <b class=""r"">red</b> marbles did you actually draw (before any changes)?",-1,-1,1678832382522,0,0.75
sona-47844,unif,under,trial,36,receiver,100,0.5,5,32,28,49,-17,0,19,-186,5631.327446676783,1678832574469,"How many <b class=""r"">red</b> marbles did you actually draw (before any changes)?",-1,-1,1678832555691,0,0.75
sona-47844,unif,under,trial,38,receiver,100,0.5,5,68,64,89,-21,0,25,-213,5951.833732197046,1678832631532,"How many <b class=""r"">red</b> marbles did you actually draw (before any changes)?",-1,-1,1678832555691,0,0.75
sona-47844,unif,under,trial,40,receiver,100,0.5,5,46,42,65,-19,0,19,-226,7043.148927941633,1678832706213,"How many <b class=""r"">red</b> marbles did you actually draw (before any changes)?",-1,-1,1678832706213,0,0.75
sona-47844,unif,under,trial,42,receiver,100,0.5,5,56,51,60,-4,0,15,-269,6424.076948958524,1678832770605,"How many <b class=""r"">red</b> marbles did you actually draw (before any changes)?",-1,-1,1678832706213,0,0.75
sona-47844,unif,under,trial,44,receiver,100,0.5,5,27,23,45,-18,0,1,-273,5149.521741669642,1678832888535,"How many <b class=""r"">red</b> marbles did you actually draw (before any changes)?",-1,-1,1678832706213,0,0.75
sona-47844,unif,under,trial,46,receiver,100,0.5,5,67,66,87,-20,0,-1,-291,5798.799994181767,1678832943690,"How many <b class=""r"">red</b> marbles did you actually draw (before any changes)?",-1,-1,1678832924014,0,0.75
sona-47844,unif,under,trial,48,receiver,100,0.5,5,63,61,90,-27,0,-6,-313,5140.9054710554465,1678832994107,"How many <b class=""r"">red</b> marbles did you actually draw (before any changes)?",-1,-1,1678832924014,0,0.75
sona-47844,unif,under,trial,50,receiver,100,0.5,5,28,23,50,-22,0,-20,-321,6941.729852447608,1678833048934,"How many <b class=""r"">red</b> marbles did you actually draw (before any changes)?",-1,-1,1678833048934,0,0.75
sona-47844,unif,under,trial,52,receiver,100,0.5,5,31,25,46,-15,0,-14,-342,5340.536427647105,1678833150284,"How many <b class=""r"">red</b> marbles did you actually draw (before any changes)?",-1,-1,1678833048934,0,0.75
sona-47844,unif,under,trial,54,receiver,100,0.5,5,31,25,46,-15,0,-15,-356,6097.62020622463,1678833221807,"How many <b class=""r"">red</b> marbles did you actually draw (before any changes)?",-1,-1,1678833048934,0,0.75
sona-47844,unif,under,trial,56,receiver,100,0.5,5,36,31,58,-22,0,-4,-389,7073.870613209581,1678833294494,"How many <b class=""r"">red</b> marbles did you actually draw (before any changes)?",-1,-1,1678833277255,0,0.75
sona-47844,unif,under,trial,58,receiver,100,0.5,5,85,80,95,-10,0,6,-409,7407.260894758945,1678833367122,"How many <b class=""r"">red</b> marbles did your opponent report drawing?",80,80,1678833367122,0,0.75
sona-47844,unif,under,trial,60,receiver,100,0.5,5,32,30,67,-35,0,-11,-427,6324.615096445852,1678833663738,"How many <b class=""r"">red</b> marbles did your opponent report drawing?",-1,-1,1678833663738,0,0.75
sona-47844,unif,under,trial,62,receiver,100,0.5,5,19,18,45,-26,0,-37,-450,6523.393025615079,1678833963333,"How many <b class=""r"">red</b> marbles did your opponent report drawing?",18,18,1678833963333,0,0.75
sona-47844,unif,under,trial,64,receiver,100,0.5,5,43,35,65,-22,0,-59,-488,6379.755677725134,1678834033111,"How many <b class=""r"">red</b> marbles did you actually draw (before any changes)?",-1,-1,1678834000711,0,0.75
sona-47844,unif,under,trial,66,receiver,100,0.5,5,61,51,78,-17,0,-43,-521,6823.053373327478,1678834201306,"How many <b class=""r"">red</b> marbles did you actually draw (before any changes)?",-1,-1,1678834072709,0,0.75
sona-47844,unif,under,trial,68,receiver,100,0.5,5,52,44,76,-24,0,-60,-528,7137.83522406939,1678834317922,"How many <b class=""r"">red</b> marbles did your opponent report drawing?",44,44,1678834317922,0,0.75
sona-47844,unif,under,trial,70,receiver,100,0.5,5,30,24,56,-26,0,-69,-545,5343.43200850013,1678834390461,"How many <b class=""r"">red</b> marbles did your opponent report drawing?",-1,-1,1678834390461,0,0.75
sona-47844,unif,under,trial,72,receiver,100,0.5,5,73,68,89,-16,0,-43,-587,7241.694776578294,1678834499620,"How many <b class=""r"">red</b> marbles did your opponent report drawing?",-1,-1,1678834390461,0,0.75
sona-47844,unif,under,trial,74,receiver,100,0.5,5,44,38,71,-27,0,-47,-610,6676.484772348203,1678834567791,"How many <b class=""r"">red</b> marbles did your opponent report drawing?",-1,-1,1678834390461,0,0.75
sona-47844,unif,under,trial,76,receiver,100,0.5,5,48,41,98,-50,0,-72,-635,7225.998012963585,1678834614946,"How many <b class=""r"">red</b> marbles did your opponent report drawing?",-1,-1,1678834599166,0,0.75
sona-47844,unif,under,trial,78,receiver,100,0.5,5,45,41,78,-33,0,-68,-672,7028.472527806524,1678834734793,"How many <b class=""r"">red</b> marbles did your opponent report drawing?",-1,-1,1678834599166,0,0.75
sona-47844,unif,under,trial,80,receiver,100,0.5,5,70,68,91,-21,0,-71,-690,6762.199093824112,1678834802023,"How many <b class=""r"">red</b> marbles did your opponent report drawing?",-1,-1,1678834802023,0,0.75
sona-47844,unif,under,trial,82,receiver,100,0.5,5,55,51,81,-26,0,-68,-719,6101.15499460393,1678834901216,"How many <b class=""r"">red</b> marbles did your opponent report drawing?",-1,-1,1678834802023,0,0.75
sona-47844,unif,under,trial,84,receiver,100,0.5,5,48,42,80,-32,0,-54,-765,5157.361965370179,1678834978597,"How many <b class=""r"">red</b> marbles did your opponent report drawing?",-1,-1,1678834802023,0,0.75
sona-47844,unif,under,trial,86,receiver,100,0.5,5,13,10,40,-27,0,-61,-785,6575.962253382674,1678835036313,"How many <b class=""r"">red</b> marbles did your opponent report drawing?",-1,-1,1678835015976,0,0.75
sona-47844,unif,under,trial,88,receiver,100,0.5,5,22,17,45,-23,0,-60,-809,5737.246830504644,1678835173908,"How many <b class=""r"">red</b> marbles did your opponent report drawing?",17,17,1678835173909,0,0.75
sona-47844,unif,under,trial,90,receiver,100,0.5,5,25,24,48,-23,0,-69,-823,7486.556516797982,1678835244531,"How many <b class=""r"">red</b> marbles did your opponent report drawing?",-1,-1,1678835244531,0,0.75
sona-47844,unif,under,trial,92,receiver,100,0.5,5,62,54,89,-27,0,-74,-845,7495.113374109735,1678835520112,"How many <b class=""r"">red</b> marbles did your opponent report drawing?",-1,-1,1678835244531,0,0.75
sona-47844,unif,under,trial,94,receiver,100,0.5,5,22,15,40,-18,0,-87,-850,7012.827293271794,1678835660036,"How many <b class=""r"">red</b> marbles did your opponent report drawing?",-1,-1,1678835244531,0,0.75
sona-47844,unif,under,trial,96,receiver,100,0.5,5,61,55,71,-10,0,-70,-877,5358.278737755222,1678835730175,"How many <b class=""r"">red</b> marbles did you actually draw (before any changes)?",-1,-1,1678835699717,0,0.75
sona-47844,unif,under,trial,98,receiver,100,0.5,5,64,61,90,-26,0,-80,-893,6330.253574286935,1678836686836,"How many <b class=""r"">red</b> marbles did you actually draw (before any changes)?",-1,-1,1678835699717,0,0.75
sona-47844,unif,under,trial,100,receiver,100,0.5,5,42,32,58,-16,0,-78,-911,6232.359690788642,1678836727748,"How many <b class=""r"">red</b> marbles did you actually draw (before any changes)?",-1,-1,1678836727748,0,0.75
sona-41729,linear,under,trial,1,receiver,100,0.5,5,65,63,65,0,0,0,0,5351.175447387756,1678832242494,"How many <b class=""r"">red</b> marbles did your opponent report drawing?",-1,-1,1678832208176,0,0.8333333333333334
sona-41729,linear,under,trial,3,receiver,100,0.5,5,57,51,53,-4,4,-4,0,6595.835052591987,1678832304959,"How many <b class=""r"">red</b> marbles did your opponent report drawing?",-1,-1,1678832208176,0,0.8333333333333334
sona-41729,linear,under,trial,5,receiver,100,0.5,5,43,38,40,-3,3,-7,0,5301.0804782454525,1678832405642,"How many <b class=""r"">red</b> marbles did your opponent report drawing?",-1,-1,1678832405642,0,0.8333333333333334
sona-41729,linear,under,trial,7,receiver,100,0.5,5,34,29,29,-5,5,-12,-5,6170.872358462261,1678832437526,"How many <b class=""r"">red</b> marbles did your opponent report drawing?",-1,-1,1678832405642,0,0.8333333333333334
sona-41729,linear,under,trial,9,receiver,100,0.5,5,30,29,29,-1,1,-13,-6,5810.0613370503215,1678832489893,"How many <b class=""r"">red</b> marbles did you actually draw (before any changes)?",-1,-1,1678832467776,0,0.8333333333333334
