subjID,cost,goal,exptPart,trialNumber,roleCurrent,marblesSampled,probRed,lambda,k,ksay,kest,playerTrialScore,oppTrialScore,playerTotalScore,oppTotalScore,waitTime,responseTime,catchQuestion,catchKey,catchResponse,catchTime,trialTime,accuracy
sona-33494,unif,over,trial,2,sender,100,0.5,5,47,58,52,5,-5,5,-5,2721.056814496282,1680660077257,"How many <b class=""r"">red</b> marbles did you actually draw (before any changes)?",47,47,1680660077258,0,0.9166666666666666
sona-33494,unif,over,trial,4,sender,100,0.5,5,33,43,32,0,-1,1,-2,2227.414804458873,1680660132862,"How many <b class=""r"">red</b> marbles did you actually draw (before any changes)?",-1,-1,1680660077258,0,0.9166666666666666
sona-33494,unif,over,trial,6,sender,100,0.5,5,62,94,92,30,-30,10,-32,2229.7374373768816,1680660195551,"How many <b class=""r"">red</b> marbles did you actually draw (before any changes)?",-1,-1,1680660148900,0,0.9166666666666666
sona-33494,unif,over,trial,8,sender,100,0.5,5,64,88,81,17,-17,19,-49,2220.705827624045,1680660267380,"How many <b class=""r"">red</b> marbles did you actually draw (before any changes)?",-1,-1,1680660148900,0,0.9166666666666666
sona-33494,unif,over,trial,10,sender,100,0.5,5,63,52,43,0,-20,14,-69,2681.956527506255,1680660323766,"How many <b class=""r"">red</b> marbles did you actually draw (before any changes)?",-1,-1,1680660323766,0,0.9166666666666666
sona-33494,unif,over,trial,14,sender,100,0.5,5,48,56,47,0,-1,-4,-72,2632.830683135887,1680660440423,"How many <b class=""r"">red</b> marbles did you actually draw (before any changes)?",-1,-1,1680660323766,0,0.9166666666666666
sona-33494,unif,over,trial,16,sender,100,0.5,5,71,86,81,10,-10,-4,-82,2186.381791328352,1680660494550,"How many <b class=""r"">red</b> marbles did you actually draw (before any changes)?",71,50,1680660494550,0,0.9166666666666666
sona-33494,unif,over,trial,18,sender,100,0.5,5,66,91,86,20,-20,-11,-102,2830.042259593904,1680660562550,"How many <b class=""r"">red</b> marbles did you actually draw (before any changes)?",-1,-1,1680660494550,0,0.9166666666666666
sona-33494,unif,over,trial,20,sender,100,0.5,5,35,66,64,29,-29,15,-131,2427.886483972067,1680660619622,"How many <b class=""r"">red</b> marbles did you actually draw (before any changes)?",-1,-1,1680660619622,0,0.9166666666666666
sona-33494,unif,over,trial,22,sender,100,0.5,5,67,90,86,19,-19,24,-150,2361.735105049572,1680660671948,"How many <b class=""r"">red</b> marbles did you actually draw (before any changes)?",-1,-1,1680660619622,0,0.9166666666666666
sona-33494,unif,over,trial,24,sender,100,0.5,5,54,73,69,15,-15,37,-165,2323.1970401204444,1680660709163,"How many <b class=""r"">red</b> marbles did you actually draw (before any changes)?",-1,-1,1680660619622,0,0.9166666666666666
sona-33494,unif,over,trial,26,sender,100,0.5,5,62,84,75,13,-13,39,-178,2686.299581194173,1680660784870,"How many <b class=""r"">red</b> marbles did you actually draw (before any changes)?",-1,-1,1680660724389,0,0.9166666666666666
sona-33494,unif,over,trial,28,sender,100,0.5,5,62,79,72,10,-10,42,-188,2524.965189068715,1680660832363,"How many <b class=""r"">red</b> marbles did you actually draw (before any changes)?",-1,-1,1680660724389,0,0.9166666666666666
sona-33494,unif,over,trial,30,sender,100,0.5,5,61,75,73,12,-12,43,-200,3235.9989506272063,1680660870877,"How many <b class=""r"">red</b> marbles did you actually draw (before any changes)?",-1,-1,1680660870878,0,0.9166666666666666
sona-33494,unif,over,trial,32,sender,100,0.5,5,47,71,65,18,-18,37,-218,2814.4414765730826,1680660930083,"How many <b class=""r"">red</b> marbles did you actually draw (before any changes)?",-1,-1,1680660870878,0,0.9166666666666666
sona-33494,unif,over,trial,34,sender,100,0.5,5,11,32,26,15,-15,46,-233,2880.618522372833,1680661005673,"How many <b class=""r"">red</b> marbles did you actually draw (before any changes)?",-1,-1,1680660870878,0,0.9166666666666666
sona-33494,unif,over,trial,36,sender,100,0.5,5,18,34,30,12,-12,54,-245,2416.773514086881,1680661056433,"How many <b class=""r"">red</b> marbles did you actually draw (before any changes)?",-1,-1,1680661023466,0,0.9166666666666666
sona-33494,unif,over,trial,38,sender,100,0.5,5,53,69,62,9,-9,55,-254,3191.061982398,1680661121722,"How many <b class=""r"">red</b> marbles did you actually draw (before any changes)?",-1,-1,1680661023466,0,0.9166666666666666
sona-33494,unif,over,trial,40,sender,100,0.5,5,59,70,67,8,-8,59,-262,2785.6190321959048,1680661215630,"How many <b class=""r"">red</b> marbles did you actually draw (before any changes)?",-1,-1,1680661215630,0,0.9166666666666666
sona-33494,unif,over,trial,42,sender,100,0.5,5,79,92,86,7,-7,62,-269,2420.983843685906,1680661265435,"How many <b class=""r"">red</b> marbles did you actually draw (before any changes)?",-1,-1,1680661215630,0,0.9166666666666666
sona-33494,unif,over,trial,44,sender,100,0.5,5,23,46,40,17,-17,64,-286,2065.097502051871,1680661319686,"How many <b class=""r"">red</b> marbles did you actually draw (before any changes)?",-1,-1,1680661215630,0,0.9166666666666666
sona-33494,unif,over,trial,46,sender,100,0.5,5,59,75,66,7,-7,68,-293,2244.441040571518,1680661362166,"How many <b class=""r"">red</b> marbles did you actually draw (before any changes)?",-1,-1,1680661334639,0,0.9166666666666666
sona-33494,unif,over,trial,50,sender,100,0.5,5,28,47,42,14,-14,71,-309,2100.8694536514786,1680661452145,"How many <b class=""r"">red</b> marbles did your opponent report drawing?",-1,-1,1680661452145,0,0.9166666666666666
sona-33494,unif,over,trial,52,sender,100,0.5,5,44,59,52,8,-8,76,-317,2738.721642543511,1680661507494,"How many <b class=""r"">red</b> marbles did your opponent report drawing?",-1,-1,1680661477060,0,0.9166666666666666
sona-33494,unif,over,trial,54,sender,100,0.5,5,53,87,79,26,-26,88,-343,3209.2969721273953,1680661547564,"How many <b class=""r"">red</b> marbles did your opponent report drawing?",-1,-1,1680661477060,0,0.9166666666666666
sona-33494,unif,over,trial,56,sender,100,0.5,5,32,67,62,30,-30,117,-373,2892.20212581969,1680661614071,"How many <b class=""r"">red</b> marbles did your opponent report drawing?",-1,-1,1680661572936,0,0.9166666666666666
sona-33494,unif,over,trial,58,sender,100,0.5,5,56,77,72,16,-16,124,-389,2189.3535629293237,1680661662807,"How many <b class=""r"">red</b> marbles did your opponent report drawing?",-1,-1,1680661630825,0,0.9166666666666666
sona-33494,unif,over,trial,62,sender,100,0.5,5,68,83,76,8,-8,97,-397,2402.6497191243316,1680661771539,"How many <b class=""r"">red</b> marbles did your opponent report drawing?",-1,-1,1680661733305,0,0.9166666666666666
sona-33494,unif,over,trial,64,sender,100,0.5,5,61,83,78,17,-17,108,-414,3084.644394725786,1680661810823,"How many <b class=""r"">red</b> marbles did your opponent report drawing?",-1,-1,1680661733305,0,0.9166666666666666
sona-33494,unif,over,trial,66,sender,100,0.5,5,51,70,67,16,-16,108,-430,2095.477924829449,1680661869108,"How many <b class=""r"">red</b> marbles did your opponent report drawing?",-1,-1,1680661823756,0,0.9166666666666666
sona-33494,unif,over,trial,68,sender,100,0.5,5,81,96,89,8,-8,104,-438,2248.304050566506,1680661907311,"How many <b class=""r"">red</b> marbles did your opponent report drawing?",-1,-1,1680661881210,0,0.9166666666666666
sona-33494,unif,over,trial,70,sender,100,0.5,5,62,83,78,16,-16,119,-454,2633.9089758832565,1680661965606,"How many <b class=""r"">red</b> marbles did your opponent report drawing?",-1,-1,1680661965606,0,0.9166666666666666
sona-33494,unif,over,trial,72,sender,100,0.5,5,23,55,51,28,-28,141,-482,2719.9592307623616,1680662030576,"How many <b class=""r"">red</b> marbles did your opponent report drawing?",-1,-1,1680661965606,0,0.9166666666666666
sona-33494,unif,over,trial,74,sender,100,0.5,5,57,80,74,17,-17,134,-499,2365.581895388865,1680662089926,"How many <b class=""r"">red</b> marbles did your opponent report drawing?",-1,-1,1680661965606,0,0.9166666666666666
sona-33494,unif,over,trial,76,sender,100,0.5,5,68,89,83,15,-15,135,-514,2928.297528705576,1680662137207,"How many <b class=""r"">red</b> marbles did your opponent report drawing?",-1,-1,1680662103370,0,0.9166666666666666
sona-33494,unif,over,trial,78,sender,100,0.5,5,52,90,85,33,-33,164,-547,2389.348685510929,1680662183433,"How many <b class=""r"">red</b> marbles did your opponent report drawing?",-1,-1,1680662103370,0,0.9166666666666666
sona-33494,unif,over,trial,80,sender,100,0.5,5,47,68,63,16,-16,171,-563,3165.035765913536,1680662225870,"How many <b class=""r"">red</b> marbles did your opponent report drawing?",-1,-1,1680662225870,0,0.9166666666666666
sona-33494,unif,over,trial,82,sender,100,0.5,5,39,78,72,33,-33,191,-596,2314.2058898681053,1680662285008,"How many <b class=""r"">red</b> marbles did your opponent report drawing?",-1,-1,1680662241693,0,0.9166666666666666
sona-33494,unif,over,trial,84,sender,100,0.5,5,17,70,67,50,-50,212,-646,2068.955147541667,1680662336262,"How many <b class=""r"">red</b> marbles did your opponent report drawing?",-1,-1,1680662241693,0,0.9166666666666666
sona-33494,unif,over,trial,86,sender,100,0.5,5,61,99,94,33,-33,240,-679,2448.0824570734603,1680662396750,"How many <b class=""r"">red</b> marbles did your opponent report drawing?",-1,-1,1680662355516,0,0.9166666666666666
sona-33494,unif,over,trial,88,sender,100,0.5,5,60,85,81,21,-21,249,-700,2242.8279451343697,1680662428919,"How many <b class=""r"">red</b> marbles did your opponent report drawing?",-1,-1,1680662355516,0,0.9166666666666666
sona-33494,unif,over,trial,90,sender,100,0.5,5,70,87,82,12,-12,257,-712,2814.5481687067736,1680662467662,"How many <b class=""r"">red</b> marbles did your opponent report drawing?",-1,-1,1680662467663,0,0.9166666666666666
sona-33494,unif,over,trial,92,sender,100,0.5,5,31,75,66,35,-35,283,-747,2516.7587218727294,1680662527558,"How many <b class=""r"">red</b> marbles did your opponent report drawing?",-1,-1,1680662467663,0,0.9166666666666666
sona-33494,unif,over,trial,94,sender,100,0.5,5,39,94,89,50,-50,330,-797,2145.358622601525,1680662579082,"How many <b class=""r"">red</b> marbles did your opponent report drawing?",-1,-1,1680662467663,0,0.9166666666666666
sona-33494,unif,over,trial,96,sender,100,0.5,5,39,63,58,19,-19,335,-816,3128.987725386836,1680662618101,"How many <b class=""r"">red</b> marbles did your opponent report drawing?",-1,-1,1680662590937,0,0.9166666666666666
sona-33494,unif,over,trial,98,sender,100,0.5,5,17,47,42,25,-25,356,-841,2739.241149283191,1680662667222,"How many <b class=""r"">red</b> marbles did your opponent report drawing?",-1,-1,1680662590937,0,0.9166666666666666
sona-33494,unif,over,trial,100,sender,100,0.5,5,40,61,55,15,-15,364,-856,2146.3089385834446,1680662706441,"How many <b class=""r"">red</b> marbles did your opponent report drawing?",-1,-1,1680662706442,0,0.9166666666666666
sona-48135,unif,under,trial,2,sender,100,0.5,5,39,50,54,0,-15,-7,-8,2472.4404505812563,1680628082893,"How many <b class=""r"">red</b> marbles did your opponent report drawing?",-1,-1,1680627998850,0,0.9166666666666666
sona-48135,unif,under,trial,4,sender,100,0.5,5,31,34,35,0,-4,-16,-3,2076.863578746419,1680628123598,"How many <b class=""r"">red</b> marbles did your opponent report drawing?",-1,-1,1680627998850,0,0.9166666666666666
sona-48135,unif,under,trial,6,sender,100,0.5,5,79,79,84,0,-5,-23,-1,2504.854810988243,1680628193422,"How many <b class=""r"">red</b> marbles did your opponent report drawing?",-1,-1,1680628170716,0,0.9166666666666666
sona-48135,unif,under,trial,8,sender,100,0.5,5,9,9,12,0,-3,-24,-3,2303.0649205463515,1680628266584,"How many <b class=""r"">red</b> marbles did your opponent report drawing?",-1,-1,1680628170716,0,0.9166666666666666
sona-48135,unif,under,trial,10,sender,100,0.5,5,21,16,19,2,-2,-29,2,2413.4000032913773,1680628341081,"How many <b class=""r"">red</b> marbles did your opponent report drawing?",-1,-1,1680628341082,0,0.9166666666666666
sona-48135,unif,under,trial,12,sender,100,0.5,5,37,56,59,0,-22,-42,-7,2966.7002303368586,1680628405875,"How many <b class=""r"">red</b> marbles did your opponent report drawing?",-1,-1,1680628341082,0,0.9166666666666666
sona-48135,unif,under,trial,14,sender,100,0.5,5,58,58,62,0,-4,-46,-11,2566.2268522669356,1680628449686,"How many <b class=""r"">red</b> marbles did your opponent report drawing?",-1,-1,1680628341082,0,0.9166666666666666
sona-48135,unif,under,trial,16,sender,100,0.5,5,44,71,80,0,-36,-47,-47,2147.158891586869,1680628507312,"How many <b class=""r"">red</b> marbles did your opponent report drawing?",-1,-1,1680628462668,0,0.9166666666666666
sona-48135,unif,under,trial,18,sender,100,0.5,5,74,74,77,0,-3,-70,-27,2292.2917428472115,1680628532971,"How many <b class=""r"">red</b> marbles did your opponent report drawing?",-1,-1,1680628462668,0,0.9166666666666666
sona-48135,unif,under,trial,20,sender,100,0.5,5,58,47,53,5,-5,-72,-25,2211.855420997116,1680628594440,"How many <b class=""r"">red</b> marbles did your opponent report drawing?",-1,-1,1680628594440,0,0.9166666666666666
sona-48135,unif,under,trial,22,sender,100,0.5,5,46,35,37,9,-9,-64,-33,2076.823233800175,1680628673952,"How many <b class=""r"">red</b> marbles did your opponent report drawing?",-1,-1,1680628594440,0,0.9166666666666666
sona-48135,unif,under,trial,24,sender,100,0.5,5,25,25,29,0,-4,-75,-26,2574.6300299654276,1680628716590,"How many <b class=""r"">red</b> marbles did your opponent report drawing?",-1,-1,1680628594440,0,0.9166666666666666
sona-48135,unif,under,trial,26,sender,100,0.5,5,60,53,56,4,-4,-88,-13,2107.2041566259477,1680628784569,"How many <b class=""r"">red</b> marbles did your opponent report drawing?",-1,-1,1680628731175,0,0.9166666666666666
sona-48135,unif,under,trial,30,sender,100,0.5,5,17,19,25,0,-8,-100,-70,2319.4082448787512,1680628892526,"How many <b class=""r"">red</b> marbles did your opponent report drawing?",-1,-1,1680628892526,0,0.9166666666666666
sona-48135,unif,under,trial,32,sender,100,0.5,5,8,1,3,5,-5,-117,-53,2459.193109150302,1680628938153,"How many <b class=""r"">red</b> marbles did you actually draw (before any changes)?",8,8,1680628938153,0,0.9166666666666666
sona-48135,unif,under,trial,34,sender,100,0.5,5,47,47,53,0,-6,-120,-56,2386.84045428805,1680628975147,"How many <b class=""r"">red</b> marbles did you actually draw (before any changes)?",-1,-1,1680628938153,0,0.9166666666666666
sona-48135,unif,under,trial,36,sender,100,0.5,5,68,80,84,0,-16,-120,-72,2851.9242980396634,1680629022760,"How many <b class=""r"">red</b> marbles did you actually draw (before any changes)?",68,62,1680629022760,0,0.9166666666666666
sona-48135,unif,under,trial,38,sender,100,0.5,5,36,42,47,0,-11,-126,-77,3170.879871955115,1680629065033,"How many <b class=""r"">red</b> marbles did you actually draw (before any changes)?",-1,-1,1680629022760,0,0.9166666666666666
sona-48135,unif,under,trial,40,sender,100,0.5,5,49,42,47,2,-2,-136,-67,2739.499105453673,1680629110504,"How many <b class=""r"">red</b> marbles did you actually draw (before any changes)?",-1,-1,1680629110504,0,0.9166666666666666
sona-48135,unif,under,trial,42,sender,100,0.5,5,89,89,95,0,-6,-137,-72,3196.584575408529,1680629166299,"How many <b class=""r"">red</b> marbles did you actually draw (before any changes)?",-1,-1,1680629110504,0,0.9166666666666666
sona-48135,unif,under,trial,44,sender,100,0.5,5,51,67,74,0,-23,-141,-91,2528.0172114956868,1680629202818,"How many <b class=""r"">red</b> marbles did you actually draw (before any changes)?",51,51,1680629202818,0,0.9166666666666666
sona-48135,unif,under,trial,46,sender,100,0.5,5,32,26,30,2,-2,-154,-78,2400.3224388372,1680629269611,"How many <b class=""r"">red</b> marbles did you actually draw (before any changes)?",-1,-1,1680629223225,0,0.9166666666666666
sona-48135,unif,under,trial,48,sender,100,0.5,5,44,34,38,6,-6,-165,-67,2950.116935786117,1680629304967,"How many <b class=""r"">red</b> marbles did you actually draw (before any changes)?",44,44,1680629304967,0,0.9166666666666666
sona-48135,unif,under,trial,50,sender,100,0.5,5,51,47,51,0,0,-170,-62,3103.9708865095563,1680629333623,"How many <b class=""r"">red</b> marbles did you actually draw (before any changes)?",-1,-1,1680629333623,0,0.9166666666666666
sona-48135,unif,under,trial,52,sender,100,0.5,5,62,84,87,0,-25,-206,-51,2376.404269171421,1680629403203,"How many <b class=""r"">red</b> marbles did you actually draw (before any changes)?",-1,-1,1680629333623,0,0.9166666666666666
sona-48135,unif,under,trial,54,sender,100,0.5,5,65,69,73,0,-8,-215,-50,2306.9457048186787,1680629451239,"How many <b class=""r"">red</b> marbles did you actually draw (before any changes)?",65,65,1680629451239,0,0.9166666666666666
sona-48135,unif,under,trial,56,sender,100,0.5,5,31,31,33,0,-2,-222,-45,2246.568880755234,1680629492561,"How many <b class=""r"">red</b> marbles did you actually draw (before any changes)?",-1,-1,1680629472018,0,0.9166666666666666
sona-48135,unif,under,trial,58,sender,100,0.5,5,69,69,72,0,-3,-223,-47,3080.4745863695994,1680629532758,"How many <b class=""r"">red</b> marbles did you actually draw (before any changes)?",-1,-1,1680629472018,0,0.9166666666666666
sona-48135,unif,under,trial,60,sender,100,0.5,5,65,65,70,0,-5,-235,-52,2321.2936665146945,1680629575290,"How many <b class=""r"">red</b> marbles did you actually draw (before any changes)?",-1,-1,1680629575290,0,0.9166666666666666
sona-48135,unif,under,trial,62,sender,100,0.5,5,29,27,29,0,0,-237,-50,2415.005554696627,1680629621861,"How many <b class=""r"">red</b> marbles did you actually draw (before any changes)?",-1,-1,1680629575290,0,0.9166666666666666
sona-48135,unif,under,trial,64,sender,100,0.5,5,35,34,39,0,-4,-247,-44,2168.219311455694,1680629659707,"How many <b class=""r"">red</b> marbles did you actually draw (before any changes)?",-1,-1,1680629575290,0,0.9166666666666666
sona-48135,unif,under,trial,66,sender,100,0.5,5,40,33,40,0,0,-255,-36,2431.853420482327,1680629725761,"How many <b class=""r"">red</b> marbles did you actually draw (before any changes)?",-1,-1,1680629674807,0,0.9166666666666666
sona-48135,unif,under,trial,68,sender,100,0.5,5,72,91,95,0,-23,-263,-51,2773.318286364215,1680629778234,"How many <b class=""r"">red</b> marbles did you actually draw (before any changes)?",-1,-1,1680629674807,0,0.9166666666666666
sona-48135,unif,under,trial,70,sender,100,0.5,5,68,48,54,14,-14,-277,-65,2339.5871002592894,1680629821662,"How many <b class=""r"">red</b> marbles did you actually draw (before any changes)?",-1,-1,1680629821662,0,0.9166666666666666
sona-48135,unif,under,trial,72,sender,100,0.5,5,45,48,53,0,-8,-279,-71,2796.591523094613,1680629867904,"How many <b class=""r"">red</b> marbles did you actually draw (before any changes)?",45,45,1680629867905,0,0.9166666666666666
sona-48135,unif,under,trial,74,sender,100,0.5,5,55,44,47,8,-8,-280,-70,2115.233297435349,1680629921743,"How many <b class=""r"">red</b> marbles did you actually draw (before any changes)?",-1,-1,1680629867905,0,0.9166666666666666
sona-48135,unif,under,trial,76,sender,100,0.5,5,68,80,85,0,-17,-281,-86,2513.6827540340064,1680629979542,"How many <b class=""r"">red</b> marbles did you actually draw (before any changes)?",-1,-1,1680629941911,0,0.9166666666666666
sona-48135,unif,under,trial,78,sender,100,0.5,5,58,62,71,0,-13,-292,-88,2577.9013445084606,1680630008439,"How many <b class=""r"">red</b> marbles did you actually draw (before any changes)?",-1,-1,1680629941911,0,0.9166666666666666
sona-48135,unif,under,trial,80,sender,100,0.5,5,57,60,66,0,-9,-307,-82,2191.983349688981,1680630047298,"How many <b class=""r"">red</b> marbles did your opponent report drawing?",-1,-1,1680630047298,0,0.9166666666666666
sona-48135,unif,under,trial,82,sender,100,0.5,5,37,30,33,4,-4,-306,-86,2328.7351354621046,1680630100573,"How many <b class=""r"">red</b> marbles did your opponent report drawing?",-1,-1,1680630047298,0,0.9166666666666666
sona-48135,unif,under,trial,84,sender,100,0.5,5,46,71,77,0,-31,-311,-117,2717.226125597283,1680630156983,"How many <b class=""r"">red</b> marbles did your opponent report drawing?",-1,-1,1680630047298,0,0.9166666666666666
sona-48135,unif,under,trial,88,sender,100,0.5,5,36,33,38,0,-2,-314,-123,2889.2716699872235,1680630241973,"How many <b class=""r"">red</b> marbles did you actually draw (before any changes)?",36,36,1680630241973,0,0.9166666666666666
sona-48135,unif,under,trial,90,sender,100,0.5,5,68,72,79,0,-11,-318,-130,3070.8204509545035,1680630292468,"How many <b class=""r"">red</b> marbles did you actually draw (before any changes)?",-1,-1,1680630292468,0,0.9166666666666666
sona-48135,unif,under,trial,92,sender,100,0.5,5,41,41,48,0,-7,-323,-132,3193.764773822829,1680630329300,"How many <b class=""r"">red</b> marbles did you actually draw (before any changes)?",-1,-1,1680630292468,0,0.9166666666666666
sona-48135,unif,under,trial,94,sender,100,0.5,5,54,52,55,0,-1,-335,-121,3011.2453795430993,1680630359984,"How many <b class=""r"">red</b> marbles did you actually draw (before any changes)?",-1,-1,1680630292468,0,0.9166666666666666
sona-48135,unif,under,trial,96,sender,100,0.5,5,44,41,49,0,-5,-340,-121,2278.7004472136673,1680630410513,"How many <b class=""r"">red</b> marbles did you actually draw (before any changes)?",-1,-1,1680630383857,0,0.9166666666666666
sona-48135,unif,under,trial,98,sender,100,0.5,5,62,76,80,0,-18,-341,-139,3098.159808228221,1680630453963,"How many <b class=""r"">red</b> marbles did you actually draw (before any changes)?",-1,-1,1680630383857,0,0.9166666666666666
sona-48135,unif,under,trial,100,sender,100,0.5,5,31,58,61,0,-30,-360,-150,2373.529461014752,1680630508192,"How many <b class=""r"">red</b> marbles did you actually draw (before any changes)?",-1,-1,1680630508192,0,0.9166666666666666
sona-37592,unif,under,trial,2,sender,100,0.5,5,52,44,47,5,-5,1,-1,2605.9348975940893,1678834905527,"How many <b class=""r"">red</b> marbles did your opponent report drawing?",-1,-1,1678834791824,0,1
sona-37592,unif,under,trial,4,sender,100,0.5,5,77,77,83,0,-6,-1,-5,3031.5351075572075,1678834940581,"How many <b class=""r"">red</b> marbles did your opponent report drawing?",-1,-1,1678834791824,0,1
sona-37592,unif,under,trial,6,sender,100,0.5,5,45,41,46,0,-1,-1,-6,2125.086434769484,1678834979365,"How many <b class=""r"">red</b> marbles did your opponent report drawing?",-1,-1,1678834956657,0,1
sona-37592,unif,under,trial,8,sender,100,0.5,5,73,68,72,1,-1,-3,-4,2258.7237468767707,1678835033899,"How many <b class=""r"">red</b> marbles did your opponent report drawing?",-1,-1,1678834993092,0,1
sona-37592,unif,under,trial,10,sender,100,0.5,5,34,30,33,1,-1,-2,-5,3162.126069017911,1678835065015,"How many <b class=""r"">red</b> marbles did your opponent report drawing?",-1,-1,1678835065015,0,1
sona-37592,unif,under,trial,12,sender,100,0.5,5,55,48,53,2,-2,-1,-6,3009.7536234453137,1678835095740,"How many <b class=""r"">red</b> marbles did your opponent report drawing?",-1,-1,1678835065015,0,1
sona-37592,unif,under,trial,14,sender,100,0.5,5,59,57,60,0,-1,-6,-7,2506.692910541891,1678835139406,"How many <b class=""r"">red</b> marbles did your opponent report drawing?",-1,-1,1678835065015,0,1
sona-37592,unif,under,trial,16,sender,100,0.5,5,58,41,46,12,-12,-1,-12,2784.3529482979147,1678835180495,"How many <b class=""r"">red</b> marbles did your opponent report drawing?",-1,-1,1678835152202,0,1
sona-37592,unif,under,trial,18,sender,100,0.5,5,34,28,35,0,-1,-4,-10,2101.1511060449584,1678835205141,"How many <b class=""r"">red</b> marbles did your opponent report drawing?",-1,-1,1678835152202,0,1
sona-37592,unif,under,trial,20,sender,100,0.5,5,38,25,29,9,-9,4,-19,2134.2701067475773,1678835235231,"How many <b class=""r"">red</b> marbles did your opponent report drawing?",-1,-1,1678835235231,0,1
sona-37592,unif,under,trial,22,sender,100,0.5,5,21,11,19,2,-2,4,-19,2671.1630141874252,1678835264436,"How many <b class=""r"">red</b> marbles did your opponent report drawing?",-1,-1,1678835235231,0,1
sona-37592,unif,under,trial,24,sender,100,0.5,5,48,40,51,0,-3,0,-22,2140.93670246986,1678835292448,"How many <b class=""r"">red</b> marbles did your opponent report drawing?",-1,-1,1678835235231,0,1
sona-37592,unif,under,trial,26,sender,100,0.5,5,50,33,40,10,-10,8,-30,3020.1823390465333,1678835328049,"How many <b class=""r"">red</b> marbles did your opponent report drawing?",-1,-1,1678835302515,0,1
sona-37592,unif,under,trial,28,sender,100,0.5,5,10,5,9,1,-1,7,-31,3126.9908185467766,1678835364114,"How many <b class=""r"">red</b> marbles did you actually draw (before any changes)?",10,10,1678835364114,0,1
sona-37592,unif,under,trial,30,sender,100,0.5,5,48,35,45,3,-3,9,-33,2572.546855504006,1678835399945,"How many <b class=""r"">red</b> marbles did you actually draw (before any changes)?",-1,-1,1678835399945,0,1
sona-37592,unif,under,trial,32,sender,100,0.5,5,47,33,37,10,-10,19,-43,2555.9679119304833,1678835434029,"How many <b class=""r"">red</b> marbles did you actually draw (before any changes)?",-1,-1,1678835399945,0,1
sona-37592,unif,under,trial,34,sender,100,0.5,5,48,34,41,7,-7,26,-50,2184.6002574792774,1678835465112,"How many <b class=""r"">red</b> marbles did you actually draw (before any changes)?",-1,-1,1678835399945,0,1
sona-37592,unif,under,trial,36,sender,100,0.5,5,56,40,46,10,-10,33,-60,2633.5675360944933,1678835522844,"How many <b class=""r"">red</b> marbles did you actually draw (before any changes)?",-1,-1,1678835478279,0,1
sona-37592,unif,under,trial,38,sender,100,0.5,5,84,60,67,17,-17,50,-77,2614.3697458673446,1678835552044,"How many <b class=""r"">red</b> marbles did you actually draw (before any changes)?",-1,-1,1678835478279,0,1
sona-37592,unif,under,trial,40,sender,100,0.5,5,79,63,72,7,-7,54,-81,2188.5883464784138,1678835589293,"How many <b class=""r"">red</b> marbles did your opponent report drawing?",-1,-1,1678835589294,0,1
sona-37592,unif,under,trial,42,sender,100,0.5,5,66,51,63,3,-3,55,-84,2157.8694940317546,1678835619675,"How many <b class=""r"">red</b> marbles did your opponent report drawing?",-1,-1,1678835589294,0,1
sona-37592,unif,under,trial,44,sender,100,0.5,5,59,40,47,12,-12,66,-95,2520.376658261889,1678835653540,"How many <b class=""r"">red</b> marbles did your opponent report drawing?",-1,-1,1678835589294,0,1
sona-37592,unif,under,trial,46,sender,100,0.5,5,68,47,50,18,-18,83,-112,2305.4394472939903,1678835685374,"How many <b class=""r"">red</b> marbles did you actually draw (before any changes)?",68,68,1678835685374,0,1
sona-37592,unif,under,trial,48,sender,100,0.5,5,41,28,33,8,-8,88,-117,2883.5332610632768,1678835722657,"How many <b class=""r"">red</b> marbles did you actually draw (before any changes)?",-1,-1,1678835685374,0,1
sona-37592,unif,under,trial,50,sender,100,0.5,5,30,14,21,9,-9,90,-119,2184.8249778768886,1678835759589,"How many <b class=""r"">red</b> marbles did you actually draw (before any changes)?",-1,-1,1678835759589,0,1
sona-37592,unif,under,trial,52,sender,100,0.5,5,68,50,55,13,-13,101,-132,2877.449422607302,1678835794588,"How many <b class=""r"">red</b> marbles did you actually draw (before any changes)?",-1,-1,1678835759589,0,1
sona-37592,unif,under,trial,54,sender,100,0.5,5,35,24,24,11,-11,110,-141,2524.857166088922,1678835829121,"How many <b class=""r"">red</b> marbles did you actually draw (before any changes)?",-1,-1,1678835759589,0,1
sona-37592,unif,under,trial,56,sender,100,0.5,5,82,63,70,12,-12,122,-153,2628.124885901938,1678835864018,"How many <b class=""r"">red</b> marbles did you actually draw (before any changes)?",-1,-1,1678835838604,0,1
sona-37592,unif,under,trial,58,sender,100,0.5,5,30,17,22,8,-8,126,-157,2327.068654144957,1678835893652,"How many <b class=""r"">red</b> marbles did you actually draw (before any changes)?",30,30,1678835893652,0,1
sona-37592,unif,under,trial,60,sender,100,0.5,5,66,51,57,9,-9,132,-163,2677.995648786966,1678835930838,"How many <b class=""r"">red</b> marbles did you actually draw (before any changes)?",-1,-1,1678835930838,0,1
sona-37592,unif,under,trial,62,sender,100,0.5,5,75,55,60,15,-15,146,-178,2129.7469111057553,1678835965333,"How many <b class=""r"">red</b> marbles did you actually draw (before any changes)?",-1,-1,1678835930838,0,1
sona-37592,unif,under,trial,64,sender,100,0.5,5,38,28,32,6,-6,151,-184,3000.10417665225,1678836001467,"How many <b class=""r"">red</b> marbles did your opponent report drawing?",-1,-1,1678835974917,0,1
sona-37592,unif,under,trial,66,sender,100,0.5,5,27,15,20,7,-7,156,-189,2152.4738235490213,1678836028915,"How many <b class=""r"">red</b> marbles did your opponent report drawing?",-1,-1,1678836010132,0,1
sona-37592,unif,under,trial,68,sender,100,0.5,5,52,36,44,8,-8,163,-197,2139.051182200299,1678836057348,"How many <b class=""r"">red</b> marbles did your opponent report drawing?",-1,-1,1678836010132,0,1
sona-37592,unif,under,trial,70,sender,100,0.5,5,66,48,51,15,-15,176,-210,2939.9097632850985,1678836103413,"How many <b class=""r"">red</b> marbles did your opponent report drawing?",-1,-1,1678836103413,0,1
sona-37592,unif,under,trial,72,sender,100,0.5,5,71,58,62,9,-9,182,-216,2808.1327790534015,1678836134414,"How many <b class=""r"">red</b> marbles did you actually draw (before any changes)?",71,71,1678836134414,0,1
sona-37592,unif,under,trial,74,sender,100,0.5,5,65,46,51,14,-14,196,-230,2165.825961601786,1678836171530,"How many <b class=""r"">red</b> marbles did you actually draw (before any changes)?",-1,-1,1678836134414,0,1
sona-37592,unif,under,trial,76,sender,100,0.5,5,40,25,28,12,-12,207,-241,2348.9347222899582,1678836202094,"How many <b class=""r"">red</b> marbles did you actually draw (before any changes)?",-1,-1,1678836181895,0,1
sona-37592,unif,under,trial,78,sender,100,0.5,5,49,34,45,4,-4,208,-242,3152.4846012072803,1678836239077,"How many <b class=""r"">red</b> marbles did you actually draw (before any changes)?",-1,-1,1678836181895,0,1
sona-37592,unif,under,trial,80,sender,100,0.5,5,50,34,40,10,-10,215,-249,2742.250971986016,1678836278477,"How many <b class=""r"">red</b> marbles did you actually draw (before any changes)?",-1,-1,1678836278477,0,1
sona-37592,unif,under,trial,82,sender,100,0.5,5,57,43,50,7,-7,220,-256,2642.4523637179445,1678836338042,"How many <b class=""r"">red</b> marbles did your opponent report drawing?",-1,-1,1678836294825,0,1
sona-37592,unif,under,trial,84,sender,100,0.5,5,46,28,31,15,-15,234,-270,2599.903541567855,1678836368757,"How many <b class=""r"">red</b> marbles did your opponent report drawing?",-1,-1,1678836294825,0,1
sona-37592,unif,under,trial,86,sender,100,0.5,5,39,24,33,6,-6,238,-274,2679.6254600239104,1678836404658,"How many <b class=""r"">red</b> marbles did your opponent report drawing?",-1,-1,1678836383240,0,1
sona-37592,unif,under,trial,88,sender,100,0.5,5,70,49,50,20,-20,257,-294,2072.2731678338923,1678836447431,"How many <b class=""r"">red</b> marbles did your opponent report drawing?",-1,-1,1678836383240,0,1
sona-37592,unif,under,trial,90,sender,100,0.5,5,43,31,34,9,-9,265,-302,2341.460782949662,1678836480700,"How many <b class=""r"">red</b> marbles did your opponent report drawing?",-1,-1,1678836480700,0,1
sona-37592,unif,under,trial,92,sender,100,0.5,5,34,22,26,8,-8,272,-310,2481.0253831227046,1678836508666,"How many <b class=""r"">red</b> marbles did your opponent report drawing?",-1,-1,1678836480700,0,1
sona-37592,unif,under,trial,94,sender,100,0.5,5,72,51,58,14,-14,284,-322,2968.5641579148432,1678836544717,"How many <b class=""r"">red</b> marbles did your opponent report drawing?",-1,-1,1678836480700,0,1
sona-37592,unif,under,trial,96,sender,100,0.5,5,46,28,31,15,-15,298,-336,3089.668239113264,1678836586283,"How many <b class=""r"">red</b> marbles did your opponent report drawing?",-1,-1,1678836553200,0,1
sona-37592,unif,under,trial,98,sender,100,0.5,5,72,57,62,10,-10,306,-344,2879.3788650240476,1678836628999,"How many <b class=""r"">red</b> marbles did your opponent report drawing?",-1,-1,1678836598366,0,1
sona-37592,unif,under,trial,100,sender,100,0.5,5,51,34,38,13,-13,318,-356,2625.466156467378,1678836665182,"How many <b class=""r"">red</b> marbles did your opponent report drawing?",-1,-1,1678836665182,0,1
sona-43903,linear,under,trial,2,sender,100,0.5,5,34,35,38,0,-4,-6,2,2701.356638303881,1678828810142,"How many <b class=""r"">red</b> marbles did your opponent report drawing?",-1,-1,1678828706309,0,0.75
sona-43903,linear,under,trial,4,sender,100,0.5,5,60,60,65,0,-5,-11,2,2390.7229152096925,1678828842339,"How many <b class=""r"">red</b> marbles did your opponent report drawing?",-1,-1,1678828706309,0,0.75
sona-43903,linear,under,trial,6,sender,100,0.5,5,37,38,44,0,-7,-15,-1,2238.1670992056142,1678828928894,"How many <b class=""r"">red</b> marbles did your opponent report drawing?",-1,-1,1678828864558,0,0.75
sona-43903,linear,under,trial,8,sender,100,0.5,5,28,28,31,0,-3,-23,4,3155.8474162650286,1678829007994,"How many <b class=""r"">red</b> marbles did your opponent report drawing?",-1,-1,1678828864558,0,0.75
sona-43903,linear,under,trial,10,sender,100,0.5,5,22,21,30,0,-8,-27,0,2363.794276555118,1678829061137,"How many <b class=""r"">red</b> marbles did your opponent report drawing?",-1,-1,1678829061137,0,0.75
sona-43903,linear,under,trial,12,sender,100,0.5,5,76,78,88,0,-12,-30,-12,2734.137453339494,1678829111182,"How many <b class=""r"">red</b> marbles did your opponent report drawing?",-1,-1,1678829061137,0,0.75
sona-43903,linear,under,trial,14,sender,100,0.5,5,50,50,54,0,-4,-50,4,3035.2886646292372,1678829167693,"How many <b class=""r"">red</b> marbles did you actually draw (before any changes)?",50,50,1678829167693,0,0.75
sona-43903,linear,under,trial,16,sender,100,0.5,5,21,21,27,0,-6,-56,4,2328.8227691486563,1678829262735,"How many <b class=""r"">red</b> marbles did you actually draw (before any changes)?",-1,-1,1678829212104,0,0.75
sona-43903,linear,under,trial,18,sender,100,0.5,5,71,71,77,0,-6,-62,4,2826.9205928855977,1678834241369,"How many <b class=""r"">red</b> marbles did you actually draw (before any changes)?",-1,-1,1678829212104,0,0.75
sona-43903,linear,under,trial,20,sender,100,0.5,5,48,46,49,0,-1,-65,3,2916.498688457101,1678836070543,"How many <b class=""r"">red</b> marbles did you actually draw (before any changes)?",-1,-1,1678836070543,0,0.75
sona-43903,linear,under,trial,22,sender,100,0.5,5,74,75,83,0,-9,-72,1,2396.558698896544,1678836093142,"How many <b class=""r"">red</b> marbles did you actually draw (before any changes)?",-1,-1,1678836070543,0,0.75
sona-43903,linear,under,trial,24,sender,100,0.5,5,8,10,12,0,-4,-78,3,2095.4533008695144,1678836125587,"How many <b class=""r"">red</b> marbles did you actually draw (before any changes)?",8,21,1678836125587,0,0.75
sona-43903,linear,under,trial,26,sender,100,0.5,5,66,62,65,1,-1,-81,6,2141.5077787009204,1678855608831,"How many <b class=""r"">red</b> marbles did you actually draw (before any changes)?",-1,-1,1678855576081,0,0.75
sona-43903,linear,under,trial,28,sender,100,0.5,5,62,70,72,0,-10,-86,1,2435.477577719204,1678855694699,"How many <b class=""r"">red</b> marbles did you actually draw (before any changes)?",-1,-1,1678855576081,0,0.75
sona-43903,linear,under,trial,30,sender,100,0.5,5,30,32,37,0,-7,-102,10,2707.3071949737896,1678855943340,"How many <b class=""r"">red</b> marbles did you actually draw (before any changes)?",-1,-1,1678855943340,0,0.75
sona-43903,linear,under,trial,32,sender,100,0.5,5,23,18,20,3,-3,-115,23,2605.9637584656393,1678856018992,"How many <b class=""r"">red</b> marbles did you actually draw (before any changes)?",23,30,1678856018992,0,0.75
sona-43903,linear,under,trial,34,sender,100,0.5,5,72,74,76,0,-4,-120,24,3182.1824629279895,1678856103768,"How many <b class=""r"">red</b> marbles did you actually draw (before any changes)?",-1,-1,1678856018992,0,0.75
sona-43903,linear,under,trial,36,sender,100,0.5,5,56,44,47,9,-9,-118,22,2398.9466072047644,1678856188347,"How many <b class=""r"">red</b> marbles did you actually draw (before any changes)?",-1,-1,1678856122495,0,0.75
sona-43903,linear,under,trial,38,sender,100,0.5,5,57,57,63,0,-6,-120,18,2875.51862830163,1678856262605,"How many <b class=""r"">red</b> marbles did you actually draw (before any changes)?",-1,-1,1678856122495,0,0.75
sona-43903,linear,under,trial,40,sender,100,0.5,5,28,28,32,0,-4,-137,31,3106.987041577216,1678856294697,"How many <b class=""r"">red</b> marbles did you actually draw (before any changes)?",-1,-1,1678856294697,0,0.75
sona-43903,linear,under,trial,42,sender,100,0.5,5,18,15,19,0,-1,-145,38,2836.494923141712,1678856477408,"How many <b class=""r"">red</b> marbles did you actually draw (before any changes)?",-1,-1,1678856294697,0,0.75
sona-43903,linear,under,trial,44,sender,100,0.5,5,57,61,62,0,-5,-155,43,2821.1049439020803,1678856564040,"How many <b class=""r"">red</b> marbles did your opponent report drawing?",-1,-1,1678856492848,0,0.75
sona-43903,linear,under,trial,46,sender,100,0.5,5,40,41,47,0,-7,-166,47,2899.6871707442306,1678856708901,"How many <b class=""r"">red</b> marbles did your opponent report drawing?",-1,-1,1678856577163,0,0.75
sona-43903,linear,under,trial,48,sender,100,0.5,5,33,36,41,0,-8,-176,49,2363.466648183789,1678856738085,"How many <b class=""r"">red</b> marbles did your opponent report drawing?",-1,-1,1678856577163,0,0.75
sona-43903,linear,under,trial,50,sender,100,0.5,5,55,55,65,0,-10,-187,50,2186.9233922173225,1678856784741,"How many <b class=""r"">red</b> marbles did your opponent report drawing?",-1,-1,1678856784741,0,0.75
sona-43903,linear,under,trial,52,sender,100,0.5,5,59,62,64,0,-5,-193,51,2445.8994463602676,1678856841684,"How many <b class=""r"">red</b> marbles did your opponent report drawing?",-1,-1,1678856810569,0,0.75
sona-43903,linear,under,trial,54,sender,100,0.5,5,32,34,40,0,-8,-196,46,2842.471464744303,1678856897559,"How many <b class=""r"">red</b> marbles did your opponent report drawing?",-1,-1,1678856810569,0,0.75
sona-43903,linear,under,trial,56,sender,100,0.5,5,39,39,47,0,-8,-200,42,2328.4933667128644,1678856971391,"How many <b class=""r"">red</b> marbles did your opponent report drawing?",-1,-1,1678856922535,0,0.75
sona-43903,linear,under,trial,60,sender,100,0.5,5,50,50,57,0,-7,-210,36,2516.905624056357,1678857057918,"How many <b class=""r"">red</b> marbles did your opponent report drawing?",-1,-1,1678857057918,0,0.75
sona-43903,linear,under,trial,62,sender,100,0.5,5,65,60,65,0,0,-221,47,2298.995981410937,1678857127741,"How many <b class=""r"">red</b> marbles did your opponent report drawing?",-1,-1,1678857057918,0,0.75
sona-43903,linear,under,trial,64,sender,100,0.5,5,58,61,70,0,-12,-228,42,2811.2544252426396,1678857157248,"How many <b class=""r"">red</b> marbles did your opponent report drawing?",-1,-1,1678857057918,0,0.75
sona-43903,linear,under,trial,66,sender,100,0.5,5,62,67,68,0,-6,-237,45,2704.54882937822,1678857230507,"How many <b class=""r"">red</b> marbles did your opponent report drawing?",-1,-1,1678857204872,0,0.75
sona-43903,linear,under,trial,68,sender,100,0.5,5,64,66,69,0,-5,-244,47,2274.914044659852,1678857258161,"How many <b class=""r"">red</b> marbles did you actually draw (before any changes)?",64,64,1678857258161,0,0.75
sona-43903,linear,under,trial,70,sender,100,0.5,5,79,76,82,0,-3,-249,49,2933.1130202815966,1678857294326,"How many <b class=""r"">red</b> marbles did you actually draw (before any changes)?",-1,-1,1678857294326,0,0.75
sona-43903,linear,under,trial,72,sender,100,0.5,5,63,58,60,3,-3,-253,53,2303.819793977452,1678857334456,"How many <b class=""r"">red</b> marbles did you actually draw (before any changes)?",-1,-1,1678857294326,0,0.75
sona-43903,linear,under,trial,74,sender,100,0.5,5,38,33,34,4,-4,-254,54,3140.5116431912857,1678857362992,"How many <b class=""r"">red</b> marbles did you actually draw (before any changes)?",-1,-1,1678857294326,0,0.75
sona-43903,linear,under,trial,76,sender,100,0.5,5,76,69,75,1,-1,-263,63,2849.500415712032,1678857397632,"How many <b class=""r"">red</b> marbles did you actually draw (before any changes)?",-1,-1,1678857373424,0,0.75
sona-43903,linear,under,trial,78,sender,100,0.5,5,48,55,61,0,-13,-269,56,2883.204034457436,1678857431217,"How many <b class=""r"">red</b> marbles did you actually draw (before any changes)?",-1,-1,1678857373424,0,0.75
sona-43903,linear,under,trial,80,sender,100,0.5,5,25,24,32,0,-7,-271,51,2203.010524588827,1678857472492,"How many <b class=""r"">red</b> marbles did you actually draw (before any changes)?",-1,-1,1678857472492,0,0.75
sona-43903,linear,under,trial,82,sender,100,0.5,5,24,27,31,0,-7,-277,50,2407.472328185526,1678857510830,"How many <b class=""r"">red</b> marbles did you actually draw (before any changes)?",-1,-1,1678857472492,0,0.75
sona-43903,linear,under,trial,84,sender,100,0.5,5,57,62,67,0,-10,-281,44,2318.677175872798,1678857554665,"How many <b class=""r"">red</b> marbles did you actually draw (before any changes)?",-1,-1,1678857472492,0,0.75
sona-43903,linear,under,trial,86,sender,100,0.5,5,30,39,51,0,-21,-286,28,2412.4925743977283,1678857607197,"How many <b class=""r"">red</b> marbles did you actually draw (before any changes)?",-1,-1,1678857564585,0,0.75
sona-43903,linear,under,trial,88,sender,100,0.5,5,68,68,75,0,-7,-288,23,2658.2330494189664,1678857629365,"How many <b class=""r"">red</b> marbles did you actually draw (before any changes)?",-1,-1,1678857564585,0,0.75
sona-43903,linear,under,trial,90,sender,100,0.5,5,28,30,37,0,-9,-295,21,2560.1441237589765,1678857650491,"How many <b class=""r"">red</b> marbles did you actually draw (before any changes)?",-1,-1,1678857650491,0,0.75
sona-43903,linear,under,trial,92,sender,100,0.5,5,64,71,75,0,-11,-300,15,2836.7215222042946,1678857703833,"How many <b class=""r"">red</b> marbles did you actually draw (before any changes)?",-1,-1,1678857650491,0,0.75
sona-43903,linear,under,trial,94,sender,100,0.5,5,47,51,53,0,-6,-305,14,2360.5816044865023,1678857748769,"How many <b class=""r"">red</b> marbles did your opponent report drawing?",-1,-1,1678857715384,0,0.75
sona-43903,linear,under,trial,96,sender,100,0.5,5,27,30,37,0,-10,-313,12,3141.0436855577404,1678857783945,"How many <b class=""r"">red</b> marbles did your opponent report drawing?",-1,-1,1678857759499,0,0.75
sona-43903,linear,under,trial,98,sender,100,0.5,5,74,67,72,2,-2,-317,16,2653.0258131388928,1678857821583,"How many <b class=""r"">red</b> marbles did your opponent report drawing?",-1,-1,1678857759499,0,0.75
sona-43903,linear,under,trial,100,sender,100,0.5,5,13,15,21,0,-8,-320,11,3038.2711107897794,1678857848905,"How many <b class=""r"">red</b> marbles did your opponent report drawing?",-1,-1,1678857848905,0,0.75
sona-47782,unif,under,trial,1,sender,100,0.5,5,89,50,54,35,-35,35,-35,3202.9956500135763,1678829335082,"How many <b class=""r"">red</b> marbles did your opponent report drawing?",-1,-1,1678829240581,0,0.8333333333333334
sona-47782,unif,under,trial,3,sender,100,0.5,5,72,66,73,0,-1,27,-36,2619.358649659197,1678829387599,"How many <b class=""r"">red</b> marbles did your opponent report drawing?",-1,-1,1678829240581,0,0.8333333333333334
sona-47782,unif,under,trial,5,sender,100,0.5,5,61,37,43,18,-18,4,-13,2731.7401509223664,1678829469532,"How many <b class=""r"">red</b> marbles did your opponent report drawing?",-1,-1,1678829469532,0,0.8333333333333334
sona-47782,unif,under,trial,7,sender,100,0.5,5,49,49,52,0,-3,-6,-6,2347.4207557296286,1678829583315,"How many <b class=""r"">red</b> marbles did your opponent report drawing?",-1,-1,1678829469532,0,0.8333333333333334
sona-47782,unif,under,trial,9,sender,100,0.5,5,44,33,36,8,-8,-21,9,2576.1068284670987,1678829638815,"How many <b class=""r"">red</b> marbles did your opponent report drawing?",-1,-1,1678829469532,0,0.8333333333333334
sona-47782,unif,under,trial,11,sender,100,0.5,5,21,41,46,0,-25,-24,-16,2213.4093854352277,1678829691932,"How many <b class=""r"">red</b> marbles did your opponent report drawing?",-1,-1,1678829656182,0,0.8333333333333334
sona-47782,unif,under,trial,13,sender,100,0.5,5,30,19,22,8,-8,-33,-24,2224.1875922967756,1678829749748,"How many <b class=""r"">red</b> marbles did your opponent report drawing?",-1,-1,1678829656182,0,0.8333333333333334
sona-47782,unif,under,trial,15,sender,100,0.5,5,25,4,7,18,-18,-18,-39,2871.399700764833,1678829806866,"How many <b class=""r"">red</b> marbles did your opponent report drawing?",-1,-1,1678829806866,0,0.8333333333333334
sona-47782,unif,under,trial,17,sender,100,0.5,5,33,10,14,19,-19,-4,-53,3047.5018437244116,1678829863166,"How many <b class=""r"">red</b> marbles did your opponent report drawing?",-1,-1,1678829806866,0,0.8333333333333334
sona-47782,unif,under,trial,19,sender,100,0.5,5,68,40,44,24,-24,18,-75,2743.222489938897,1678829909168,"How many <b class=""r"">red</b> marbles did you actually draw (before any changes)?",68,67,1678829909169,0,0.8333333333333334
sona-47782,unif,under,trial,21,sender,100,0.5,5,81,73,78,3,-3,20,-78,2689.8369562297685,1678829976915,"How many <b class=""r"">red</b> marbles did you actually draw (before any changes)?",-1,-1,1678829945815,0,0.8333333333333334
sona-47782,unif,under,trial,23,sender,100,0.5,5,30,17,22,8,-8,25,-86,2726.5824847350673,1678830017799,"How many <b class=""r"">red</b> marbles did you actually draw (before any changes)?",-1,-1,1678829945815,0,0.8333333333333334
sona-47782,unif,under,trial,25,sender,100,0.5,5,77,55,61,16,-16,39,-100,2476.907875557376,1678830064883,"How many <b class=""r"">red</b> marbles did you actually draw (before any changes)?",-1,-1,1678830064883,0,0.8333333333333334
sona-47782,unif,under,trial,27,sender,100,0.5,5,54,30,36,18,-18,55,-116,2619.822598746479,1678830119799,"How many <b class=""r"">red</b> marbles did you actually draw (before any changes)?",-1,-1,1678830064883,0,0.8333333333333334
sona-47782,unif,under,trial,29,sender,100,0.5,5,40,40,48,0,-8,53,-122,2142.524962647318,1678830147782,"How many <b class=""r"">red</b> marbles did you actually draw (before any changes)?",40,40,1678830147783,0,0.8333333333333334
sona-47782,unif,under,trial,31,sender,100,0.5,5,9,2,6,3,-3,56,-125,2362.269573234918,1678830225300,"How many <b class=""r"">red</b> marbles did you actually draw (before any changes)?",-1,-1,1678830201499,0,0.8333333333333334
sona-47782,unif,under,trial,33,sender,100,0.5,5,64,51,60,4,-4,58,-129,2822.913087017812,1678830255516,"How many <b class=""r"">red</b> marbles did you actually draw (before any changes)?",-1,-1,1678830201499,0,0.8333333333333334
sona-47782,unif,under,trial,35,sender,100,0.5,5,67,67,73,0,-6,54,-131,2205.757142456962,1678830292816,"How many <b class=""r"">red</b> marbles did your opponent report drawing?",-1,-1,1678830292816,0,0.8333333333333334
sona-47782,unif,under,trial,37,sender,100,0.5,5,51,51,55,0,-4,48,-129,2208.1083268013667,1678830327949,"How many <b class=""r"">red</b> marbles did your opponent report drawing?",-1,-1,1678830312032,0,0.8333333333333334
sona-47782,unif,under,trial,39,sender,100,0.5,5,49,49,53,0,-4,46,-131,2516.588472198756,1678830354416,"How many <b class=""r"">red</b> marbles did your opponent report drawing?",-1,-1,1678830312032,0,0.8333333333333334
sona-47782,unif,under,trial,41,sender,100,0.5,5,42,42,49,0,-7,41,-138,3199.557873397305,1678830513800,"How many <b class=""r"">red</b> marbles did your opponent report drawing?",-1,-1,1678830381683,0,0.8333333333333334
sona-47782,unif,under,trial,43,sender,100,0.5,5,40,40,46,0,-6,40,-143,2429.549204578332,1678830535083,"How many <b class=""r"">red</b> marbles did your opponent report drawing?",-1,-1,1678830381683,0,0.8333333333333334
sona-47782,unif,under,trial,45,sender,100,0.5,5,65,65,69,0,-4,40,-147,3221.259336506643,1678830566150,"How many <b class=""r"">red</b> marbles did your opponent report drawing?",-1,-1,1678830566150,0,0.8333333333333334
sona-47782,unif,under,trial,47,sender,100,0.5,5,61,61,69,0,-8,38,-153,2231.173266697588,1678830815517,"How many <b class=""r"">red</b> marbles did your opponent report drawing?",-1,-1,1678830795083,0,0.8333333333333334
sona-47782,unif,under,trial,49,sender,100,0.5,5,69,69,75,0,-6,36,-159,2807.9056657219967,1678830846650,"How many <b class=""r"">red</b> marbles did your opponent report drawing?",-1,-1,1678830795083,0,0.8333333333333334
sona-47782,unif,under,trial,51,sender,100,0.5,5,37,32,37,0,0,28,-151,2178.575509765688,1678830880984,"How many <b class=""r"">red</b> marbles did your opponent report drawing?",-1,-1,1678830859433,0,0.8333333333333334
sona-47782,unif,under,trial,53,sender,100,0.5,5,64,57,67,0,-3,27,-154,2982.636814187157,1678830917917,"How many <b class=""r"">red</b> marbles did your opponent report drawing?",-1,-1,1678830859433,0,0.8333333333333334
sona-47782,unif,under,trial,55,sender,100,0.5,5,29,20,23,6,-6,30,-160,2224.462619920465,1678830946736,"How many <b class=""r"">red</b> marbles did your opponent report drawing?",-1,-1,1678830946736,0,0.8333333333333334
sona-47782,unif,under,trial,57,sender,100,0.5,5,31,25,30,1,-1,30,-161,2289.116596261814,1678831123200,"How many <b class=""r"">red</b> marbles did your opponent report drawing?",-1,-1,1678831091717,0,0.8333333333333334
sona-47782,unif,under,trial,59,sender,100,0.5,5,69,69,73,0,-4,20,-165,2680.905063977072,1678831148667,"How many <b class=""r"">red</b> marbles did you actually draw (before any changes)?",69,69,1678831148668,0,0.8333333333333334
sona-47782,unif,under,trial,61,sender,100,0.5,5,88,88,92,0,-4,20,-169,2379.187098073352,1678831310451,"How many <b class=""r"">red</b> marbles did you actually draw (before any changes)?",-1,-1,1678831169467,0,0.8333333333333334
sona-47782,unif,under,trial,63,sender,100,0.5,5,25,25,26,0,-1,17,-170,3193.9384754159696,1678831337636,"How many <b class=""r"">red</b> marbles did you actually draw (before any changes)?",-1,-1,1678831169467,0,0.8333333333333334
sona-47782,unif,under,trial,65,sender,100,0.5,5,53,53,59,0,-6,16,-176,2343.2684963286583,1678831356651,"How many <b class=""r"">red</b> marbles did you actually draw (before any changes)?",-1,-1,1678831356651,0,0.8333333333333334
sona-47782,unif,under,trial,69,sender,100,0.5,5,31,31,38,0,-7,14,-188,2129.288803481817,1678831414018,"How many <b class=""r"">red</b> marbles did you actually draw (before any changes)?",-1,-1,1678831356651,0,0.8333333333333334
sona-47782,unif,under,trial,71,sender,100,0.5,5,45,32,36,9,-9,23,-197,2825.1412001772787,1678831456317,"How many <b class=""r"">red</b> marbles did you actually draw (before any changes)?",-1,-1,1678831426017,0,0.8333333333333334
sona-47782,unif,under,trial,73,sender,100,0.5,5,59,59,65,0,-6,21,-203,2468.913596754253,1678831485236,"How many <b class=""r"">red</b> marbles did you actually draw (before any changes)?",-1,-1,1678831426017,0,0.8333333333333334
sona-47782,unif,under,trial,75,sender,100,0.5,5,70,46,51,19,-19,37,-222,2260.2517410063456,1678831522251,"How many <b class=""r"">red</b> marbles did you actually draw (before any changes)?",-1,-1,1678831522251,0,0.8333333333333334
sona-47782,unif,under,trial,77,sender,100,0.5,5,27,17,22,5,-5,39,-224,2623.049932567973,1678831556152,"How many <b class=""r"">red</b> marbles did you actually draw (before any changes)?",27,27,1678831556152,0,0.8333333333333334
sona-47782,unif,under,trial,79,sender,100,0.5,5,58,47,54,4,-4,39,-228,2934.5008033534086,1678831597753,"How many <b class=""r"">red</b> marbles did you actually draw (before any changes)?",-1,-1,1678831556152,0,0.8333333333333334
sona-47782,unif,under,trial,81,sender,100,0.5,5,75,48,52,23,-23,56,-251,2376.1767216956423,1678831641251,"How many <b class=""r"">red</b> marbles did you actually draw (before any changes)?",75,75,1678831641251,0,0.8333333333333334
sona-47782,unif,under,trial,83,sender,100,0.5,5,55,43,44,11,-11,58,-262,2630.2335000581834,1678831681803,"How many <b class=""r"">red</b> marbles did you actually draw (before any changes)?",-1,-1,1678831641251,0,0.8333333333333334
sona-47782,unif,under,trial,85,sender,100,0.5,5,80,80,84,0,-4,55,-266,2797.159384272637,1678831703685,"How many <b class=""r"">red</b> marbles did you actually draw (before any changes)?",-1,-1,1678831703685,0,0.8333333333333334
sona-47782,unif,under,trial,87,sender,100,0.5,5,31,13,20,11,-11,65,-277,2930.7234725748667,1678831744084,"How many <b class=""r"">red</b> marbles did you actually draw (before any changes)?",-1,-1,1678831703685,0,0.8333333333333334
sona-47782,unif,under,trial,89,sender,100,0.5,5,75,75,78,0,-3,64,-280,2298.8021485935833,1678831772468,"How many <b class=""r"">red</b> marbles did your opponent report drawing?",-1,-1,1678831755885,0,0.8333333333333334
sona-47782,unif,under,trial,91,sender,100,0.5,5,33,26,30,3,-3,60,-283,2279.490781981085,1678831803102,"How many <b class=""r"">red</b> marbles did your opponent report drawing?",-1,-1,1678831783652,0,0.8333333333333334
sona-47782,unif,under,trial,93,sender,100,0.5,5,24,20,23,1,-1,56,-284,2283.587623679547,1678831837518,"How many <b class=""r"">red</b> marbles did your opponent report drawing?",-1,-1,1678831783652,0,0.8333333333333334
sona-47782,unif,under,trial,95,sender,100,0.5,5,31,30,37,0,-6,55,-289,2063.694603968474,1678831869485,"How many <b class=""r"">red</b> marbles did your opponent report drawing?",-1,-1,1678831869485,0,0.8333333333333334
sona-47782,unif,under,trial,97,sender,100,0.5,5,31,31,38,0,-7,50,-291,3013.033822674639,1678831896634,"How many <b class=""r"">red</b> marbles did your opponent report drawing?",-1,-1,1678831869485,0,0.8333333333333334
sona-47782,unif,under,trial,99,sender,100,0.5,5,59,59,63,0,-4,48,-293,2287.040875995007,1678831919118,"How many <b class=""r"">red</b> marbles did your opponent report drawing?",-1,-1,1678831869485,0,0.8333333333333334
sona-48031,unif,under,trial,2,sender,100,0.5,5,35,30,32,3,-3,2,-2,3097.9111041924793,1678826432617,"How many <b class=""r"">red</b> marbles did your opponent report drawing?",-1,-1,1678826386525,0,0.9166666666666666
sona-48031,unif,under,trial,4,sender,100,0.5,5,22,20,27,0,-5,0,-7,2683.357262745003,1678826464459,"How many <b class=""r"">red</b> marbles did your opponent report drawing?",-1,-1,1678826386525,0,0.9166666666666666
sona-48031,unif,under,trial,6,sender,100,0.5,5,82,51,54,28,-28,21,-28,2860.3902553620674,1678826518865,"How many <b class=""r"">red</b> marbles did your opponent report drawing?",-1,-1,1678826477818,0,0.9166666666666666
sona-48031,unif,under,trial,8,sender,100,0.5,5,79,69,82,0,-3,21,-31,2619.1501236814656,1678826552063,"How many <b class=""r"">red</b> marbles did your opponent report drawing?",-1,-1,1678826477818,0,0.9166666666666666
sona-48031,unif,under,trial,10,sender,100,0.5,5,27,53,56,0,-29,16,-60,2259.7819783370564,1678826592136,"How many <b class=""r"">red</b> marbles did your opponent report drawing?",-1,-1,1678826592136,0,0.9166666666666666
sona-48031,unif,under,trial,12,sender,100,0.5,5,35,60,63,0,-28,16,-88,2974.675990057482,1678826650140,"How many <b class=""r"">red</b> marbles did your opponent report drawing?",-1,-1,1678826615697,0,0.9166666666666666
sona-48031,unif,under,trial,14,sender,100,0.5,5,55,39,41,14,-14,19,-102,2133.0877115815256,1678826689790,"How many <b class=""r"">red</b> marbles did your opponent report drawing?",-1,-1,1678826615697,0,0.9166666666666666
sona-48031,unif,under,trial,16,sender,100,0.5,5,53,83,87,0,-34,6,-136,2093.500676474082,1678826747312,"How many <b class=""r"">red</b> marbles did you actually draw (before any changes)?",53,57,1678826747312,0,0.9166666666666666
sona-48031,unif,under,trial,18,sender,100,0.5,5,44,17,22,22,-22,24,-158,2871.7774440864428,1678826793368,"How many <b class=""r"">red</b> marbles did you actually draw (before any changes)?",44,44,1678826793368,0,0.9166666666666666
sona-48031,unif,under,trial,20,sender,100,0.5,5,58,52,59,0,-1,17,-159,2148.7792130104044,1678826830318,"How many <b class=""r"">red</b> marbles did you actually draw (before any changes)?",-1,-1,1678826830318,0,0.9166666666666666
sona-48031,unif,under,trial,22,sender,100,0.5,5,68,68,74,0,-6,10,-165,2241.91272240558,1678826865105,"How many <b class=""r"">red</b> marbles did your opponent report drawing?",-1,-1,1678826848318,0,0.9166666666666666
sona-48031,unif,under,trial,24,sender,100,0.5,5,29,56,63,0,-34,9,-199,2489.322363146373,1678826908532,"How many <b class=""r"">red</b> marbles did your opponent report drawing?",-1,-1,1678826848318,0,0.9166666666666666
sona-48031,unif,under,trial,26,sender,100,0.5,5,22,41,43,0,-21,6,-220,2580.018125481819,1678826954026,"How many <b class=""r"">red</b> marbles did your opponent report drawing?",-1,-1,1678826923317,0,0.9166666666666666
sona-48031,unif,under,trial,28,sender,100,0.5,5,57,57,61,0,-4,4,-224,2865.415508192359,1678827000898,"How many <b class=""r"">red</b> marbles did your opponent report drawing?",-1,-1,1678826923317,0,0.9166666666666666
sona-48031,unif,under,trial,30,sender,100,0.5,5,13,43,44,0,-31,2,-255,2397.887497153176,1678827045550,"How many <b class=""r"">red</b> marbles did your opponent report drawing?",-1,-1,1678827045550,0,0.9166666666666666
sona-48031,unif,under,trial,32,sender,100,0.5,5,82,47,53,29,-29,31,-284,2930.863934447544,1678827125322,"How many <b class=""r"">red</b> marbles did your opponent report drawing?",-1,-1,1678827045550,0,0.9166666666666666
sona-48031,unif,under,trial,34,sender,100,0.5,5,17,44,50,0,-33,26,-317,2622.2789161241662,1678827170625,"How many <b class=""r"">red</b> marbles did your opponent report drawing?",-1,-1,1678827045550,0,0.9166666666666666
sona-48031,unif,under,trial,36,sender,100,0.5,5,61,41,45,16,-16,35,-333,2362.461534873181,1678827217367,"How many <b class=""r"">red</b> marbles did your opponent report drawing?",-1,-1,1678827189544,0,0.9166666666666666
sona-48031,unif,under,trial,38,sender,100,0.5,5,47,20,25,22,-22,56,-355,2664.36829842328,1678827255716,"How many <b class=""r"">red</b> marbles did your opponent report drawing?",-1,-1,1678827189544,0,0.9166666666666666
sona-48031,unif,under,trial,40,sender,100,0.5,5,86,41,43,43,-43,97,-398,3110.5210803471464,1678827333334,"How many <b class=""r"">red</b> marbles did you actually draw (before any changes)?",86,86,1678827333335,0,0.9166666666666666
sona-48031,unif,under,trial,42,sender,100,0.5,5,85,29,34,51,-51,146,-449,2695.9265638750703,1678827382042,"How many <b class=""r"">red</b> marbles did you actually draw (before any changes)?",-1,-1,1678827333335,0,0.9166666666666666
sona-48031,unif,under,trial,44,sender,100,0.5,5,57,72,81,0,-24,144,-471,3177.5689038231953,1678827428106,"How many <b class=""r"">red</b> marbles did you actually draw (before any changes)?",-1,-1,1678827333335,0,0.9166666666666666
sona-48031,unif,under,trial,46,sender,100,0.5,5,50,41,44,6,-6,150,-477,3023.611319665998,1678827461142,"How many <b class=""r"">red</b> marbles did you actually draw (before any changes)?",-1,-1,1678827445980,0,0.9166666666666666
sona-48031,unif,under,trial,48,sender,100,0.5,5,49,15,18,31,-31,180,-508,2708.2341708883646,1678827501437,"How many <b class=""r"">red</b> marbles did you actually draw (before any changes)?",-1,-1,1678827445980,0,0.9166666666666666
sona-48031,unif,under,trial,50,sender,100,0.5,5,26,26,31,0,-5,178,-511,2284.668568605045,1678827522346,"How many <b class=""r"">red</b> marbles did you actually draw (before any changes)?",-1,-1,1678827522346,0,0.9166666666666666
sona-48031,unif,under,trial,52,sender,100,0.5,5,77,82,86,0,-9,169,-520,2554.6874570943346,1678827619646,"How many <b class=""r"">red</b> marbles did your opponent report drawing?",-1,-1,1678827549799,0,0.9166666666666666
sona-48031,unif,under,trial,54,sender,100,0.5,5,36,36,41,0,-5,165,-525,2252.5709585630157,1678827682252,"How many <b class=""r"">red</b> marbles did your opponent report drawing?",-1,-1,1678827549799,0,0.9166666666666666
sona-48031,unif,under,trial,56,sender,100,0.5,5,39,68,74,0,-35,159,-560,2155.5886211026573,1678827719619,"How many <b class=""r"">red</b> marbles did your opponent report drawing?",-1,-1,1678827695776,0,0.9166666666666666
sona-48031,unif,under,trial,58,sender,100,0.5,5,56,23,25,31,-31,179,-591,2601.8902462765363,1678827758644,"How many <b class=""r"">red</b> marbles did your opponent report drawing?",-1,-1,1678827695776,0,0.9166666666666666
sona-48031,unif,under,trial,60,sender,100,0.5,5,44,25,36,8,-8,186,-599,2551.988018531491,1678827798843,"How many <b class=""r"">red</b> marbles did your opponent report drawing?",-1,-1,1678827798843,0,0.9166666666666666
sona-48031,unif,under,trial,62,sender,100,0.5,5,82,82,87,0,-5,183,-604,2342.5274654193263,1678827831902,"How many <b class=""r"">red</b> marbles did your opponent report drawing?",-1,-1,1678827798843,0,0.9166666666666666
sona-48031,unif,under,trial,64,sender,100,0.5,5,36,14,20,16,-16,194,-620,2314.464608335612,1678827863858,"How many <b class=""r"">red</b> marbles did your opponent report drawing?",-1,-1,1678827798843,0,0.9166666666666666
sona-48031,unif,under,trial,66,sender,100,0.5,5,35,20,24,11,-11,202,-631,2939.2676686269233,1678827969199,"How many <b class=""r"">red</b> marbles did your opponent report drawing?",-1,-1,1678827886840,0,0.9166666666666666
sona-48031,unif,under,trial,68,sender,100,0.5,5,61,36,41,20,-20,220,-651,2992.455287568376,1678828007736,"How many <b class=""r"">red</b> marbles did your opponent report drawing?",-1,-1,1678827886840,0,0.9166666666666666
sona-48031,unif,under,trial,70,sender,100,0.5,5,62,62,66,0,-4,220,-655,2140.51742347831,1678828032006,"How many <b class=""r"">red</b> marbles did your opponent report drawing?",-1,-1,1678828032006,0,0.9166666666666666
sona-48031,unif,under,trial,72,sender,100,0.5,5,35,46,52,0,-17,220,-672,2187.4328866859214,1678828058639,"How many <b class=""r"">red</b> marbles did your opponent report drawing?",-1,-1,1678828032006,0,0.9166666666666666
sona-48031,unif,under,trial,74,sender,100,0.5,5,66,43,45,21,-21,240,-692,2144.092364986918,1678828099214,"How many <b class=""r"">red</b> marbles did you actually draw (before any changes)?",66,66,1678828099214,0,0.9166666666666666
sona-48031,unif,under,trial,76,sender,100,0.5,5,51,31,36,15,-15,254,-707,2139.2977166364326,1678828139342,"How many <b class=""r"">red</b> marbles did you actually draw (before any changes)?",-1,-1,1678828114262,0,0.9166666666666666
sona-48031,unif,under,trial,78,sender,100,0.5,5,45,45,47,0,-2,248,-709,2158.335129764795,1678828168923,"How many <b class=""r"">red</b> marbles did you actually draw (before any changes)?",-1,-1,1678828114262,0,0.9166666666666666
sona-48031,unif,under,trial,80,sender,100,0.5,5,63,31,35,28,-28,273,-737,2515.954679692184,1678828209714,"How many <b class=""r"">red</b> marbles did you actually draw (before any changes)?",-1,-1,1678828209714,0,0.9166666666666666
sona-48031,unif,under,trial,82,sender,100,0.5,5,48,30,32,16,-16,278,-753,2466.273599144861,1678828292076,"How many <b class=""r"">red</b> marbles did you actually draw (before any changes)?",-1,-1,1678828209714,0,0.9166666666666666
sona-48031,unif,under,trial,84,sender,100,0.5,5,43,17,26,17,-17,286,-770,3162.2556752460982,1678828343227,"How many <b class=""r"">red</b> marbles did you actually draw (before any changes)?",-1,-1,1678828209714,0,0.9166666666666666
sona-48031,unif,under,trial,86,sender,100,0.5,5,62,30,39,23,-23,308,-792,2154.199153515334,1678828384225,"How many <b class=""r"">red</b> marbles did you actually draw (before any changes)?",62,66,1678828384226,0,0.9166666666666666
sona-48031,unif,under,trial,90,sender,100,0.5,5,41,41,46,0,-5,303,-815,2413.849103185383,1678828463859,"How many <b class=""r"">red</b> marbles did you actually draw (before any changes)?",-1,-1,1678828463859,0,0.9166666666666666
sona-48031,unif,under,trial,92,sender,100,0.5,5,13,2,4,9,-9,304,-824,2215.910036754211,1678828506082,"How many <b class=""r"">red</b> marbles did your opponent report drawing?",-1,-1,1678828480719,0,0.9166666666666666
sona-48031,unif,under,trial,94,sender,100,0.5,5,68,42,45,23,-23,324,-847,2361.4595389565857,1678828549698,"How many <b class=""r"">red</b> marbles did you actually draw (before any changes)?",68,42,1678828549698,0,0.9166666666666666
sona-48031,unif,under,trial,96,sender,100,0.5,5,48,48,52,0,-4,323,-851,2748.824248291229,1678828582401,"How many <b class=""r"">red</b> marbles did you actually draw (before any changes)?",-1,-1,1678828572955,0,0.9166666666666666
sona-48031,unif,under,trial,98,sender,100,0.5,5,40,18,23,17,-17,335,-868,2290.525177202626,1678828617307,"How many <b class=""r"">red</b> marbles did you actually draw (before any changes)?",-1,-1,1678828572955,0,0.9166666666666666
sona-48031,unif,under,trial,100,sender,100,0.5,5,53,35,43,10,-10,340,-878,2565.7811935331692,1678828643613,"How many <b class=""r"">red</b> marbles did you actually draw (before any changes)?",-1,-1,1678828643613,0,0.9166666666666666
sona-43387,linear,over,trial,2,sender,100,0.5,5,49,49,43,0,-6,-3,-3,2122.353593374629,1680645768532,"How many <b class=""r"">red</b> marbles did your opponent report drawing?",-1,-1,1680645688445,0,0.9166666666666666
sona-43387,linear,over,trial,4,sender,100,0.5,5,47,47,43,0,-4,-7,-3,2807.627171195594,1680645819375,"How many <b class=""r"">red</b> marbles did your opponent report drawing?",-1,-1,1680645688445,0,0.9166666666666666
sona-43387,linear,over,trial,6,sender,100,0.5,5,10,10,7,0,-3,-10,-3,2462.3426880079096,1680645889784,"How many <b class=""r"">red</b> marbles did your opponent report drawing?",-1,-1,1680645830306,0,0.9166666666666666
sona-43387,linear,over,trial,8,sender,100,0.5,5,65,65,58,0,-7,-16,-4,2722.399985979112,1680645962640,"How many <b class=""r"">red</b> marbles did your opponent report drawing?",-1,-1,1680645830306,0,0.9166666666666666
sona-43387,linear,over,trial,10,sender,100,0.5,5,51,51,44,0,-7,-23,-4,2635.57371246216,1680645995486,"How many <b class=""r"">red</b> marbles did you actually draw (before any changes)?",51,51,1680645995486,0,0.9166666666666666
sona-43387,linear,over,trial,12,sender,100,0.5,5,40,40,32,0,-8,-31,-4,2214.570576463323,1680646043199,"How many <b class=""r"">red</b> marbles did you actually draw (before any changes)?",-1,-1,1680645995486,0,0.9166666666666666
sona-43387,linear,over,trial,14,sender,100,0.5,5,23,23,18,0,-5,-39,-1,2866.9418525941883,1680646080749,"How many <b class=""r"">red</b> marbles did you actually draw (before any changes)?",-1,-1,1680645995486,0,0.9166666666666666
sona-43387,linear,over,trial,16,sender,100,0.5,5,8,8,6,0,-2,-43,1,2144.2121664681604,1680646118941,"How many <b class=""r"">red</b> marbles did you actually draw (before any changes)?",-1,-1,1680646100298,0,0.9166666666666666
sona-43387,linear,over,trial,18,sender,100,0.5,5,56,56,54,0,-2,-52,8,2910.022490579022,1680646147179,"How many <b class=""r"">red</b> marbles did your opponent report drawing?",-1,-1,1680646131090,0,0.9166666666666666
sona-43387,linear,over,trial,20,sender,100,0.5,5,55,55,46,0,-9,-63,10,2606.912586621732,1680646182706,"How many <b class=""r"">red</b> marbles did your opponent report drawing?",-1,-1,1680646182706,0,0.9166666666666666
sona-43387,linear,over,trial,22,sender,100,0.5,5,32,34,26,0,-6,-68,9,2310.358236911978,1680646240369,"How many <b class=""r"">red</b> marbles did your opponent report drawing?",-1,-1,1680646182706,0,0.9166666666666666
sona-43387,linear,over,trial,24,sender,100,0.5,5,78,75,69,0,-9,-72,4,2908.6118089221195,1680646330344,"How many <b class=""r"">red</b> marbles did your opponent report drawing?",-1,-1,1680646256143,0,0.9166666666666666
sona-43387,linear,over,trial,26,sender,100,0.5,5,67,67,61,0,-6,-79,5,2925.5444890340236,1680646370811,"How many <b class=""r"">red</b> marbles did your opponent report drawing?",-1,-1,1680646347765,0,0.9166666666666666
sona-43387,linear,over,trial,28,sender,100,0.5,5,56,47,41,0,-15,-84,-5,2744.82333943882,1680646509098,"How many <b class=""r"">red</b> marbles did your opponent report drawing?",-1,-1,1680646347765,0,0.9166666666666666
sona-43387,linear,over,trial,30,sender,100,0.5,5,61,48,43,0,-18,-99,-8,2655.562962591308,1680646642021,"How many <b class=""r"">red</b> marbles did your opponent report drawing?",-1,-1,1680646642021,0,0.9166666666666666
sona-43387,linear,over,trial,32,sender,100,0.5,5,59,44,39,0,-20,-114,-13,2695.9541919268777,1680646760417,"How many <b class=""r"">red</b> marbles did your opponent report drawing?",-1,-1,1680646642021,0,0.9166666666666666
sona-43387,linear,over,trial,34,sender,100,0.5,5,58,51,49,0,-9,-124,-12,2170.1947367346556,1680646818400,"How many <b class=""r"">red</b> marbles did your opponent report drawing?",-1,-1,1680646642021,0,0.9166666666666666
sona-43387,linear,over,trial,36,sender,100,0.5,5,51,43,40,0,-11,-132,-15,2598.903025916939,1680646977868,"How many <b class=""r"">red</b> marbles did your opponent report drawing?",-1,-1,1680646942867,0,0.9166666666666666
sona-43387,linear,over,trial,38,sender,100,0.5,5,71,66,61,0,-10,-136,-21,2695.352710427808,1680647009341,"How many <b class=""r"">red</b> marbles did your opponent report drawing?",-1,-1,1680646942867,0,0.9166666666666666
sona-43387,linear,over,trial,40,sender,100,0.5,5,21,15,12,0,-9,-146,-20,2101.1176847956067,1680647088352,"How many <b class=""r"">red</b> marbles did your opponent report drawing?",-1,-1,1680647088352,0,0.9166666666666666
sona-43387,linear,over,trial,42,sender,100,0.5,5,53,53,46,0,-7,-161,-12,3202.1219872942697,1680647124855,"How many <b class=""r"">red</b> marbles did your opponent report drawing?",-1,-1,1680647088352,0,0.9166666666666666
sona-43387,linear,over,trial,44,sender,100,0.5,5,32,34,30,0,-2,-167,-8,2495.9177241388415,1680647161807,"How many <b class=""r"">red</b> marbles did your opponent report drawing?",-1,-1,1680647088352,0,0.9166666666666666
sona-43387,linear,over,trial,46,sender,100,0.5,5,32,36,29,0,-3,-177,-1,3236.331161482463,1680647215480,"How many <b class=""r"">red</b> marbles did your opponent report drawing?",-1,-1,1680647178296,0,0.9166666666666666
sona-43387,linear,over,trial,48,sender,100,0.5,5,78,68,64,0,-14,-186,-6,2114.3732911249326,1680647283344,"How many <b class=""r"">red</b> marbles did your opponent report drawing?",-1,-1,1680647178296,0,0.9166666666666666
sona-43387,linear,over,trial,50,sender,100,0.5,5,36,31,26,0,-10,-194,-8,2513.3462776759216,1680647331366,"How many <b class=""r"">red</b> marbles did your opponent report drawing?",-1,-1,1680647331366,0,0.9166666666666666
sona-43387,linear,over,trial,52,sender,100,0.5,5,26,25,17,0,-9,-199,-12,3032.3898157156545,1680647386330,"How many <b class=""r"">red</b> marbles did your opponent report drawing?",-1,-1,1680647331366,0,0.9166666666666666
sona-43387,linear,over,trial,54,sender,100,0.5,5,83,74,66,0,-17,-207,-21,3123.651389681209,1680647467396,"How many <b class=""r"">red</b> marbles did your opponent report drawing?",-1,-1,1680647331366,0,0.9166666666666666
sona-43387,linear,over,trial,56,sender,100,0.5,5,51,45,40,0,-11,-214,-25,2410.986610483864,1680647517392,"How many <b class=""r"">red</b> marbles did your opponent report drawing?",-1,-1,1680647488440,0,0.9166666666666666
sona-43387,linear,over,trial,58,sender,100,0.5,5,34,29,21,0,-13,-222,-30,2400.0484659841454,1680647560438,"How many <b class=""r"">red</b> marbles did your opponent report drawing?",-1,-1,1680647488440,0,0.9166666666666666
sona-43387,linear,over,trial,60,sender,100,0.5,5,32,31,25,0,-7,-233,-26,2070.8919004758154,1680647607471,"How many <b class=""r"">red</b> marbles did your opponent report drawing?",-1,-1,1680647607471,0,0.9166666666666666
sona-43387,linear,over,trial,62,sender,100,0.5,5,62,56,53,0,-9,-248,-20,2484.6881250329843,1680647667750,"How many <b class=""r"">red</b> marbles did your opponent report drawing?",-1,-1,1680647607471,0,0.9166666666666666
sona-43387,linear,over,trial,64,sender,100,0.5,5,56,39,35,0,-21,-259,-30,2908.4102141802614,1680647779608,"How many <b class=""r"">red</b> marbles did your opponent report drawing?",-1,-1,1680647607471,0,0.9166666666666666
sona-43387,linear,over,trial,66,sender,100,0.5,5,60,59,55,0,-5,-268,-26,2499.423445782708,1680647813227,"How many <b class=""r"">red</b> marbles did your opponent report drawing?",-1,-1,1680647792638,0,0.9166666666666666
sona-43387,linear,over,trial,68,sender,100,0.5,5,67,63,61,0,-6,-275,-25,2552.153990937612,1680647861256,"How many <b class=""r"">red</b> marbles did your opponent report drawing?",-1,-1,1680647827749,0,0.9166666666666666
sona-43387,linear,over,trial,70,sender,100,0.5,5,39,36,26,0,-13,-283,-30,2525.508310180862,1680647896914,"How many <b class=""r"">red</b> marbles did your opponent report drawing?",-1,-1,1680647896914,0,0.9166666666666666
sona-43387,linear,over,trial,72,sender,100,0.5,5,28,25,19,0,-9,-291,-31,2703.8610399904323,1680647933290,"How many <b class=""r"">red</b> marbles did your opponent report drawing?",-1,-1,1680647896914,0,0.9166666666666666
sona-43387,linear,over,trial,74,sender,100,0.5,5,43,38,36,0,-7,-299,-30,2078.3024715069805,1680647989879,"How many <b class=""r"">red</b> marbles did your opponent report drawing?",-1,-1,1680647896914,0,0.9166666666666666
sona-43387,linear,over,trial,76,sender,100,0.5,5,61,61,55,0,-6,-306,-29,2102.143294352411,1680648026815,"How many <b class=""r"">red</b> marbles did your opponent report drawing?",-1,-1,1680648002668,0,0.9166666666666666
sona-43387,linear,over,trial,78,sender,100,0.5,5,75,69,61,0,-14,-309,-40,2584.851226120648,1680648062587,"How many <b class=""r"">red</b> marbles did your opponent report drawing?",-1,-1,1680648002668,0,0.9166666666666666
sona-43387,linear,over,trial,80,sender,100,0.5,5,40,34,31,0,-9,-320,-38,2705.3170147147525,1680648104068,"How many <b class=""r"">red</b> marbles did you actually draw (before any changes)?",40,46,1680648104068,0,0.9166666666666666
sona-43387,linear,over,trial,82,sender,100,0.5,5,49,47,41,0,-8,-328,-38,2359.3576555056243,1680648167121,"How many <b class=""r"">red</b> marbles did you actually draw (before any changes)?",-1,-1,1680648104068,0,0.9166666666666666
sona-43387,linear,over,trial,84,sender,100,0.5,5,45,42,37,0,-8,-330,-44,2309.704997238075,1680648266856,"How many <b class=""r"">red</b> marbles did your opponent report drawing?",-1,-1,1680648184992,0,0.9166666666666666
sona-43387,linear,over,trial,86,sender,100,0.5,5,55,49,48,0,-7,-345,-36,2904.080847513849,1680648326833,"How many <b class=""r"">red</b> marbles did your opponent report drawing?",-1,-1,1680648287523,0,0.9166666666666666
sona-43387,linear,over,trial,88,sender,100,0.5,5,53,44,41,0,-12,-357,-36,2621.351604096823,1680648376305,"How many <b class=""r"">red</b> marbles did your opponent report drawing?",-1,-1,1680648287523,0,0.9166666666666666
sona-43387,linear,over,trial,90,sender,100,0.5,5,74,67,60,0,-14,-365,-42,2412.7249117404135,1680648426234,"How many <b class=""r"">red</b> marbles did your opponent report drawing?",-1,-1,1680648426234,0,0.9166666666666666
sona-43387,linear,over,trial,92,sender,100,0.5,5,81,80,79,0,-2,-376,-33,2703.7104679620825,1680648464279,"How many <b class=""r"">red</b> marbles did your opponent report drawing?",-1,-1,1680648426234,0,0.9166666666666666
sona-43387,linear,over,trial,94,sender,100,0.5,5,81,78,72,0,-9,-384,-34,2789.0615834998553,1680648495578,"How many <b class=""r"">red</b> marbles did your opponent report drawing?",-1,-1,1680648426234,0,0.9166666666666666
sona-43387,linear,over,trial,96,sender,100,0.5,5,24,26,20,0,-4,-392,-30,3249.178012003439,1680648521850,"How many <b class=""r"">red</b> marbles did your opponent report drawing?",-1,-1,1680648507450,0,0.9166666666666666
sona-43387,linear,over,trial,98,sender,100,0.5,5,52,49,47,0,-5,-399,-28,2950.665943321638,1680648556992,"How many <b class=""r"">red</b> marbles did you actually draw (before any changes)?",52,52,1680648556992,0,0.9166666666666666
sona-43387,linear,over,trial,100,sender,100,0.5,5,77,74,66,0,-11,-408,-30,2304.420192656119,1680648604184,"How many <b class=""r"">red</b> marbles did your opponent report drawing?",-1,-1,1680648604184,0,0.9166666666666666
sona-46869,unif,over,trial,1,sender,100,0.5,5,55,47,47,0,-8,0,-8,2875.0577009515505,1678826070025,"How many <b class=""r"">red</b> marbles did your opponent report drawing?",-1,-1,1678825997259,0,0.8333333333333334
sona-46869,unif,over,trial,3,sender,100,0.5,5,27,28,24,0,-3,-1,-10,2935.2776441824844,1678826132951,"How many <b class=""r"">red</b> marbles did your opponent report drawing?",-1,-1,1678825997259,0,0.8333333333333334
sona-46869,unif,over,trial,5,sender,100,0.5,5,49,56,49,0,0,-11,-10,3173.2884023558267,1678826183549,"How many <b class=""r"">red</b> marbles did your opponent report drawing?",-1,-1,1678826183549,0,0.8333333333333334
sona-46869,unif,over,trial,7,sender,100,0.5,5,78,58,53,0,-25,-13,-35,2637.8842426348256,1678826253300,"How many <b class=""r"">red</b> marbles did your opponent report drawing?",-1,-1,1678826183549,0,0.8333333333333334
sona-46869,unif,over,trial,9,sender,100,0.5,5,60,60,58,0,-2,-28,-37,2642.5844243381516,1678826292396,"How many <b class=""r"">red</b> marbles did your opponent report drawing?",-1,-1,1678826183549,0,0.8333333333333334
sona-46869,unif,over,trial,11,sender,100,0.5,5,38,67,61,23,-23,-25,-60,2377.9156231327347,1678826348447,"How many <b class=""r"">red</b> marbles did your opponent report drawing?",-1,-1,1678826303662,0,0.8333333333333334
sona-46869,unif,over,trial,13,sender,100,0.5,5,75,72,69,0,-6,-41,-66,2192.2597139599575,1678826382644,"How many <b class=""r"">red</b> marbles did your opponent report drawing?",-1,-1,1678826303662,0,0.8333333333333334
sona-46869,unif,over,trial,15,sender,100,0.5,5,30,26,25,0,-5,-62,-71,2437.4832243508736,1678826415401,"How many <b class=""r"">red</b> marbles did your opponent report drawing?",-1,-1,1678826415401,0,0.8333333333333334
sona-46869,unif,over,trial,17,sender,100,0.5,5,55,19,11,0,-44,-78,-115,2394.7182937152347,1678826467828,"How many <b class=""r"">red</b> marbles did your opponent report drawing?",-1,-1,1678826415401,0,0.8333333333333334
sona-46869,unif,over,trial,19,sender,100,0.5,5,42,42,32,0,-10,-98,-125,2547.625872077509,1678826499886,"How many <b class=""r"">red</b> marbles did your opponent report drawing?",-1,-1,1678826415401,0,0.8333333333333334
sona-46869,unif,over,trial,21,sender,100,0.5,5,73,43,38,0,-35,-112,-160,2848.8419990117613,1678826554188,"How many <b class=""r"">red</b> marbles did your opponent report drawing?",-1,-1,1678826512328,0,0.8333333333333334
sona-46869,unif,over,trial,23,sender,100,0.5,5,29,58,54,25,-25,-90,-182,2919.672224937295,1678826593103,"How many <b class=""r"">red</b> marbles did your opponent report drawing?",-1,-1,1678826512328,0,0.8333333333333334
sona-46869,unif,over,trial,25,sender,100,0.5,5,73,83,79,6,-6,-122,-188,2419.3865860217734,1678826629431,"How many <b class=""r"">red</b> marbles did your opponent report drawing?",-1,-1,1678826629432,0,0.8333333333333334
sona-46869,unif,over,trial,27,sender,100,0.5,5,43,72,67,24,-24,-106,-204,2877.118196010504,1678826682337,"How many <b class=""r"">red</b> marbles did your opponent report drawing?",-1,-1,1678826629432,0,0.8333333333333334
sona-46869,unif,over,trial,29,sender,100,0.5,5,48,48,44,0,-4,-116,-208,2542.6874629993276,1678826704005,"How many <b class=""r"">red</b> marbles did your opponent report drawing?",-1,-1,1678826629432,0,0.8333333333333334
sona-46869,unif,over,trial,31,sender,100,0.5,5,58,71,64,6,-6,-170,-214,2540.046775347569,1678826745798,"How many <b class=""r"">red</b> marbles did your opponent report drawing?",-1,-1,1678826719029,0,0.8333333333333334
sona-46869,unif,over,trial,33,sender,100,0.5,5,44,62,60,16,-16,-168,-230,2599.8652753551723,1678826781961,"How many <b class=""r"">red</b> marbles did you actually draw (before any changes)?",44,63,1678826781962,0,0.8333333333333334
sona-46869,unif,over,trial,35,sender,100,0.5,5,35,36,31,0,-4,-186,-234,3211.927347216944,1678826843093,"How many <b class=""r"">red</b> marbles did your opponent report drawing?",-1,-1,1678826843093,0,0.8333333333333334
sona-46869,unif,over,trial,37,sender,100,0.5,5,52,87,81,29,-29,-196,-263,2992.481037637992,1678826910967,"How many <b class=""r"">red</b> marbles did your opponent report drawing?",-1,-1,1678826843093,0,0.8333333333333334
sona-46869,unif,over,trial,39,sender,100,0.5,5,56,56,53,0,-3,-216,-266,2990.6252778005432,1678826940671,"How many <b class=""r"">red</b> marbles did your opponent report drawing?",-1,-1,1678826843093,0,0.8333333333333334
sona-46869,unif,over,trial,41,sender,100,0.5,5,71,71,65,0,-6,-274,-272,3068.442112313016,1678826969787,"How many <b class=""r"">red</b> marbles did you actually draw (before any changes)?",71,71,1678826969788,0,0.8333333333333334
sona-46869,unif,over,trial,43,sender,100,0.5,5,82,63,62,0,-20,-319,-292,2177.378681080959,1678827010193,"How many <b class=""r"">red</b> marbles did you actually draw (before any changes)?",-1,-1,1678826969788,0,0.8333333333333334
sona-46869,unif,over,trial,45,sender,100,0.5,5,15,62,55,40,-40,-292,-332,2844.2040485194266,1678827064592,"How many <b class=""r"">red</b> marbles did you actually draw (before any changes)?",15,15,1678827064592,0,0.8333333333333334
sona-46869,unif,over,trial,47,sender,100,0.5,5,30,81,79,49,-49,-322,-381,3205.9918850284516,1678827145457,"How many <b class=""r"">red</b> marbles did you actually draw (before any changes)?",-1,-1,1678827064592,0,0.8333333333333334
sona-46869,unif,over,trial,49,sender,100,0.5,5,65,79,73,8,-8,-334,-389,2201.0186071443823,1678827180520,"How many <b class=""r"">red</b> marbles did you actually draw (before any changes)?",-1,-1,1678827064592,0,0.8333333333333334
sona-46869,unif,over,trial,51,sender,100,0.5,5,40,59,53,13,-13,-335,-402,3086.50229445833,1678827218528,"How many <b class=""r"">red</b> marbles did you actually draw (before any changes)?",-1,-1,1678827194837,0,0.8333333333333334
sona-46869,unif,over,trial,53,sender,100,0.5,5,41,83,80,39,-39,-297,-440,2432.4310993873605,1678827266344,"How many <b class=""r"">red</b> marbles did you actually draw (before any changes)?",-1,-1,1678827194837,0,0.8333333333333334
sona-46869,unif,over,trial,55,sender,100,0.5,5,64,52,48,0,-16,-323,-456,2513.862989554221,1678827313074,"How many <b class=""r"">red</b> marbles did you actually draw (before any changes)?",-1,-1,1678827313074,0,0.8333333333333334
sona-46869,unif,over,trial,57,sender,100,0.5,5,76,69,66,0,-10,-326,-463,2877.203506866489,1678827351535,"How many <b class=""r"">red</b> marbles did you actually draw (before any changes)?",-1,-1,1678827313074,0,0.8333333333333334
sona-46869,unif,over,trial,59,sender,100,0.5,5,49,74,67,18,-18,-332,-481,2328.381380382887,1678827392451,"How many <b class=""r"">red</b> marbles did you actually draw (before any changes)?",-1,-1,1678827313074,0,0.8333333333333334
sona-46869,unif,over,trial,61,sender,100,0.5,5,46,77,72,26,-26,-337,-507,2204.534899427412,1678827430726,"How many <b class=""r"">red</b> marbles did you actually draw (before any changes)?",46,46,1678827430727,0,0.8333333333333334
sona-46869,unif,over,trial,63,sender,100,0.5,5,62,58,56,0,-6,-341,-509,2146.961476604517,1678827456145,"How many <b class=""r"">red</b> marbles did you actually draw (before any changes)?",-1,-1,1678827430727,0,0.8333333333333334
sona-46869,unif,over,trial,65,sender,100,0.5,5,41,67,60,19,-19,-370,-528,2816.084230435561,1678827488355,"How many <b class=""r"">red</b> marbles did you actually draw (before any changes)?",-1,-1,1678827488356,0,0.8333333333333334
sona-46869,unif,over,trial,67,sender,100,0.5,5,73,73,65,0,-8,-390,-536,3054.5318544962947,1678827537178,"How many <b class=""r"">red</b> marbles did you actually draw (before any changes)?",-1,-1,1678827488356,0,0.8333333333333334
sona-46869,unif,over,trial,69,sender,100,0.5,5,39,92,90,51,-51,-359,-567,3124.5521703156737,1678827588375,"How many <b class=""r"">red</b> marbles did you actually draw (before any changes)?",-1,-1,1678827488356,0,0.8333333333333334
sona-46869,unif,over,trial,71,sender,100,0.5,5,87,93,87,0,0,-410,-567,2113.8965001771985,1678827622813,"How many <b class=""r"">red</b> marbles did you actually draw (before any changes)?",87,87,1678827622813,0,0.8333333333333334
sona-46869,unif,over,trial,73,sender,100,0.5,5,58,62,56,0,-2,-426,-569,2917.287386956158,1678827657397,"How many <b class=""r"">red</b> marbles did you actually draw (before any changes)?",-1,-1,1678827622813,0,0.8333333333333334
sona-46869,unif,over,trial,75,sender,100,0.5,5,28,64,61,33,-33,-432,-602,2338.919118107723,1678827699499,"How many <b class=""r"">red</b> marbles did you actually draw (before any changes)?",-1,-1,1678827699499,0,0.8333333333333334
sona-46869,unif,over,trial,77,sender,100,0.5,5,51,48,46,0,-5,-487,-607,2221.9269641515743,1678827731156,"How many <b class=""r"">red</b> marbles did you actually draw (before any changes)?",-1,-1,1678827699499,0,0.8333333333333334
sona-46869,unif,over,trial,79,sender,100,0.5,5,58,73,68,10,-10,-507,-617,2139.553892153092,1678827761543,"How many <b class=""r"">red</b> marbles did you actually draw (before any changes)?",-1,-1,1678827699499,0,0.8333333333333334
sona-46869,unif,over,trial,81,sender,100,0.5,5,46,81,76,30,-30,-540,-647,2787.9313803922237,1678827798872,"How many <b class=""r"">red</b> marbles did you actually draw (before any changes)?",-1,-1,1678827771873,0,0.8333333333333334
sona-46869,unif,over,trial,83,sender,100,0.5,5,86,83,83,0,-3,-542,-650,2147.624060310971,1678827826161,"How many <b class=""r"">red</b> marbles did you actually draw (before any changes)?",-1,-1,1678827771873,0,0.8333333333333334
sona-46869,unif,over,trial,85,sender,100,0.5,5,30,56,46,16,-16,-530,-662,2153.2520541386893,1678827869060,"How many <b class=""r"">red</b> marbles did you actually draw (before any changes)?",-1,-1,1678827869061,0,0.8333333333333334
sona-46869,unif,over,trial,87,sender,100,0.5,5,64,77,72,8,-8,-569,-670,2691.500671577713,1678827903821,"How many <b class=""r"">red</b> marbles did you actually draw (before any changes)?",-1,-1,1678827869061,0,0.8333333333333334
sona-46869,unif,over,trial,89,sender,100,0.5,5,66,74,71,5,-5,-590,-675,2206.3635899583105,1678827935455,"How many <b class=""r"">red</b> marbles did your opponent report drawing?",-1,-1,1678827915391,0,0.8333333333333334
sona-46869,unif,over,trial,91,sender,100,0.5,5,78,69,62,0,-16,-615,-691,2439.9837892037294,1678827966791,"How many <b class=""r"">red</b> marbles did your opponent report drawing?",-1,-1,1678827945201,0,0.8333333333333334
sona-46869,unif,over,trial,93,sender,100,0.5,5,69,69,68,0,-1,-622,-692,2614.7636757299224,1678827985625,"How many <b class=""r"">red</b> marbles did your opponent report drawing?",-1,-1,1678827945201,0,0.8333333333333334
sona-46869,unif,over,trial,95,sender,100,0.5,5,41,82,76,35,-35,-620,-727,2590.7047053142287,1678828030648,"How many <b class=""r"">red</b> marbles did your opponent report drawing?",-1,-1,1678828030648,0,0.8333333333333334
sona-46869,unif,over,trial,97,sender,100,0.5,5,64,93,90,26,-26,-663,-753,2820.2579621636924,1678828071703,"How many <b class=""r"">red</b> marbles did your opponent report drawing?",-1,-1,1678828030648,0,0.8333333333333334
sona-46869,unif,over,trial,99,sender,100,0.5,5,61,79,73,12,-12,-680,-765,2758.898398932639,1678828103219,"How many <b class=""r"">red</b> marbles did your opponent report drawing?",-1,-1,1678828030648,0,0.8333333333333334
sona-47844,unif,under,trial,1,sender,100,0.5,5,73,56,60,13,-13,13,-13,2635.225837071544,1678831133458,"How many <b class=""r"">red</b> marbles did your opponent report drawing?",-1,-1,1678831032318,0,0.75
sona-47844,unif,under,trial,3,sender,100,0.5,5,61,51,59,2,-2,10,-10,3026.491490237255,1678831255417,"How many <b class=""r"">red</b> marbles did your opponent report drawing?",-1,-1,1678831032318,0,0.75
sona-47844,unif,under,trial,5,sender,100,0.5,5,64,38,42,22,-22,28,-32,2335.4004424699224,1678831332732,"How many <b class=""r"">red</b> marbles did your opponent report drawing?",-1,-1,1678831332732,0,0.75
sona-47844,unif,under,trial,7,sender,100,0.5,5,78,48,50,28,-28,30,-34,3194.4433470320346,1678831432642,"How many <b class=""r"">red</b> marbles did your opponent report drawing?",-1,-1,1678831332732,0,0.75
sona-47844,unif,under,trial,9,sender,100,0.5,5,11,9,13,0,-2,11,-17,2899.520795866365,1678831527766,"How many <b class=""r"">red</b> marbles did your opponent report drawing?",-1,-1,1678831332732,0,0.75
sona-47844,unif,under,trial,11,sender,100,0.5,5,53,38,43,10,-10,16,-22,3174.0196772415784,1678831586187,"How many <b class=""r"">red</b> marbles did your opponent report drawing?",-1,-1,1678831547453,0,0.75
sona-47844,unif,under,trial,13,sender,100,0.5,5,18,10,17,1,-1,13,-19,2933.36039859622,1678831650019,"How many <b class=""r"">red</b> marbles did your opponent report drawing?",-1,-1,1678831547453,0,0.75
sona-47844,unif,under,trial,15,sender,100,0.5,5,22,44,49,0,-27,6,-46,2850.2937479049924,1678831732329,"How many <b class=""r"">red</b> marbles did your opponent report drawing?",-1,-1,1678831732329,0,0.75
sona-47844,unif,under,trial,17,sender,100,0.5,5,69,38,44,25,-25,15,-71,2307.5113972147446,1678831826387,"How many <b class=""r"">red</b> marbles did you actually draw (before any changes)?",69,69,1678831826387,0,0.75
sona-47844,unif,under,trial,19,sender,100,0.5,5,45,28,32,13,-13,18,-84,2221.4053063648535,1678831884464,"How many <b class=""r"">red</b> marbles did you actually draw (before any changes)?",-1,-1,1678831826387,0,0.75
sona-47844,unif,under,trial,21,sender,100,0.5,5,51,39,44,7,-7,20,-91,2189.937942923344,1678832017670,"How many <b class=""r"">red</b> marbles did you actually draw (before any changes)?",51,51,1678832017670,0,0.75
sona-47844,unif,under,trial,23,sender,100,0.5,5,74,53,57,17,-17,30,-108,3019.77477655038,1678832116800,"How many <b class=""r"">red</b> marbles did you actually draw (before any changes)?",-1,-1,1678832017670,0,0.75
sona-47844,unif,under,trial,25,sender,100,0.5,5,20,7,15,5,-5,23,-113,2906.203716942923,1678832217154,"How many <b class=""r"">red</b> marbles did your opponent report drawing?",-1,-1,1678832217154,0,0.75
sona-47844,unif,under,trial,27,sender,100,0.5,5,73,56,60,13,-13,25,-126,2427.6236598506603,1678832264807,"How many <b class=""r"">red</b> marbles did your opponent report drawing?",-1,-1,1678832217154,0,0.75
sona-47844,unif,under,trial,29,sender,100,0.5,5,82,43,48,34,-34,43,-160,2811.2433705115436,1678832346048,"How many <b class=""r"">red</b> marbles did you actually draw (before any changes)?",82,87,1678832346048,0,0.75
sona-47844,unif,under,trial,31,sender,100,0.5,5,27,10,17,10,-10,36,-170,2747.8039746756067,1678832442081,"How many <b class=""r"">red</b> marbles did you actually draw (before any changes)?",-1,-1,1678832382522,0,0.75
sona-47844,unif,under,trial,33,sender,100,0.5,5,30,12,18,12,-12,40,-182,2213.044828377525,1678832494295,"How many <b class=""r"">red</b> marbles did you actually draw (before any changes)?",-1,-1,1678832382522,0,0.75
sona-47844,unif,under,trial,35,sender,100,0.5,5,24,13,20,4,-4,36,-186,2376.9925990695892,1678832555691,"How many <b class=""r"">red</b> marbles did you actually draw (before any changes)?",-1,-1,1678832555691,0,0.75
sona-47844,unif,under,trial,37,sender,100,0.5,5,74,40,47,27,-27,46,-213,2197.9029693996754,1678832617575,"How many <b class=""r"">red</b> marbles did you actually draw (before any changes)?",-1,-1,1678832555691,0,0.75
sona-47844,unif,under,trial,39,sender,100,0.5,5,42,24,29,13,-13,38,-226,2292.340578913302,1678832670783,"How many <b class=""r"">red</b> marbles did you actually draw (before any changes)?",-1,-1,1678832555691,0,0.75
sona-47844,unif,under,trial,41,sender,100,0.5,5,19,53,62,0,-43,19,-269,2666.0114371868176,1678832754278,"How many <b class=""r"">red</b> marbles did you actually draw (before any changes)?",-1,-1,1678832706213,0,0.75
sona-47844,unif,under,trial,43,sender,100,0.5,5,20,9,16,4,-4,19,-273,2571.8941483528843,1678832810550,"How many <b class=""r"">red</b> marbles did you actually draw (before any changes)?",-1,-1,1678832706213,0,0.75
sona-47844,unif,under,trial,45,sender,100,0.5,5,60,37,42,18,-18,19,-291,3231.0211840117395,1678832924014,"How many <b class=""r"">red</b> marbles did you actually draw (before any changes)?",-1,-1,1678832924014,0,0.75
sona-47844,unif,under,trial,47,sender,100,0.5,5,66,39,44,22,-22,21,-313,2938.5322841560974,1678832976286,"How many <b class=""r"">red</b> marbles did you actually draw (before any changes)?",-1,-1,1678832924014,0,0.75
sona-47844,unif,under,trial,49,sender,100,0.5,5,22,9,14,8,-8,2,-321,2906.771952294456,1678833029235,"How many <b class=""r"">red</b> marbles did you actually draw (before any changes)?",-1,-1,1678832924014,0,0.75
sona-47844,unif,under,trial,51,sender,100,0.5,5,73,45,52,21,-21,1,-342,2133.203431294895,1678833108439,"How many <b class=""r"">red</b> marbles did you actually draw (before any changes)?",-1,-1,1678833048934,0,0.75
sona-47844,unif,under,trial,53,sender,100,0.5,5,31,13,17,14,-14,0,-356,2868.8872242724283,1678833197906,"How many <b class=""r"">red</b> marbles did you actually draw (before any changes)?",-1,-1,1678833048934,0,0.75
sona-47844,unif,under,trial,55,sender,100,0.5,5,75,30,42,33,-33,18,-389,2393.8350430771925,1678833277255,"How many <b class=""r"">red</b> marbles did you actually draw (before any changes)?",-1,-1,1678833277255,0,0.75
sona-47844,unif,under,trial,57,sender,100,0.5,5,53,28,33,20,-20,16,-409,2882.219924793199,1678833344369,"How many <b class=""r"">red</b> marbles did you actually draw (before any changes)?",-1,-1,1678833277255,0,0.75
sona-47844,unif,under,trial,59,sender,100,0.5,5,59,25,41,18,-18,24,-427,2622.4728434051262,1678833648283,"How many <b class=""r"">red</b> marbles did your opponent report drawing?",-1,-1,1678833367122,0,0.75
sona-47844,unif,under,trial,61,sender,100,0.5,5,41,61,64,0,-23,-11,-450,2282.2814552283107,1678833951205,"How many <b class=""r"">red</b> marbles did your opponent report drawing?",-1,-1,1678833663738,0,0.75
sona-47844,unif,under,trial,63,sender,100,0.5,5,32,67,70,0,-38,-37,-488,2634.646036698603,1678834000711,"How many <b class=""r"">red</b> marbles did you actually draw (before any changes)?",32,67,1678834000711,0,0.75
sona-47844,unif,under,trial,65,sender,100,0.5,5,67,29,34,33,-33,-26,-521,2316.505449412879,1678834072709,"How many <b class=""r"">red</b> marbles did you actually draw (before any changes)?",-1,-1,1678834072709,0,0.75
sona-47844,unif,under,trial,67,sender,100,0.5,5,17,7,10,7,-7,-36,-528,2826.007326066157,1678834226083,"How many <b class=""r"">red</b> marbles did you actually draw (before any changes)?",-1,-1,1678834072709,0,0.75
sona-47844,unif,under,trial,69,sender,100,0.5,5,51,26,34,17,-17,-43,-545,2623.687895808869,1678834372994,"How many <b class=""r"">red</b> marbles did your opponent report drawing?",-1,-1,1678834317922,0,0.75
sona-47844,unif,under,trial,71,sender,100,0.5,5,85,37,43,42,-42,-27,-587,2241.60568421931,1678834478069,"How many <b class=""r"">red</b> marbles did your opponent report drawing?",-1,-1,1678834390461,0,0.75
sona-47844,unif,under,trial,73,sender,100,0.5,5,51,20,28,23,-23,-20,-610,2894.892139751352,1678834543475,"How many <b class=""r"">red</b> marbles did your opponent report drawing?",-1,-1,1678834390461,0,0.75
sona-47844,unif,under,trial,75,sender,100,0.5,5,52,23,27,25,-25,-22,-635,2170.01305424093,1678834599166,"How many <b class=""r"">red</b> marbles did your opponent report drawing?",-1,-1,1678834599166,0,0.75
sona-47844,unif,under,trial,77,sender,100,0.5,5,70,31,33,37,-37,-35,-672,2911.4715889614063,1678834652324,"How many <b class=""r"">red</b> marbles did your opponent report drawing?",-1,-1,1678834599166,0,0.75
sona-47844,unif,under,trial,79,sender,100,0.5,5,58,26,40,18,-18,-50,-690,3180.7317475830655,1678834784360,"How many <b class=""r"">red</b> marbles did your opponent report drawing?",-1,-1,1678834599166,0,0.75
sona-47844,unif,under,trial,81,sender,100,0.5,5,63,28,34,29,-29,-42,-719,2588.1304073917945,1678834874224,"How many <b class=""r"">red</b> marbles did your opponent report drawing?",-1,-1,1678834802023,0,0.75
sona-47844,unif,under,trial,83,sender,100,0.5,5,62,12,16,46,-46,-22,-765,2707.982057386707,1678834962141,"How many <b class=""r"">red</b> marbles did your opponent report drawing?",-1,-1,1678834802023,0,0.75
sona-47844,unif,under,trial,85,sender,100,0.5,5,35,11,15,20,-20,-34,-785,2412.2954033794776,1678835015976,"How many <b class=""r"">red</b> marbles did your opponent report drawing?",-1,-1,1678835015976,0,0.75
sona-47844,unif,under,trial,87,sender,100,0.5,5,60,28,36,24,-24,-37,-809,2066.234248558618,1678835067650,"How many <b class=""r"">red</b> marbles did your opponent report drawing?",-1,-1,1678835015976,0,0.75
sona-47844,unif,under,trial,89,sender,100,0.5,5,36,19,22,14,-14,-46,-823,2303.249031715784,1678835202793,"How many <b class=""r"">red</b> marbles did your opponent report drawing?",-1,-1,1678835173909,0,0.75
sona-47844,unif,under,trial,91,sender,100,0.5,5,40,16,18,22,-22,-47,-845,2855.8240744458117,1678835453388,"How many <b class=""r"">red</b> marbles did your opponent report drawing?",-1,-1,1678835244531,0,0.75
sona-47844,unif,under,trial,93,sender,100,0.5,5,16,10,11,5,-5,-69,-850,2525.374359839119,1678835642530,"How many <b class=""r"">red</b> marbles did your opponent report drawing?",-1,-1,1678835244531,0,0.75
sona-47844,unif,under,trial,95,sender,100,0.5,5,81,49,54,27,-27,-60,-877,2854.8748095290484,1678835699717,"How many <b class=""r"">red</b> marbles did you actually draw (before any changes)?",81,81,1678835699717,0,0.75
sona-47844,unif,under,trial,97,sender,100,0.5,5,31,12,15,16,-16,-54,-893,2480.3360803234905,1678836675902,"How many <b class=""r"">red</b> marbles did you actually draw (before any changes)?",-1,-1,1678835699717,0,0.75
sona-47844,unif,under,trial,99,sender,100,0.5,5,38,17,20,18,-18,-62,-911,2501.1872674340357,1678836713062,"How many <b class=""r"">red</b> marbles did you actually draw (before any changes)?",-1,-1,1678835699717,0,0.75
sona-41729,linear,under,trial,2,sender,100,0.5,5,22,23,26,0,-4,0,-4,2416.3496260126913,1678832267942,"How many <b class=""r"">red</b> marbles did your opponent report drawing?",-1,-1,1678832208176,0,0.8333333333333334
sona-41729,linear,under,trial,4,sender,100,0.5,5,87,88,90,0,-3,-4,-3,3191.528153770525,1678832326428,"How many <b class=""r"">red</b> marbles did your opponent report drawing?",-1,-1,1678832208176,0,0.8333333333333334
sona-41729,linear,under,trial,6,sender,100,0.5,5,47,47,57,0,-10,-7,-10,2612.3506242206154,1678832424542,"How many <b class=""r"">red</b> marbles did your opponent report drawing?",-1,-1,1678832405642,0,0.8333333333333334
sona-41729,linear,under,trial,8,sender,100,0.5,5,40,41,42,0,-2,-12,-7,2731.7025023235283,1678832467776,"How many <b class=""r"">red</b> marbles did you actually draw (before any changes)?",40,40,1678832467776,0,0.8333333333333334
sona-41729,linear,under,trial,10,sender,100,0.5,5,76,79,85,0,-9,-13,-15,2531.1577575571855,1678832545392,"How many <b class=""r"">red</b> marbles did you actually draw (before any changes)?",76,76,1678832545392,0,0.8333333333333334
sona-41729,linear,under,trial,12,sender,100,0.5,5,59,64,67,0,-8,-15,-23,2179.7648836903436,1678832579908,"How many <b class=""r"">red</b> marbles did you actually draw (before any changes)?",-1,-1,1678832545392,0,0.8333333333333334
sona-41729,linear,under,trial,14,sender,100,0.5,5,74,71,73,1,-1,-19,-19,2352.9508481781177,1678832620358,"How many <b class=""r"">red</b> marbles did you actually draw (before any changes)?",-1,-1,1678832545392,0,0.8333333333333334
sona-41729,linear,under,trial,16,sender,100,0.5,5,47,47,52,0,-5,-31,-12,2311.62548171476,1678832654024,"How many <b class=""r"">red</b> marbles did you actually draw (before any changes)?",-1,-1,1678832639058,0,0.8333333333333334
sona-41729,linear,under,trial,18,sender,100,0.5,5,42,39,45,0,-3,-39,-7,2187.103252708195,1678832679258,"How many <b class=""r"">red</b> marbles did you actually draw (before any changes)?",-1,-1,1678832639058,0,0.8333333333333334
sona-41729,linear,under,trial,20,sender,100,0.5,5,28,32,34,0,-6,-44,-8,2352.754193932072,1678832707557,"How many <b class=""r"">red</b> marbles did you actually draw (before any changes)?",-1,-1,1678832707557,0,0.8333333333333334
sona-41729,linear,under,trial,22,sender,100,0.5,5,78,76,80,0,-2,-49,-5,2438.164040028153,1678832737693,"How many <b class=""r"">red</b> marbles did you actually draw (before any changes)?",-1,-1,1678832707557,0,0.8333333333333334
