{
    "client": {
        "type": "sona",
        "experiment_id": 2228,
        "credit_token": "b315147ae43241ea9c65086cb510cfb7",
        "survey_code": "42550",
        "sid": "sona-42550",
        "window": {
            "width": 1728,
            "height": 912
        },
        "screen": {
            "width": 1728,
            "height": 1117
        },
        "userAgent": "Mozilla\/5.0 (Macintosh; Intel Mac OS X 10_15_7) AppleWebKit\/537.36 (KHTML, like Gecko) Chrome\/111.0.0.0 Safari\/537.36",
        "score": 0,
        "bonus": 0
    },
    "expt": {
        "saveURL": "submit.simple.php",
        "trials": 100,
        "practiceTrials": 2,
        "marblesSampled": 100,
        "probRed": 0.5,
        "practiceLambdaAI": 5,
        "lambdaAI": 0.3,
        "sd": 8.1,
        "roles": [
            "sender",
            "receiver"
        ],
        "cost": "unif",
        "goal": "over",
        "oppDishonesty": "dishonest_small",
        "catchTrials": [
            51,
            22,
            57,
            44,
            50,
            56,
            87,
            24,
            23,
            45
        ],
        "scoreTotal": {
            "player": -1188,
            "opp": 365
        },
        "sona": {
            "experiment_id": 2228,
            "credit_token": "b315147ae43241ea9c65086cb510cfb7"
        },
        "pilot": false,
        "debug": false
    },
    "trials": [
        {
            "exptPart": "practice",
            "trialNumber": 1,
            "roleCurrent": "sender",
            "marblesSampled": 100,
            "probRed": 0.5,
            "practiceLambda": 5,
            "trialLambda": 0.3,
            "instructedLambda": "dishonest_small",
            "sd": 8.1,
            "drawnRed": 41,
            "reportedRed": 53,
            "inferredRed": 46,
            "playerTrialScore": 5,
            "oppTrialScore": -5,
            "playerTotalScore": 5,
            "oppTotalScore": -5,
            "waitTime": 2852.795846495099,
            "responseTime": 1682102181549,
            "catchQuestion": "How many <b class=\"r\">red<\/b> marbles did you actually draw (before any changes)? ",
            "catchKey": 41,
            "catchResponse": 41,
            "catchTime": 1682102181550,
            "trialTime": 0
        },
        {
            "exptPart": "practice",
            "trialNumber": 2,
            "roleCurrent": "receiver",
            "marblesSampled": 100,
            "probRed": 0.5,
            "practiceLambda": 5,
            "trialLambda": 0.3,
            "instructedLambda": "dishonest_small",
            "sd": 8.1,
            "drawnRed": 64,
            "reportedRed": 61,
            "inferredRed": 52,
            "playerTrialScore": -12,
            "oppTrialScore": 0,
            "playerTotalScore": -7,
            "oppTotalScore": -5,
            "waitTime": 6787.429860841214,
            "responseTime": 1682102231886,
            "catchQuestion": "How many <b class=\"r\">red<\/b> marbles did your opponent report drawing? ",
            "catchKey": 61,
            "catchResponse": 61,
            "catchTime": 1682102231886,
            "trialTime": 0
        },
        {
            "exptPart": "trial",
            "trialNumber": 1,
            "roleCurrent": "receiver",
            "marblesSampled": 100,
            "probRed": 0.5,
            "practiceLambda": 5,
            "trialLambda": 0.3,
            "instructedLambda": "dishonest_small",
            "sd": 8.1,
            "drawnRed": 35,
            "reportedRed": 28,
            "inferredRed": 37,
            "playerTrialScore": -2,
            "oppTrialScore": 2,
            "playerTotalScore": -2,
            "oppTotalScore": 2,
            "waitTime": 6152.567010284174,
            "responseTime": 1682102295582,
            "catchQuestion": "How many <b class=\"r\">red<\/b> marbles did your opponent report drawing? ",
            "catchKey": -1,
            "catchResponse": -1,
            "catchTime": 1682102231886,
            "trialTime": 0
        },
        {
            "exptPart": "trial",
            "trialNumber": 2,
            "roleCurrent": "receiver",
            "marblesSampled": 100,
            "probRed": 0.5,
            "practiceLambda": 5,
            "trialLambda": 0.3,
            "instructedLambda": "dishonest_small",
            "sd": 8.1,
            "drawnRed": 47,
            "reportedRed": 50,
            "inferredRed": 46,
            "playerTrialScore": -1,
            "oppTrialScore": 0,
            "playerTotalScore": -3,
            "oppTotalScore": 2,
            "waitTime": 5831.3688677062855,
            "responseTime": 1682102312266,
            "catchQuestion": "How many <b class=\"r\">red<\/b> marbles did your opponent report drawing? ",
            "catchKey": -1,
            "catchResponse": -1,
            "catchTime": 1682102231886,
            "trialTime": 0
        },
        {
            "exptPart": "trial",
            "trialNumber": 3,
            "roleCurrent": "receiver",
            "marblesSampled": 100,
            "probRed": 0.5,
            "practiceLambda": 5,
            "trialLambda": 0.3,
            "instructedLambda": "dishonest_small",
            "sd": 8.1,
            "drawnRed": 60,
            "reportedRed": 73,
            "inferredRed": 62,
            "playerTrialScore": -2,
            "oppTrialScore": 2,
            "playerTotalScore": -5,
            "oppTotalScore": 4,
            "waitTime": 5807.173701623735,
            "responseTime": 1682102338734,
            "catchQuestion": "How many <b class=\"r\">red<\/b> marbles did your opponent report drawing? ",
            "catchKey": -1,
            "catchResponse": -1,
            "catchTime": 1682102231886,
            "trialTime": 0
        },
        {
            "exptPart": "trial",
            "trialNumber": 4,
            "roleCurrent": "receiver",
            "marblesSampled": 100,
            "probRed": 0.5,
            "practiceLambda": 5,
            "trialLambda": 0.3,
            "instructedLambda": "dishonest_small",
            "sd": 8.1,
            "drawnRed": 46,
            "reportedRed": 39,
            "inferredRed": 43,
            "playerTrialScore": -3,
            "oppTrialScore": 0,
            "playerTotalScore": -8,
            "oppTotalScore": 4,
            "waitTime": 6824.201585622783,
            "responseTime": 1682102355043,
            "catchQuestion": "How many <b class=\"r\">red<\/b> marbles did your opponent report drawing? ",
            "catchKey": -1,
            "catchResponse": -1,
            "catchTime": 1682102231886,
            "trialTime": 0
        },
        {
            "exptPart": "trial",
            "trialNumber": 5,
            "roleCurrent": "receiver",
            "marblesSampled": 100,
            "probRed": 0.5,
            "practiceLambda": 5,
            "trialLambda": 0.3,
            "instructedLambda": "dishonest_small",
            "sd": 8.1,
            "drawnRed": 13,
            "reportedRed": 25,
            "inferredRed": 40,
            "playerTrialScore": -27,
            "oppTrialScore": 27,
            "playerTotalScore": -35,
            "oppTotalScore": 31,
            "waitTime": 5232.74420272463,
            "responseTime": 1682102371073,
            "catchQuestion": "How many <b class=\"r\">red<\/b> marbles did your opponent report drawing? ",
            "catchKey": -1,
            "catchResponse": -1,
            "catchTime": 1682102231886,
            "trialTime": 0
        },
        {
            "exptPart": "trial",
            "trialNumber": 6,
            "roleCurrent": "receiver",
            "marblesSampled": 100,
            "probRed": 0.5,
            "practiceLambda": 5,
            "trialLambda": 0.3,
            "instructedLambda": "dishonest_small",
            "sd": 8.1,
            "drawnRed": 77,
            "reportedRed": 79,
            "inferredRed": 65,
            "playerTrialScore": -12,
            "oppTrialScore": 0,
            "playerTotalScore": -47,
            "oppTotalScore": 31,
            "waitTime": 5405.858061886945,
            "responseTime": 1682102388366,
            "catchQuestion": "How many <b class=\"r\">red<\/b> marbles did your opponent report drawing? ",
            "catchKey": -1,
            "catchResponse": -1,
            "catchTime": 1682102231886,
            "trialTime": 0
        },
        {
            "exptPart": "trial",
            "trialNumber": 7,
            "roleCurrent": "receiver",
            "marblesSampled": 100,
            "probRed": 0.5,
            "practiceLambda": 5,
            "trialLambda": 0.3,
            "instructedLambda": "dishonest_small",
            "sd": 8.1,
            "drawnRed": 36,
            "reportedRed": 35,
            "inferredRed": 45,
            "playerTrialScore": -9,
            "oppTrialScore": 9,
            "playerTotalScore": -56,
            "oppTotalScore": 40,
            "waitTime": 5256.833534131542,
            "responseTime": 1682102398466,
            "catchQuestion": "How many <b class=\"r\">red<\/b> marbles did your opponent report drawing? ",
            "catchKey": -1,
            "catchResponse": -1,
            "catchTime": 1682102231886,
            "trialTime": 0
        },
        {
            "exptPart": "trial",
            "trialNumber": 8,
            "roleCurrent": "receiver",
            "marblesSampled": 100,
            "probRed": 0.5,
            "practiceLambda": 5,
            "trialLambda": 0.3,
            "instructedLambda": "dishonest_small",
            "sd": 8.1,
            "drawnRed": 75,
            "reportedRed": 77,
            "inferredRed": 58,
            "playerTrialScore": -17,
            "oppTrialScore": 0,
            "playerTotalScore": -73,
            "oppTotalScore": 40,
            "waitTime": 7484.62415115164,
            "responseTime": 1682102412771,
            "catchQuestion": "How many <b class=\"r\">red<\/b> marbles did your opponent report drawing? ",
            "catchKey": -1,
            "catchResponse": -1,
            "catchTime": 1682102231886,
            "trialTime": 0
        },
        {
            "exptPart": "trial",
            "trialNumber": 9,
            "roleCurrent": "receiver",
            "marblesSampled": 100,
            "probRed": 0.5,
            "practiceLambda": 5,
            "trialLambda": 0.3,
            "instructedLambda": "dishonest_small",
            "sd": 8.1,
            "drawnRed": 36,
            "reportedRed": 38,
            "inferredRed": 40,
            "playerTrialScore": -4,
            "oppTrialScore": 4,
            "playerTotalScore": -77,
            "oppTotalScore": 44,
            "waitTime": 5629.442080041801,
            "responseTime": 1682102423760,
            "catchQuestion": "How many <b class=\"r\">red<\/b> marbles did your opponent report drawing? ",
            "catchKey": -1,
            "catchResponse": -1,
            "catchTime": 1682102231886,
            "trialTime": 0
        },
        {
            "exptPart": "trial",
            "trialNumber": 10,
            "roleCurrent": "receiver",
            "marblesSampled": 100,
            "probRed": 0.5,
            "practiceLambda": 5,
            "trialLambda": 0.3,
            "instructedLambda": "dishonest_small",
            "sd": 8.1,
            "drawnRed": 53,
            "reportedRed": 51,
            "inferredRed": 50,
            "playerTrialScore": -3,
            "oppTrialScore": 0,
            "playerTotalScore": -80,
            "oppTotalScore": 44,
            "waitTime": 6123.524398109201,
            "responseTime": 1682102450344,
            "catchQuestion": "How many <b class=\"r\">red<\/b> marbles did your opponent report drawing? ",
            "catchKey": -1,
            "catchResponse": -1,
            "catchTime": 1682102450344,
            "trialTime": 0
        },
        {
            "exptPart": "trial",
            "trialNumber": 11,
            "roleCurrent": "receiver",
            "marblesSampled": 100,
            "probRed": 0.5,
            "practiceLambda": 5,
            "trialLambda": 0.3,
            "instructedLambda": "dishonest_small",
            "sd": 8.1,
            "drawnRed": 49,
            "reportedRed": 41,
            "inferredRed": 45,
            "playerTrialScore": -4,
            "oppTrialScore": 0,
            "playerTotalScore": -84,
            "oppTotalScore": 44,
            "waitTime": 7176.8375112644935,
            "responseTime": 1682102503457,
            "catchQuestion": "How many <b class=\"r\">red<\/b> marbles did your opponent report drawing? ",
            "catchKey": -1,
            "catchResponse": -1,
            "catchTime": 1682102450344,
            "trialTime": 0
        },
        {
            "exptPart": "trial",
            "trialNumber": 12,
            "roleCurrent": "receiver",
            "marblesSampled": 100,
            "probRed": 0.5,
            "practiceLambda": 5,
            "trialLambda": 0.3,
            "instructedLambda": "dishonest_small",
            "sd": 8.1,
            "drawnRed": 53,
            "reportedRed": 53,
            "inferredRed": 45,
            "playerTrialScore": -8,
            "oppTrialScore": 0,
            "playerTotalScore": -92,
            "oppTotalScore": 44,
            "waitTime": 6006.243220973443,
            "responseTime": 1682102520207,
            "catchQuestion": "How many <b class=\"r\">red<\/b> marbles did your opponent report drawing? ",
            "catchKey": -1,
            "catchResponse": -1,
            "catchTime": 1682102450344,
            "trialTime": 0
        },
        {
            "exptPart": "trial",
            "trialNumber": 13,
            "roleCurrent": "receiver",
            "marblesSampled": 100,
            "probRed": 0.5,
            "practiceLambda": 5,
            "trialLambda": 0.3,
            "instructedLambda": "dishonest_small",
            "sd": 8.1,
            "drawnRed": 54,
            "reportedRed": 61,
            "inferredRed": 56,
            "playerTrialScore": -2,
            "oppTrialScore": 2,
            "playerTotalScore": -94,
            "oppTotalScore": 46,
            "waitTime": 6502.706579408168,
            "responseTime": 1682102546662,
            "catchQuestion": "How many <b class=\"r\">red<\/b> marbles did your opponent report drawing? ",
            "catchKey": -1,
            "catchResponse": -1,
            "catchTime": 1682102450344,
            "trialTime": 0
        },
        {
            "exptPart": "trial",
            "trialNumber": 14,
            "roleCurrent": "receiver",
            "marblesSampled": 100,
            "probRed": 0.5,
            "practiceLambda": 5,
            "trialLambda": 0.3,
            "instructedLambda": "dishonest_small",
            "sd": 8.1,
            "drawnRed": 52,
            "reportedRed": 54,
            "inferredRed": 54,
            "playerTrialScore": -2,
            "oppTrialScore": 2,
            "playerTotalScore": -96,
            "oppTotalScore": 48,
            "waitTime": 6587.241141241428,
            "responseTime": 1682102559908,
            "catchQuestion": "How many <b class=\"r\">red<\/b> marbles did your opponent report drawing? ",
            "catchKey": -1,
            "catchResponse": -1,
            "catchTime": 1682102450344,
            "trialTime": 0
        },
        {
            "exptPart": "trial",
            "trialNumber": 15,
            "roleCurrent": "receiver",
            "marblesSampled": 100,
            "probRed": 0.5,
            "practiceLambda": 5,
            "trialLambda": 0.3,
            "instructedLambda": "dishonest_small",
            "sd": 8.1,
            "drawnRed": 47,
            "reportedRed": 51,
            "inferredRed": 50,
            "playerTrialScore": -3,
            "oppTrialScore": 3,
            "playerTotalScore": -99,
            "oppTotalScore": 51,
            "waitTime": 6856.021646924888,
            "responseTime": 1682102595435,
            "catchQuestion": "How many <b class=\"r\">red<\/b> marbles did your opponent report drawing? ",
            "catchKey": -1,
            "catchResponse": -1,
            "catchTime": 1682102450344,
            "trialTime": 0
        },
        {
            "exptPart": "trial",
            "trialNumber": 16,
            "roleCurrent": "receiver",
            "marblesSampled": 100,
            "probRed": 0.5,
            "practiceLambda": 5,
            "trialLambda": 0.3,
            "instructedLambda": "dishonest_small",
            "sd": 8.1,
            "drawnRed": 41,
            "reportedRed": 45,
            "inferredRed": 50,
            "playerTrialScore": -9,
            "oppTrialScore": 9,
            "playerTotalScore": -108,
            "oppTotalScore": 60,
            "waitTime": 5359.369609897756,
            "responseTime": 1682102609712,
            "catchQuestion": "How many <b class=\"r\">red<\/b> marbles did your opponent report drawing? ",
            "catchKey": -1,
            "catchResponse": -1,
            "catchTime": 1682102450344,
            "trialTime": 0
        },
        {
            "exptPart": "trial",
            "trialNumber": 17,
            "roleCurrent": "receiver",
            "marblesSampled": 100,
            "probRed": 0.5,
            "practiceLambda": 5,
            "trialLambda": 0.3,
            "instructedLambda": "dishonest_small",
            "sd": 8.1,
            "drawnRed": 62,
            "reportedRed": 61,
            "inferredRed": 55,
            "playerTrialScore": -7,
            "oppTrialScore": 0,
            "playerTotalScore": -115,
            "oppTotalScore": 60,
            "waitTime": 6196.529013239921,
            "responseTime": 1682102623308,
            "catchQuestion": "How many <b class=\"r\">red<\/b> marbles did your opponent report drawing? ",
            "catchKey": -1,
            "catchResponse": -1,
            "catchTime": 1682102450344,
            "trialTime": 0
        },
        {
            "exptPart": "trial",
            "trialNumber": 18,
            "roleCurrent": "receiver",
            "marblesSampled": 100,
            "probRed": 0.5,
            "practiceLambda": 5,
            "trialLambda": 0.3,
            "instructedLambda": "dishonest_small",
            "sd": 8.1,
            "drawnRed": 62,
            "reportedRed": 63,
            "inferredRed": 67,
            "playerTrialScore": -5,
            "oppTrialScore": 5,
            "playerTotalScore": -120,
            "oppTotalScore": 65,
            "waitTime": 6637.085614197471,
            "responseTime": 1682102641202,
            "catchQuestion": "How many <b class=\"r\">red<\/b> marbles did your opponent report drawing? ",
            "catchKey": -1,
            "catchResponse": -1,
            "catchTime": 1682102450344,
            "trialTime": 0
        },
        {
            "exptPart": "trial",
            "trialNumber": 19,
            "roleCurrent": "receiver",
            "marblesSampled": 100,
            "probRed": 0.5,
            "practiceLambda": 5,
            "trialLambda": 0.3,
            "instructedLambda": "dishonest_small",
            "sd": 8.1,
            "drawnRed": 61,
            "reportedRed": 59,
            "inferredRed": 53,
            "playerTrialScore": -8,
            "oppTrialScore": 0,
            "playerTotalScore": -128,
            "oppTotalScore": 65,
            "waitTime": 7171.506888554665,
            "responseTime": 1682102660132,
            "catchQuestion": "How many <b class=\"r\">red<\/b> marbles did your opponent report drawing? ",
            "catchKey": -1,
            "catchResponse": -1,
            "catchTime": 1682102450344,
            "trialTime": 0
        },
        {
            "exptPart": "trial",
            "trialNumber": 20,
            "roleCurrent": "receiver",
            "marblesSampled": 100,
            "probRed": 0.5,
            "practiceLambda": 5,
            "trialLambda": 0.3,
            "instructedLambda": "dishonest_small",
            "sd": 8.1,
            "drawnRed": 70,
            "reportedRed": 82,
            "inferredRed": 64,
            "playerTrialScore": -6,
            "oppTrialScore": 0,
            "playerTotalScore": -134,
            "oppTotalScore": 65,
            "waitTime": 5220.6938443377485,
            "responseTime": 1682102670645,
            "catchQuestion": "How many <b class=\"r\">red<\/b> marbles did your opponent report drawing? ",
            "catchKey": -1,
            "catchResponse": -1,
            "catchTime": 1682102670645,
            "trialTime": 0
        },
        {
            "exptPart": "trial",
            "trialNumber": 21,
            "roleCurrent": "receiver",
            "marblesSampled": 100,
            "probRed": 0.5,
            "practiceLambda": 5,
            "trialLambda": 0.3,
            "instructedLambda": "dishonest_small",
            "sd": 8.1,
            "drawnRed": 42,
            "reportedRed": 49,
            "inferredRed": 46,
            "playerTrialScore": -4,
            "oppTrialScore": 4,
            "playerTotalScore": -138,
            "oppTotalScore": 69,
            "waitTime": 6607.837509490115,
            "responseTime": 1682102740825,
            "catchQuestion": "How many <b class=\"r\">red<\/b> marbles did your opponent report drawing? ",
            "catchKey": -1,
            "catchResponse": -1,
            "catchTime": 1682102670645,
            "trialTime": 0
        },
        {
            "exptPart": "trial",
            "trialNumber": 22,
            "roleCurrent": "receiver",
            "marblesSampled": 100,
            "probRed": 0.5,
            "practiceLambda": 5,
            "trialLambda": 0.3,
            "instructedLambda": "dishonest_small",
            "sd": 8.1,
            "drawnRed": 55,
            "reportedRed": 65,
            "inferredRed": 60,
            "playerTrialScore": -5,
            "oppTrialScore": 5,
            "playerTotalScore": -143,
            "oppTotalScore": 74,
            "waitTime": 5135.670550544419,
            "responseTime": 1682102752651,
            "catchQuestion": "How many <b class=\"r\">red<\/b> marbles did your opponent report drawing? ",
            "catchKey": -1,
            "catchResponse": -1,
            "catchTime": 1682102670645,
            "trialTime": 0
        },
        {
            "exptPart": "trial",
            "trialNumber": 23,
            "roleCurrent": "receiver",
            "marblesSampled": 100,
            "probRed": 0.5,
            "practiceLambda": 5,
            "trialLambda": 0.3,
            "instructedLambda": "dishonest_small",
            "sd": 8.1,
            "drawnRed": 39,
            "reportedRed": 54,
            "inferredRed": 46,
            "playerTrialScore": -7,
            "oppTrialScore": 7,
            "playerTotalScore": -150,
            "oppTotalScore": 81,
            "waitTime": 5946.557360109255,
            "responseTime": 1682102780121,
            "catchQuestion": "How many <b class=\"r\">red<\/b> marbles did your opponent report drawing? ",
            "catchKey": 54,
            "catchResponse": 49,
            "catchTime": 1682102780122,
            "trialTime": 0
        },
        {
            "exptPart": "trial",
            "trialNumber": 24,
            "roleCurrent": "receiver",
            "marblesSampled": 100,
            "probRed": 0.5,
            "practiceLambda": 5,
            "trialLambda": 0.3,
            "instructedLambda": "dishonest_small",
            "sd": 8.1,
            "drawnRed": 67,
            "reportedRed": 73,
            "inferredRed": 67,
            "playerTrialScore": 0,
            "oppTrialScore": 0,
            "playerTotalScore": -150,
            "oppTotalScore": 81,
            "waitTime": 5416.71391088173,
            "responseTime": 1682102829254,
            "catchQuestion": "How many <b class=\"r\">red<\/b> marbles did your opponent report drawing? ",
            "catchKey": 73,
            "catchResponse": 73,
            "catchTime": 1682102829254,
            "trialTime": 0
        },
        {
            "exptPart": "trial",
            "trialNumber": 25,
            "roleCurrent": "receiver",
            "marblesSampled": 100,
            "probRed": 0.5,
            "practiceLambda": 5,
            "trialLambda": 0.3,
            "instructedLambda": "dishonest_small",
            "sd": 8.1,
            "drawnRed": 48,
            "reportedRed": 43,
            "inferredRed": 39,
            "playerTrialScore": -9,
            "oppTrialScore": 0,
            "playerTotalScore": -159,
            "oppTotalScore": 81,
            "waitTime": 5821.988045386353,
            "responseTime": 1682102856846,
            "catchQuestion": "How many <b class=\"r\">red<\/b> marbles did your opponent report drawing? ",
            "catchKey": 43,
            "catchResponse": 43,
            "catchTime": 1682102856846,
            "trialTime": 0
        },
        {
            "exptPart": "trial",
            "trialNumber": 26,
            "roleCurrent": "receiver",
            "marblesSampled": 100,
            "probRed": 0.5,
            "practiceLambda": 5,
            "trialLambda": 0.3,
            "instructedLambda": "dishonest_small",
            "sd": 8.1,
            "drawnRed": 68,
            "reportedRed": 78,
            "inferredRed": 66,
            "playerTrialScore": -2,
            "oppTrialScore": 0,
            "playerTotalScore": -161,
            "oppTotalScore": 81,
            "waitTime": 5823.3031011364255,
            "responseTime": 1682102880749,
            "catchQuestion": "How many <b class=\"r\">red<\/b> marbles did your opponent report drawing? ",
            "catchKey": -1,
            "catchResponse": -1,
            "catchTime": 1682102856846,
            "trialTime": 0
        },
        {
            "exptPart": "trial",
            "trialNumber": 27,
            "roleCurrent": "receiver",
            "marblesSampled": 100,
            "probRed": 0.5,
            "practiceLambda": 5,
            "trialLambda": 0.3,
            "instructedLambda": "dishonest_small",
            "sd": 8.1,
            "drawnRed": 40,
            "reportedRed": 39,
            "inferredRed": 43,
            "playerTrialScore": -3,
            "oppTrialScore": 3,
            "playerTotalScore": -164,
            "oppTotalScore": 84,
            "waitTime": 5446.1066242754005,
            "responseTime": 1682103420913,
            "catchQuestion": "How many <b class=\"r\">red<\/b> marbles did your opponent report drawing? ",
            "catchKey": -1,
            "catchResponse": -1,
            "catchTime": 1682102856846,
            "trialTime": 0
        },
        {
            "exptPart": "trial",
            "trialNumber": 28,
            "roleCurrent": "receiver",
            "marblesSampled": 100,
            "probRed": 0.5,
            "practiceLambda": 5,
            "trialLambda": 0.3,
            "instructedLambda": "dishonest_small",
            "sd": 8.1,
            "drawnRed": 46,
            "reportedRed": 37,
            "inferredRed": 41,
            "playerTrialScore": -5,
            "oppTrialScore": 0,
            "playerTotalScore": -169,
            "oppTotalScore": 84,
            "waitTime": 6432.196409482722,
            "responseTime": 1682103433781,
            "catchQuestion": "How many <b class=\"r\">red<\/b> marbles did your opponent report drawing? ",
            "catchKey": -1,
            "catchResponse": -1,
            "catchTime": 1682102856846,
            "trialTime": 0
        },
        {
            "exptPart": "trial",
            "trialNumber": 29,
            "roleCurrent": "receiver",
            "marblesSampled": 100,
            "probRed": 0.5,
            "practiceLambda": 5,
            "trialLambda": 0.3,
            "instructedLambda": "dishonest_small",
            "sd": 8.1,
            "drawnRed": 45,
            "reportedRed": 45,
            "inferredRed": 43,
            "playerTrialScore": -2,
            "oppTrialScore": 0,
            "playerTotalScore": -171,
            "oppTotalScore": 84,
            "waitTime": 5984.469664590628,
            "responseTime": 1682103455096,
            "catchQuestion": "How many <b class=\"r\">red<\/b> marbles did your opponent report drawing? ",
            "catchKey": -1,
            "catchResponse": -1,
            "catchTime": 1682102856846,
            "trialTime": 0
        },
        {
            "exptPart": "trial",
            "trialNumber": 30,
            "roleCurrent": "receiver",
            "marblesSampled": 100,
            "probRed": 0.5,
            "practiceLambda": 5,
            "trialLambda": 0.3,
            "instructedLambda": "dishonest_small",
            "sd": 8.1,
            "drawnRed": 31,
            "reportedRed": 29,
            "inferredRed": 35,
            "playerTrialScore": -4,
            "oppTrialScore": 4,
            "playerTotalScore": -175,
            "oppTotalScore": 88,
            "waitTime": 6594.389108105523,
            "responseTime": 1682103466186,
            "catchQuestion": "How many <b class=\"r\">red<\/b> marbles did your opponent report drawing? ",
            "catchKey": -1,
            "catchResponse": -1,
            "catchTime": 1682103466186,
            "trialTime": 0
        },
        {
            "exptPart": "trial",
            "trialNumber": 31,
            "roleCurrent": "receiver",
            "marblesSampled": 100,
            "probRed": 0.5,
            "practiceLambda": 5,
            "trialLambda": 0.3,
            "instructedLambda": "dishonest_small",
            "sd": 8.1,
            "drawnRed": 77,
            "reportedRed": 78,
            "inferredRed": 25,
            "playerTrialScore": -52,
            "oppTrialScore": 0,
            "playerTotalScore": -227,
            "oppTotalScore": 88,
            "waitTime": 6942.863673984266,
            "responseTime": 1682103497780,
            "catchQuestion": "How many <b class=\"r\">red<\/b> marbles did your opponent report drawing? ",
            "catchKey": -1,
            "catchResponse": -1,
            "catchTime": 1682103466186,
            "trialTime": 0
        },
        {
            "exptPart": "trial",
            "trialNumber": 32,
            "roleCurrent": "receiver",
            "marblesSampled": 100,
            "probRed": 0.5,
            "practiceLambda": 5,
            "trialLambda": 0.3,
            "instructedLambda": "dishonest_small",
            "sd": 8.1,
            "drawnRed": 47,
            "reportedRed": 43,
            "inferredRed": 30,
            "playerTrialScore": -17,
            "oppTrialScore": 0,
            "playerTotalScore": -244,
            "oppTotalScore": 88,
            "waitTime": 5499.960321058541,
            "responseTime": 1682103531281,
            "catchQuestion": "How many <b class=\"r\">red<\/b> marbles did your opponent report drawing? ",
            "catchKey": -1,
            "catchResponse": -1,
            "catchTime": 1682103466186,
            "trialTime": 0
        },
        {
            "exptPart": "trial",
            "trialNumber": 33,
            "roleCurrent": "receiver",
            "marblesSampled": 100,
            "probRed": 0.5,
            "practiceLambda": 5,
            "trialLambda": 0.3,
            "instructedLambda": "dishonest_small",
            "sd": 8.1,
            "drawnRed": 30,
            "reportedRed": 31,
            "inferredRed": 22,
            "playerTrialScore": -8,
            "oppTrialScore": 0,
            "playerTotalScore": -252,
            "oppTotalScore": 88,
            "waitTime": 5352.200538491237,
            "responseTime": 1682103562841,
            "catchQuestion": "How many <b class=\"r\">red<\/b> marbles did your opponent report drawing? ",
            "catchKey": -1,
            "catchResponse": -1,
            "catchTime": 1682103466186,
            "trialTime": 0
        },
        {
            "exptPart": "trial",
            "trialNumber": 34,
            "roleCurrent": "receiver",
            "marblesSampled": 100,
            "probRed": 0.5,
            "practiceLambda": 5,
            "trialLambda": 0.3,
            "instructedLambda": "dishonest_small",
            "sd": 8.1,
            "drawnRed": 40,
            "reportedRed": 58,
            "inferredRed": 20,
            "playerTrialScore": -20,
            "oppTrialScore": 0,
            "playerTotalScore": -272,
            "oppTotalScore": 88,
            "waitTime": 6455.95067862315,
            "responseTime": 1682103579630,
            "catchQuestion": "How many <b class=\"r\">red<\/b> marbles did your opponent report drawing? ",
            "catchKey": -1,
            "catchResponse": -1,
            "catchTime": 1682103466186,
            "trialTime": 0
        },
        {
            "exptPart": "trial",
            "trialNumber": 35,
            "roleCurrent": "receiver",
            "marblesSampled": 100,
            "probRed": 0.5,
            "practiceLambda": 5,
            "trialLambda": 0.3,
            "instructedLambda": "dishonest_small",
            "sd": 8.1,
            "drawnRed": 78,
            "reportedRed": 86,
            "inferredRed": 40,
            "playerTrialScore": -38,
            "oppTrialScore": 0,
            "playerTotalScore": -310,
            "oppTotalScore": 88,
            "waitTime": 6793.584539676186,
            "responseTime": 1682103641064,
            "catchQuestion": "How many <b class=\"r\">red<\/b> marbles did your opponent report drawing? ",
            "catchKey": -1,
            "catchResponse": -1,
            "catchTime": 1682103466186,
            "trialTime": 0
        },
        {
            "exptPart": "trial",
            "trialNumber": 36,
            "roleCurrent": "receiver",
            "marblesSampled": 100,
            "probRed": 0.5,
            "practiceLambda": 5,
            "trialLambda": 0.3,
            "instructedLambda": "dishonest_small",
            "sd": 8.1,
            "drawnRed": 82,
            "reportedRed": 86,
            "inferredRed": 36,
            "playerTrialScore": -46,
            "oppTrialScore": 0,
            "playerTotalScore": -356,
            "oppTotalScore": 88,
            "waitTime": 7139.283264543858,
            "responseTime": 1682103654640,
            "catchQuestion": "How many <b class=\"r\">red<\/b> marbles did your opponent report drawing? ",
            "catchKey": -1,
            "catchResponse": -1,
            "catchTime": 1682103466186,
            "trialTime": 0
        },
        {
            "exptPart": "trial",
            "trialNumber": 37,
            "roleCurrent": "receiver",
            "marblesSampled": 100,
            "probRed": 0.5,
            "practiceLambda": 5,
            "trialLambda": 0.3,
            "instructedLambda": "dishonest_small",
            "sd": 8.1,
            "drawnRed": 63,
            "reportedRed": 72,
            "inferredRed": 22,
            "playerTrialScore": -41,
            "oppTrialScore": 0,
            "playerTotalScore": -397,
            "oppTotalScore": 88,
            "waitTime": 6436.816191028861,
            "responseTime": 1682103690421,
            "catchQuestion": "How many <b class=\"r\">red<\/b> marbles did your opponent report drawing? ",
            "catchKey": -1,
            "catchResponse": -1,
            "catchTime": 1682103466186,
            "trialTime": 0
        },
        {
            "exptPart": "trial",
            "trialNumber": 38,
            "roleCurrent": "receiver",
            "marblesSampled": 100,
            "probRed": 0.5,
            "practiceLambda": 5,
            "trialLambda": 0.3,
            "instructedLambda": "dishonest_small",
            "sd": 8.1,
            "drawnRed": 67,
            "reportedRed": 75,
            "inferredRed": 15,
            "playerTrialScore": -52,
            "oppTrialScore": 0,
            "playerTotalScore": -449,
            "oppTotalScore": 88,
            "waitTime": 6876.603786531438,
            "responseTime": 1682103702330,
            "catchQuestion": "How many <b class=\"r\">red<\/b> marbles did your opponent report drawing? ",
            "catchKey": -1,
            "catchResponse": -1,
            "catchTime": 1682103466186,
            "trialTime": 0
        },
        {
            "exptPart": "trial",
            "trialNumber": 39,
            "roleCurrent": "receiver",
            "marblesSampled": 100,
            "probRed": 0.5,
            "practiceLambda": 5,
            "trialLambda": 0.3,
            "instructedLambda": "dishonest_small",
            "sd": 8.1,
            "drawnRed": 31,
            "reportedRed": 30,
            "inferredRed": 15,
            "playerTrialScore": -16,
            "oppTrialScore": 0,
            "playerTotalScore": -465,
            "oppTotalScore": 88,
            "waitTime": 6224.485887473611,
            "responseTime": 1682103716096,
            "catchQuestion": "How many <b class=\"r\">red<\/b> marbles did your opponent report drawing? ",
            "catchKey": -1,
            "catchResponse": -1,
            "catchTime": 1682103466186,
            "trialTime": 0
        },
        {
            "exptPart": "trial",
            "trialNumber": 40,
            "roleCurrent": "receiver",
            "marblesSampled": 100,
            "probRed": 0.5,
            "practiceLambda": 5,
            "trialLambda": 0.3,
            "instructedLambda": "dishonest_small",
            "sd": 8.1,
            "drawnRed": 38,
            "reportedRed": 40,
            "inferredRed": 2,
            "playerTrialScore": -36,
            "oppTrialScore": 0,
            "playerTotalScore": -501,
            "oppTotalScore": 88,
            "waitTime": 5750.1595597874075,
            "responseTime": 1682103727218,
            "catchQuestion": "How many <b class=\"r\">red<\/b> marbles did your opponent report drawing? ",
            "catchKey": -1,
            "catchResponse": -1,
            "catchTime": 1682103727219,
            "trialTime": 0
        },
        {
            "exptPart": "trial",
            "trialNumber": 41,
            "roleCurrent": "receiver",
            "marblesSampled": 100,
            "probRed": 0.5,
            "practiceLambda": 5,
            "trialLambda": 0.3,
            "instructedLambda": "dishonest_small",
            "sd": 8.1,
            "drawnRed": 46,
            "reportedRed": 56,
            "inferredRed": 56,
            "playerTrialScore": -10,
            "oppTrialScore": 10,
            "playerTotalScore": -511,
            "oppTotalScore": 98,
            "waitTime": 7139.006283547028,
            "responseTime": 1682103754275,
            "catchQuestion": "How many <b class=\"r\">red<\/b> marbles did your opponent report drawing? ",
            "catchKey": -1,
            "catchResponse": -1,
            "catchTime": 1682103727219,
            "trialTime": 0
        },
        {
            "exptPart": "trial",
            "trialNumber": 42,
            "roleCurrent": "receiver",
            "marblesSampled": 100,
            "probRed": 0.5,
            "practiceLambda": 5,
            "trialLambda": 0.3,
            "instructedLambda": "dishonest_small",
            "sd": 8.1,
            "drawnRed": 78,
            "reportedRed": 90,
            "inferredRed": 80,
            "playerTrialScore": -2,
            "oppTrialScore": 2,
            "playerTotalScore": -513,
            "oppTotalScore": 100,
            "waitTime": 5394.511683355649,
            "responseTime": 1682103765017,
            "catchQuestion": "How many <b class=\"r\">red<\/b> marbles did your opponent report drawing? ",
            "catchKey": -1,
            "catchResponse": -1,
            "catchTime": 1682103727219,
            "trialTime": 0
        },
        {
            "exptPart": "trial",
            "trialNumber": 43,
            "roleCurrent": "receiver",
            "marblesSampled": 100,
            "probRed": 0.5,
            "practiceLambda": 5,
            "trialLambda": 0.3,
            "instructedLambda": "dishonest_small",
            "sd": 8.1,
            "drawnRed": 56,
            "reportedRed": 59,
            "inferredRed": 55,
            "playerTrialScore": -1,
            "oppTrialScore": 0,
            "playerTotalScore": -514,
            "oppTotalScore": 100,
            "waitTime": 6962.348466955291,
            "responseTime": 1682103796195,
            "catchQuestion": "How many <b class=\"r\">red<\/b> marbles did your opponent report drawing? ",
            "catchKey": -1,
            "catchResponse": -1,
            "catchTime": 1682103727219,
            "trialTime": 0
        },
        {
            "exptPart": "trial",
            "trialNumber": 44,
            "roleCurrent": "receiver",
            "marblesSampled": 100,
            "probRed": 0.5,
            "practiceLambda": 5,
            "trialLambda": 0.3,
            "instructedLambda": "dishonest_small",
            "sd": 8.1,
            "drawnRed": 56,
            "reportedRed": 43,
            "inferredRed": 36,
            "playerTrialScore": -20,
            "oppTrialScore": 0,
            "playerTotalScore": -534,
            "oppTotalScore": 100,
            "waitTime": 7424.528184633781,
            "responseTime": 1682103812512,
            "catchQuestion": "How many <b class=\"r\">red<\/b> marbles did your opponent report drawing? ",
            "catchKey": -1,
            "catchResponse": -1,
            "catchTime": 1682103727219,
            "trialTime": 0
        },
        {
            "exptPart": "trial",
            "trialNumber": 45,
            "roleCurrent": "receiver",
            "marblesSampled": 100,
            "probRed": 0.5,
            "practiceLambda": 5,
            "trialLambda": 0.3,
            "instructedLambda": "dishonest_small",
            "sd": 8.1,
            "drawnRed": 24,
            "reportedRed": 29,
            "inferredRed": 18,
            "playerTrialScore": -6,
            "oppTrialScore": 0,
            "playerTotalScore": -540,
            "oppTotalScore": 100,
            "waitTime": 6858.510039798064,
            "responseTime": 1682103827521,
            "catchQuestion": "How many <b class=\"r\">red<\/b> marbles did your opponent report drawing? ",
            "catchKey": 29,
            "catchResponse": 28,
            "catchTime": 1682103827521,
            "trialTime": 0
        },
        {
            "exptPart": "trial",
            "trialNumber": 46,
            "roleCurrent": "receiver",
            "marblesSampled": 100,
            "probRed": 0.5,
            "practiceLambda": 5,
            "trialLambda": 0.3,
            "instructedLambda": "dishonest_small",
            "sd": 8.1,
            "drawnRed": 20,
            "reportedRed": 27,
            "inferredRed": 26,
            "playerTrialScore": -6,
            "oppTrialScore": 6,
            "playerTotalScore": -546,
            "oppTotalScore": 106,
            "waitTime": 6105.204678395,
            "responseTime": 1682103868781,
            "catchQuestion": "How many <b class=\"r\">red<\/b> marbles did your opponent report drawing? ",
            "catchKey": 27,
            "catchResponse": 27,
            "catchTime": 1682103868781,
            "trialTime": 0
        },
        {
            "exptPart": "trial",
            "trialNumber": 47,
            "roleCurrent": "receiver",
            "marblesSampled": 100,
            "probRed": 0.5,
            "practiceLambda": 5,
            "trialLambda": 0.3,
            "instructedLambda": "dishonest_small",
            "sd": 8.1,
            "drawnRed": 45,
            "reportedRed": 47,
            "inferredRed": 50,
            "playerTrialScore": -5,
            "oppTrialScore": 5,
            "playerTotalScore": -551,
            "oppTotalScore": 111,
            "waitTime": 5780.705950039839,
            "responseTime": 1682103894846,
            "catchQuestion": "How many <b class=\"r\">red<\/b> marbles did your opponent report drawing? ",
            "catchKey": -1,
            "catchResponse": -1,
            "catchTime": 1682103868781,
            "trialTime": 0
        },
        {
            "exptPart": "trial",
            "trialNumber": 48,
            "roleCurrent": "receiver",
            "marblesSampled": 100,
            "probRed": 0.5,
            "practiceLambda": 5,
            "trialLambda": 0.3,
            "instructedLambda": "dishonest_small",
            "sd": 8.1,
            "drawnRed": 52,
            "reportedRed": 65,
            "inferredRed": 50,
            "playerTrialScore": -2,
            "oppTrialScore": 0,
            "playerTotalScore": -553,
            "oppTotalScore": 111,
            "waitTime": 5514.111370252124,
            "responseTime": 1682103904747,
            "catchQuestion": "How many <b class=\"r\">red<\/b> marbles did your opponent report drawing? ",
            "catchKey": -1,
            "catchResponse": -1,
            "catchTime": 1682103868781,
            "trialTime": 0
        },
        {
            "exptPart": "trial",
            "trialNumber": 49,
            "roleCurrent": "receiver",
            "marblesSampled": 100,
            "probRed": 0.5,
            "practiceLambda": 5,
            "trialLambda": 0.3,
            "instructedLambda": "dishonest_small",
            "sd": 8.1,
            "drawnRed": 68,
            "reportedRed": 62,
            "inferredRed": 50,
            "playerTrialScore": -18,
            "oppTrialScore": 0,
            "playerTotalScore": -571,
            "oppTotalScore": 111,
            "waitTime": 6928.603576926767,
            "responseTime": 1682103914095,
            "catchQuestion": "How many <b class=\"r\">red<\/b> marbles did your opponent report drawing? ",
            "catchKey": -1,
            "catchResponse": -1,
            "catchTime": 1682103868781,
            "trialTime": 0
        },
        {
            "exptPart": "trial",
            "trialNumber": 50,
            "roleCurrent": "receiver",
            "marblesSampled": 100,
            "probRed": 0.5,
            "practiceLambda": 5,
            "trialLambda": 0.3,
            "instructedLambda": "dishonest_small",
            "sd": 8.1,
            "drawnRed": 71,
            "reportedRed": 73,
            "inferredRed": 60,
            "playerTrialScore": -11,
            "oppTrialScore": 0,
            "playerTotalScore": -582,
            "oppTotalScore": 111,
            "waitTime": 6237.3603890414615,
            "responseTime": 1682103923712,
            "catchQuestion": "How many <b class=\"r\">red<\/b> marbles did your opponent report drawing? ",
            "catchKey": -1,
            "catchResponse": -1,
            "catchTime": 1682103923712,
            "trialTime": 0
        },
        {
            "exptPart": "trial",
            "trialNumber": 51,
            "roleCurrent": "receiver",
            "marblesSampled": 100,
            "probRed": 0.5,
            "practiceLambda": 5,
            "trialLambda": 0.3,
            "instructedLambda": "dishonest_small",
            "sd": 8.1,
            "drawnRed": 35,
            "reportedRed": 31,
            "inferredRed": 32,
            "playerTrialScore": -3,
            "oppTrialScore": 0,
            "playerTotalScore": -585,
            "oppTotalScore": 111,
            "waitTime": 5784.153490289613,
            "responseTime": 1682103939000,
            "catchQuestion": "How many <b class=\"r\">red<\/b> marbles did your opponent report drawing? ",
            "catchKey": 31,
            "catchResponse": 31,
            "catchTime": 1682103939000,
            "trialTime": 0
        },
        {
            "exptPart": "trial",
            "trialNumber": 52,
            "roleCurrent": "receiver",
            "marblesSampled": 100,
            "probRed": 0.5,
            "practiceLambda": 5,
            "trialLambda": 0.3,
            "instructedLambda": "dishonest_small",
            "sd": 8.1,
            "drawnRed": 45,
            "reportedRed": 55,
            "inferredRed": 50,
            "playerTrialScore": -5,
            "oppTrialScore": 5,
            "playerTotalScore": -590,
            "oppTotalScore": 116,
            "waitTime": 6958.156665275057,
            "responseTime": 1682103987316,
            "catchQuestion": "How many <b class=\"r\">red<\/b> marbles did your opponent report drawing? ",
            "catchKey": 55,
            "catchResponse": 50,
            "catchTime": 1682103987317,
            "trialTime": 0
        },
        {
            "exptPart": "trial",
            "trialNumber": 53,
            "roleCurrent": "receiver",
            "marblesSampled": 100,
            "probRed": 0.5,
            "practiceLambda": 5,
            "trialLambda": 0.3,
            "instructedLambda": "dishonest_small",
            "sd": 8.1,
            "drawnRed": 74,
            "reportedRed": 58,
            "inferredRed": 50,
            "playerTrialScore": -24,
            "oppTrialScore": 0,
            "playerTotalScore": -614,
            "oppTotalScore": 116,
            "waitTime": 6717.900632250667,
            "responseTime": 1682104008819,
            "catchQuestion": "How many <b class=\"r\">red<\/b> marbles did your opponent report drawing? ",
            "catchKey": -1,
            "catchResponse": -1,
            "catchTime": 1682103987317,
            "trialTime": 0
        },
        {
            "exptPart": "trial",
            "trialNumber": 54,
            "roleCurrent": "receiver",
            "marblesSampled": 100,
            "probRed": 0.5,
            "practiceLambda": 5,
            "trialLambda": 0.3,
            "instructedLambda": "dishonest_small",
            "sd": 8.1,
            "drawnRed": 82,
            "reportedRed": 87,
            "inferredRed": 70,
            "playerTrialScore": -12,
            "oppTrialScore": 0,
            "playerTotalScore": -626,
            "oppTotalScore": 116,
            "waitTime": 5169.146395712545,
            "responseTime": 1682104017995,
            "catchQuestion": "How many <b class=\"r\">red<\/b> marbles did your opponent report drawing? ",
            "catchKey": -1,
            "catchResponse": -1,
            "catchTime": 1682103987317,
            "trialTime": 0
        },
        {
            "exptPart": "trial",
            "trialNumber": 55,
            "roleCurrent": "receiver",
            "marblesSampled": 100,
            "probRed": 0.5,
            "practiceLambda": 5,
            "trialLambda": 0.3,
            "instructedLambda": "dishonest_small",
            "sd": 8.1,
            "drawnRed": 17,
            "reportedRed": 18,
            "inferredRed": 30,
            "playerTrialScore": -13,
            "oppTrialScore": 13,
            "playerTotalScore": -639,
            "oppTotalScore": 129,
            "waitTime": 6290.0472909848595,
            "responseTime": 1682104051652,
            "catchQuestion": "How many <b class=\"r\">red<\/b> marbles did your opponent report drawing? ",
            "catchKey": -1,
            "catchResponse": -1,
            "catchTime": 1682103987317,
            "trialTime": 0
        },
        {
            "exptPart": "trial",
            "trialNumber": 56,
            "roleCurrent": "receiver",
            "marblesSampled": 100,
            "probRed": 0.5,
            "practiceLambda": 5,
            "trialLambda": 0.3,
            "instructedLambda": "dishonest_small",
            "sd": 8.1,
            "drawnRed": 42,
            "reportedRed": 37,
            "inferredRed": 28,
            "playerTrialScore": -14,
            "oppTrialScore": 0,
            "playerTotalScore": -653,
            "oppTotalScore": 129,
            "waitTime": 6591.592062203115,
            "responseTime": 1682104063262,
            "catchQuestion": "How many <b class=\"r\">red<\/b> marbles did your opponent report drawing? ",
            "catchKey": -1,
            "catchResponse": -1,
            "catchTime": 1682103987317,
            "trialTime": 0
        },
        {
            "exptPart": "trial",
            "trialNumber": 57,
            "roleCurrent": "receiver",
            "marblesSampled": 100,
            "probRed": 0.5,
            "practiceLambda": 5,
            "trialLambda": 0.3,
            "instructedLambda": "dishonest_small",
            "sd": 8.1,
            "drawnRed": 13,
            "reportedRed": 19,
            "inferredRed": 26,
            "playerTrialScore": -13,
            "oppTrialScore": 13,
            "playerTotalScore": -666,
            "oppTotalScore": 142,
            "waitTime": 5139.226576511637,
            "responseTime": 1682104074376,
            "catchQuestion": "How many <b class=\"r\">red<\/b> marbles did your opponent report drawing? ",
            "catchKey": 19,
            "catchResponse": 19,
            "catchTime": 1682104074376,
            "trialTime": 0
        },
        {
            "exptPart": "trial",
            "trialNumber": 58,
            "roleCurrent": "receiver",
            "marblesSampled": 100,
            "probRed": 0.5,
            "practiceLambda": 5,
            "trialLambda": 0.3,
            "instructedLambda": "dishonest_small",
            "sd": 8.1,
            "drawnRed": 65,
            "reportedRed": 57,
            "inferredRed": 48,
            "playerTrialScore": -17,
            "oppTrialScore": 0,
            "playerTotalScore": -683,
            "oppTotalScore": 142,
            "waitTime": 5209.206540433396,
            "responseTime": 1682104089418,
            "catchQuestion": "How many <b class=\"r\">red<\/b> marbles did your opponent report drawing? ",
            "catchKey": 57,
            "catchResponse": 57,
            "catchTime": 1682104089418,
            "trialTime": 0
        },
        {
            "exptPart": "trial",
            "trialNumber": 59,
            "roleCurrent": "receiver",
            "marblesSampled": 100,
            "probRed": 0.5,
            "practiceLambda": 5,
            "trialLambda": 0.3,
            "instructedLambda": "dishonest_small",
            "sd": 8.1,
            "drawnRed": 70,
            "reportedRed": 70,
            "inferredRed": 60,
            "playerTrialScore": -10,
            "oppTrialScore": 0,
            "playerTotalScore": -693,
            "oppTotalScore": 142,
            "waitTime": 5652.402898246426,
            "responseTime": 1682104104050,
            "catchQuestion": "How many <b class=\"r\">red<\/b> marbles did your opponent report drawing? ",
            "catchKey": -1,
            "catchResponse": -1,
            "catchTime": 1682104089418,
            "trialTime": 0
        },
        {
            "exptPart": "trial",
            "trialNumber": 60,
            "roleCurrent": "receiver",
            "marblesSampled": 100,
            "probRed": 0.5,
            "practiceLambda": 5,
            "trialLambda": 0.3,
            "instructedLambda": "dishonest_small",
            "sd": 8.1,
            "drawnRed": 15,
            "reportedRed": 9,
            "inferredRed": 40,
            "playerTrialScore": -25,
            "oppTrialScore": 25,
            "playerTotalScore": -718,
            "oppTotalScore": 167,
            "waitTime": 7201.894410466879,
            "responseTime": 1682104115847,
            "catchQuestion": "How many <b class=\"r\">red<\/b> marbles did your opponent report drawing? ",
            "catchKey": -1,
            "catchResponse": -1,
            "catchTime": 1682104115848,
            "trialTime": 0
        },
        {
            "exptPart": "trial",
            "trialNumber": 61,
            "roleCurrent": "receiver",
            "marblesSampled": 100,
            "probRed": 0.5,
            "practiceLambda": 5,
            "trialLambda": 0.3,
            "instructedLambda": "dishonest_small",
            "sd": 8.1,
            "drawnRed": 88,
            "reportedRed": 67,
            "inferredRed": 40,
            "playerTrialScore": -48,
            "oppTrialScore": 0,
            "playerTotalScore": -766,
            "oppTotalScore": 167,
            "waitTime": 6185.357317768163,
            "responseTime": 1682104135580,
            "catchQuestion": "How many <b class=\"r\">red<\/b> marbles did your opponent report drawing? ",
            "catchKey": -1,
            "catchResponse": -1,
            "catchTime": 1682104115848,
            "trialTime": 0
        },
        {
            "exptPart": "trial",
            "trialNumber": 62,
            "roleCurrent": "receiver",
            "marblesSampled": 100,
            "probRed": 0.5,
            "practiceLambda": 5,
            "trialLambda": 0.3,
            "instructedLambda": "dishonest_small",
            "sd": 8.1,
            "drawnRed": 74,
            "reportedRed": 94,
            "inferredRed": 60,
            "playerTrialScore": -14,
            "oppTrialScore": 0,
            "playerTotalScore": -780,
            "oppTotalScore": 167,
            "waitTime": 7181.391290605686,
            "responseTime": 1682104149041,
            "catchQuestion": "How many <b class=\"r\">red<\/b> marbles did your opponent report drawing? ",
            "catchKey": -1,
            "catchResponse": -1,
            "catchTime": 1682104115848,
            "trialTime": 0
        },
        {
            "exptPart": "trial",
            "trialNumber": 63,
            "roleCurrent": "receiver",
            "marblesSampled": 100,
            "probRed": 0.5,
            "practiceLambda": 5,
            "trialLambda": 0.3,
            "instructedLambda": "dishonest_small",
            "sd": 8.1,
            "drawnRed": 57,
            "reportedRed": 58,
            "inferredRed": 60,
            "playerTrialScore": -3,
            "oppTrialScore": 3,
            "playerTotalScore": -783,
            "oppTotalScore": 170,
            "waitTime": 5741.651639831863,
            "responseTime": 1682104161695,
            "catchQuestion": "How many <b class=\"r\">red<\/b> marbles did your opponent report drawing? ",
            "catchKey": -1,
            "catchResponse": -1,
            "catchTime": 1682104115848,
            "trialTime": 0
        },
        {
            "exptPart": "trial",
            "trialNumber": 64,
            "roleCurrent": "receiver",
            "marblesSampled": 100,
            "probRed": 0.5,
            "practiceLambda": 5,
            "trialLambda": 0.3,
            "instructedLambda": "dishonest_small",
            "sd": 8.1,
            "drawnRed": 58,
            "reportedRed": 47,
            "inferredRed": 30,
            "playerTrialScore": -28,
            "oppTrialScore": 0,
            "playerTotalScore": -811,
            "oppTotalScore": 170,
            "waitTime": 6136.370408404111,
            "responseTime": 1682104171028,
            "catchQuestion": "How many <b class=\"r\">red<\/b> marbles did your opponent report drawing? ",
            "catchKey": -1,
            "catchResponse": -1,
            "catchTime": 1682104115848,
            "trialTime": 0
        },
        {
            "exptPart": "trial",
            "trialNumber": 65,
            "roleCurrent": "receiver",
            "marblesSampled": 100,
            "probRed": 0.5,
            "practiceLambda": 5,
            "trialLambda": 0.3,
            "instructedLambda": "dishonest_small",
            "sd": 8.1,
            "drawnRed": 61,
            "reportedRed": 70,
            "inferredRed": 60,
            "playerTrialScore": -1,
            "oppTrialScore": 0,
            "playerTotalScore": -812,
            "oppTotalScore": 170,
            "waitTime": 6673.9742462065915,
            "responseTime": 1682104182178,
            "catchQuestion": "How many <b class=\"r\">red<\/b> marbles did your opponent report drawing? ",
            "catchKey": -1,
            "catchResponse": -1,
            "catchTime": 1682104115848,
            "trialTime": 0
        },
        {
            "exptPart": "trial",
            "trialNumber": 66,
            "roleCurrent": "receiver",
            "marblesSampled": 100,
            "probRed": 0.5,
            "practiceLambda": 5,
            "trialLambda": 0.3,
            "instructedLambda": "dishonest_small",
            "sd": 8.1,
            "drawnRed": 75,
            "reportedRed": 77,
            "inferredRed": 64,
            "playerTrialScore": -11,
            "oppTrialScore": 0,
            "playerTotalScore": -823,
            "oppTotalScore": 170,
            "waitTime": 6605.67554182254,
            "responseTime": 1682104193211,
            "catchQuestion": "How many <b class=\"r\">red<\/b> marbles did your opponent report drawing? ",
            "catchKey": -1,
            "catchResponse": -1,
            "catchTime": 1682104115848,
            "trialTime": 0
        },
        {
            "exptPart": "trial",
            "trialNumber": 67,
            "roleCurrent": "receiver",
            "marblesSampled": 100,
            "probRed": 0.5,
            "practiceLambda": 5,
            "trialLambda": 0.3,
            "instructedLambda": "dishonest_small",
            "sd": 8.1,
            "drawnRed": 7,
            "reportedRed": 6,
            "inferredRed": 30,
            "playerTrialScore": -23,
            "oppTrialScore": 23,
            "playerTotalScore": -846,
            "oppTotalScore": 193,
            "waitTime": 5408.781803413871,
            "responseTime": 1682104202273,
            "catchQuestion": "How many <b class=\"r\">red<\/b> marbles did your opponent report drawing? ",
            "catchKey": -1,
            "catchResponse": -1,
            "catchTime": 1682104115848,
            "trialTime": 0
        },
        {
            "exptPart": "trial",
            "trialNumber": 68,
            "roleCurrent": "receiver",
            "marblesSampled": 100,
            "probRed": 0.5,
            "practiceLambda": 5,
            "trialLambda": 0.3,
            "instructedLambda": "dishonest_small",
            "sd": 8.1,
            "drawnRed": 36,
            "reportedRed": 27,
            "inferredRed": 45,
            "playerTrialScore": -9,
            "oppTrialScore": 9,
            "playerTotalScore": -855,
            "oppTotalScore": 202,
            "waitTime": 5209.796642342295,
            "responseTime": 1682104214982,
            "catchQuestion": "How many <b class=\"r\">red<\/b> marbles did your opponent report drawing? ",
            "catchKey": -1,
            "catchResponse": -1,
            "catchTime": 1682104115848,
            "trialTime": 0
        },
        {
            "exptPart": "trial",
            "trialNumber": 69,
            "roleCurrent": "receiver",
            "marblesSampled": 100,
            "probRed": 0.5,
            "practiceLambda": 5,
            "trialLambda": 0.3,
            "instructedLambda": "dishonest_small",
            "sd": 8.1,
            "drawnRed": 66,
            "reportedRed": 58,
            "inferredRed": 53,
            "playerTrialScore": -13,
            "oppTrialScore": 0,
            "playerTotalScore": -868,
            "oppTotalScore": 202,
            "waitTime": 5892.155664043643,
            "responseTime": 1682104225649,
            "catchQuestion": "How many <b class=\"r\">red<\/b> marbles did your opponent report drawing? ",
            "catchKey": -1,
            "catchResponse": -1,
            "catchTime": 1682104115848,
            "trialTime": 0
        },
        {
            "exptPart": "trial",
            "trialNumber": 70,
            "roleCurrent": "receiver",
            "marblesSampled": 100,
            "probRed": 0.5,
            "practiceLambda": 5,
            "trialLambda": 0.3,
            "instructedLambda": "dishonest_small",
            "sd": 8.1,
            "drawnRed": 61,
            "reportedRed": 50,
            "inferredRed": 50,
            "playerTrialScore": -11,
            "oppTrialScore": 0,
            "playerTotalScore": -879,
            "oppTotalScore": 202,
            "waitTime": 7240.484675935738,
            "responseTime": 1682104236114,
            "catchQuestion": "How many <b class=\"r\">red<\/b> marbles did your opponent report drawing? ",
            "catchKey": -1,
            "catchResponse": -1,
            "catchTime": 1682104236115,
            "trialTime": 0
        },
        {
            "exptPart": "trial",
            "trialNumber": 71,
            "roleCurrent": "receiver",
            "marblesSampled": 100,
            "probRed": 0.5,
            "practiceLambda": 5,
            "trialLambda": 0.3,
            "instructedLambda": "dishonest_small",
            "sd": 8.1,
            "drawnRed": 66,
            "reportedRed": 62,
            "inferredRed": 53,
            "playerTrialScore": -13,
            "oppTrialScore": 0,
            "playerTotalScore": -892,
            "oppTotalScore": 202,
            "waitTime": 5985.642269077755,
            "responseTime": 1682104275753,
            "catchQuestion": "How many <b class=\"r\">red<\/b> marbles did your opponent report drawing? ",
            "catchKey": -1,
            "catchResponse": -1,
            "catchTime": 1682104236115,
            "trialTime": 0
        },
        {
            "exptPart": "trial",
            "trialNumber": 72,
            "roleCurrent": "receiver",
            "marblesSampled": 100,
            "probRed": 0.5,
            "practiceLambda": 5,
            "trialLambda": 0.3,
            "instructedLambda": "dishonest_small",
            "sd": 8.1,
            "drawnRed": 23,
            "reportedRed": 24,
            "inferredRed": 40,
            "playerTrialScore": -17,
            "oppTrialScore": 17,
            "playerTotalScore": -909,
            "oppTotalScore": 219,
            "waitTime": 5297.901460855612,
            "responseTime": 1682104285413,
            "catchQuestion": "How many <b class=\"r\">red<\/b> marbles did your opponent report drawing? ",
            "catchKey": -1,
            "catchResponse": -1,
            "catchTime": 1682104236115,
            "trialTime": 0
        },
        {
            "exptPart": "trial",
            "trialNumber": 73,
            "roleCurrent": "receiver",
            "marblesSampled": 100,
            "probRed": 0.5,
            "practiceLambda": 5,
            "trialLambda": 0.3,
            "instructedLambda": "dishonest_small",
            "sd": 8.1,
            "drawnRed": 66,
            "reportedRed": 73,
            "inferredRed": 57,
            "playerTrialScore": -9,
            "oppTrialScore": 0,
            "playerTotalScore": -918,
            "oppTotalScore": 219,
            "waitTime": 5540.928674869429,
            "responseTime": 1682104295328,
            "catchQuestion": "How many <b class=\"r\">red<\/b> marbles did your opponent report drawing? ",
            "catchKey": -1,
            "catchResponse": -1,
            "catchTime": 1682104236115,
            "trialTime": 0
        },
        {
            "exptPart": "trial",
            "trialNumber": 74,
            "roleCurrent": "receiver",
            "marblesSampled": 100,
            "probRed": 0.5,
            "practiceLambda": 5,
            "trialLambda": 0.3,
            "instructedLambda": "dishonest_small",
            "sd": 8.1,
            "drawnRed": 54,
            "reportedRed": 43,
            "inferredRed": 52,
            "playerTrialScore": -2,
            "oppTrialScore": 0,
            "playerTotalScore": -920,
            "oppTotalScore": 219,
            "waitTime": 5966.410088091556,
            "responseTime": 1682104316663,
            "catchQuestion": "How many <b class=\"r\">red<\/b> marbles did your opponent report drawing? ",
            "catchKey": -1,
            "catchResponse": -1,
            "catchTime": 1682104236115,
            "trialTime": 0
        },
        {
            "exptPart": "trial",
            "trialNumber": 75,
            "roleCurrent": "receiver",
            "marblesSampled": 100,
            "probRed": 0.5,
            "practiceLambda": 5,
            "trialLambda": 0.3,
            "instructedLambda": "dishonest_small",
            "sd": 8.1,
            "drawnRed": 49,
            "reportedRed": 61,
            "inferredRed": 54,
            "playerTrialScore": -5,
            "oppTrialScore": 5,
            "playerTotalScore": -925,
            "oppTotalScore": 224,
            "waitTime": 5262.557514251602,
            "responseTime": 1682104332815,
            "catchQuestion": "How many <b class=\"r\">red<\/b> marbles did your opponent report drawing? ",
            "catchKey": -1,
            "catchResponse": -1,
            "catchTime": 1682104236115,
            "trialTime": 0
        },
        {
            "exptPart": "trial",
            "trialNumber": 76,
            "roleCurrent": "receiver",
            "marblesSampled": 100,
            "probRed": 0.5,
            "practiceLambda": 5,
            "trialLambda": 0.3,
            "instructedLambda": "dishonest_small",
            "sd": 8.1,
            "drawnRed": 40,
            "reportedRed": 42,
            "inferredRed": 46,
            "playerTrialScore": -6,
            "oppTrialScore": 6,
            "playerTotalScore": -931,
            "oppTotalScore": 230,
            "waitTime": 5667.929517280103,
            "responseTime": 1682104349740,
            "catchQuestion": "How many <b class=\"r\">red<\/b> marbles did your opponent report drawing? ",
            "catchKey": -1,
            "catchResponse": -1,
            "catchTime": 1682104236115,
            "trialTime": 0
        },
        {
            "exptPart": "trial",
            "trialNumber": 77,
            "roleCurrent": "receiver",
            "marblesSampled": 100,
            "probRed": 0.5,
            "practiceLambda": 5,
            "trialLambda": 0.3,
            "instructedLambda": "dishonest_small",
            "sd": 8.1,
            "drawnRed": 25,
            "reportedRed": 34,
            "inferredRed": 47,
            "playerTrialScore": -22,
            "oppTrialScore": 22,
            "playerTotalScore": -953,
            "oppTotalScore": 252,
            "waitTime": 5189.271898383709,
            "responseTime": 1682104362649,
            "catchQuestion": "How many <b class=\"r\">red<\/b> marbles did your opponent report drawing? ",
            "catchKey": -1,
            "catchResponse": -1,
            "catchTime": 1682104236115,
            "trialTime": 0
        },
        {
            "exptPart": "trial",
            "trialNumber": 78,
            "roleCurrent": "receiver",
            "marblesSampled": 100,
            "probRed": 0.5,
            "practiceLambda": 5,
            "trialLambda": 0.3,
            "instructedLambda": "dishonest_small",
            "sd": 8.1,
            "drawnRed": 17,
            "reportedRed": 20,
            "inferredRed": 35,
            "playerTrialScore": -18,
            "oppTrialScore": 18,
            "playerTotalScore": -971,
            "oppTotalScore": 270,
            "waitTime": 7327.5538966733175,
            "responseTime": 1682104376202,
            "catchQuestion": "How many <b class=\"r\">red<\/b> marbles did your opponent report drawing? ",
            "catchKey": -1,
            "catchResponse": -1,
            "catchTime": 1682104236115,
            "trialTime": 0
        },
        {
            "exptPart": "trial",
            "trialNumber": 79,
            "roleCurrent": "receiver",
            "marblesSampled": 100,
            "probRed": 0.5,
            "practiceLambda": 5,
            "trialLambda": 0.3,
            "instructedLambda": "dishonest_small",
            "sd": 8.1,
            "drawnRed": 49,
            "reportedRed": 44,
            "inferredRed": 54,
            "playerTrialScore": -5,
            "oppTrialScore": 5,
            "playerTotalScore": -976,
            "oppTotalScore": 275,
            "waitTime": 7410.939098186682,
            "responseTime": 1682104416390,
            "catchQuestion": "How many <b class=\"r\">red<\/b> marbles did your opponent report drawing? ",
            "catchKey": -1,
            "catchResponse": -1,
            "catchTime": 1682104236115,
            "trialTime": 0
        },
        {
            "exptPart": "trial",
            "trialNumber": 80,
            "roleCurrent": "receiver",
            "marblesSampled": 100,
            "probRed": 0.5,
            "practiceLambda": 5,
            "trialLambda": 0.3,
            "instructedLambda": "dishonest_small",
            "sd": 8.1,
            "drawnRed": 63,
            "reportedRed": 61,
            "inferredRed": 49,
            "playerTrialScore": -14,
            "oppTrialScore": 0,
            "playerTotalScore": -990,
            "oppTotalScore": 275,
            "waitTime": 5620.873648874195,
            "responseTime": 1682104428739,
            "catchQuestion": "How many <b class=\"r\">red<\/b> marbles did your opponent report drawing? ",
            "catchKey": -1,
            "catchResponse": -1,
            "catchTime": 1682104428739,
            "trialTime": 0
        },
        {
            "exptPart": "trial",
            "trialNumber": 81,
            "roleCurrent": "receiver",
            "marblesSampled": 100,
            "probRed": 0.5,
            "practiceLambda": 5,
            "trialLambda": 0.3,
            "instructedLambda": "dishonest_small",
            "sd": 8.1,
            "drawnRed": 11,
            "reportedRed": 13,
            "inferredRed": 35,
            "playerTrialScore": -24,
            "oppTrialScore": 24,
            "playerTotalScore": -1014,
            "oppTotalScore": 299,
            "waitTime": 6093.2517346445475,
            "responseTime": 1682104444378,
            "catchQuestion": "How many <b class=\"r\">red<\/b> marbles did your opponent report drawing? ",
            "catchKey": -1,
            "catchResponse": -1,
            "catchTime": 1682104428739,
            "trialTime": 0
        },
        {
            "exptPart": "trial",
            "trialNumber": 82,
            "roleCurrent": "receiver",
            "marblesSampled": 100,
            "probRed": 0.5,
            "practiceLambda": 5,
            "trialLambda": 0.3,
            "instructedLambda": "dishonest_small",
            "sd": 8.1,
            "drawnRed": 24,
            "reportedRed": 15,
            "inferredRed": 20,
            "playerTrialScore": -4,
            "oppTrialScore": 0,
            "playerTotalScore": -1018,
            "oppTotalScore": 299,
            "waitTime": 6977.609335517896,
            "responseTime": 1682104454920,
            "catchQuestion": "How many <b class=\"r\">red<\/b> marbles did your opponent report drawing? ",
            "catchKey": -1,
            "catchResponse": -1,
            "catchTime": 1682104428739,
            "trialTime": 0
        },
        {
            "exptPart": "trial",
            "trialNumber": 83,
            "roleCurrent": "receiver",
            "marblesSampled": 100,
            "probRed": 0.5,
            "practiceLambda": 5,
            "trialLambda": 0.3,
            "instructedLambda": "dishonest_small",
            "sd": 8.1,
            "drawnRed": 83,
            "reportedRed": 92,
            "inferredRed": 70,
            "playerTrialScore": -13,
            "oppTrialScore": 0,
            "playerTotalScore": -1031,
            "oppTotalScore": 299,
            "waitTime": 6355.310814824669,
            "responseTime": 1682104465010,
            "catchQuestion": "How many <b class=\"r\">red<\/b> marbles did your opponent report drawing? ",
            "catchKey": -1,
            "catchResponse": -1,
            "catchTime": 1682104428739,
            "trialTime": 0
        },
        {
            "exptPart": "trial",
            "trialNumber": 84,
            "roleCurrent": "receiver",
            "marblesSampled": 100,
            "probRed": 0.5,
            "practiceLambda": 5,
            "trialLambda": 0.3,
            "instructedLambda": "dishonest_small",
            "sd": 8.1,
            "drawnRed": 51,
            "reportedRed": 52,
            "inferredRed": 40,
            "playerTrialScore": -11,
            "oppTrialScore": 0,
            "playerTotalScore": -1042,
            "oppTotalScore": 299,
            "waitTime": 5600.853306185674,
            "responseTime": 1682104481847,
            "catchQuestion": "How many <b class=\"r\">red<\/b> marbles did your opponent report drawing? ",
            "catchKey": -1,
            "catchResponse": -1,
            "catchTime": 1682104428739,
            "trialTime": 0
        },
        {
            "exptPart": "trial",
            "trialNumber": 85,
            "roleCurrent": "receiver",
            "marblesSampled": 100,
            "probRed": 0.5,
            "practiceLambda": 5,
            "trialLambda": 0.3,
            "instructedLambda": "dishonest_small",
            "sd": 8.1,
            "drawnRed": 58,
            "reportedRed": 61,
            "inferredRed": 53,
            "playerTrialScore": -5,
            "oppTrialScore": 0,
            "playerTotalScore": -1047,
            "oppTotalScore": 299,
            "waitTime": 6533.0448819858575,
            "responseTime": 1682104496651,
            "catchQuestion": "How many <b class=\"r\">red<\/b> marbles did your opponent report drawing? ",
            "catchKey": -1,
            "catchResponse": -1,
            "catchTime": 1682104428739,
            "trialTime": 0
        },
        {
            "exptPart": "trial",
            "trialNumber": 86,
            "roleCurrent": "receiver",
            "marblesSampled": 100,
            "probRed": 0.5,
            "practiceLambda": 5,
            "trialLambda": 0.3,
            "instructedLambda": "dishonest_small",
            "sd": 8.1,
            "drawnRed": 66,
            "reportedRed": 69,
            "inferredRed": 69,
            "playerTrialScore": -3,
            "oppTrialScore": 3,
            "playerTotalScore": -1050,
            "oppTotalScore": 302,
            "waitTime": 6248.789648254834,
            "responseTime": 1682104517989,
            "catchQuestion": "How many <b class=\"r\">red<\/b> marbles did your opponent report drawing? ",
            "catchKey": -1,
            "catchResponse": -1,
            "catchTime": 1682104428739,
            "trialTime": 0
        },
        {
            "exptPart": "trial",
            "trialNumber": 87,
            "roleCurrent": "receiver",
            "marblesSampled": 100,
            "probRed": 0.5,
            "practiceLambda": 5,
            "trialLambda": 0.3,
            "instructedLambda": "dishonest_small",
            "sd": 8.1,
            "drawnRed": 67,
            "reportedRed": 73,
            "inferredRed": 54,
            "playerTrialScore": -13,
            "oppTrialScore": 0,
            "playerTotalScore": -1063,
            "oppTotalScore": 302,
            "waitTime": 5955.32080978747,
            "responseTime": 1682104530160,
            "catchQuestion": "How many <b class=\"r\">red<\/b> marbles did your opponent report drawing? ",
            "catchKey": -1,
            "catchResponse": -1,
            "catchTime": 1682104428739,
            "trialTime": 0
        },
        {
            "exptPart": "trial",
            "trialNumber": 88,
            "roleCurrent": "receiver",
            "marblesSampled": 100,
            "probRed": 0.5,
            "practiceLambda": 5,
            "trialLambda": 0.3,
            "instructedLambda": "dishonest_small",
            "sd": 8.1,
            "drawnRed": 68,
            "reportedRed": 69,
            "inferredRed": 69,
            "playerTrialScore": -1,
            "oppTrialScore": 1,
            "playerTotalScore": -1064,
            "oppTotalScore": 303,
            "waitTime": 5994.181328784824,
            "responseTime": 1682104543199,
            "catchQuestion": "How many <b class=\"r\">red<\/b> marbles did your opponent report drawing? ",
            "catchKey": 69,
            "catchResponse": 69,
            "catchTime": 1682104543199,
            "trialTime": 0
        },
        {
            "exptPart": "trial",
            "trialNumber": 89,
            "roleCurrent": "receiver",
            "marblesSampled": 100,
            "probRed": 0.5,
            "practiceLambda": 5,
            "trialLambda": 0.3,
            "instructedLambda": "dishonest_small",
            "sd": 8.1,
            "drawnRed": 14,
            "reportedRed": 19,
            "inferredRed": 30,
            "playerTrialScore": -16,
            "oppTrialScore": 16,
            "playerTotalScore": -1080,
            "oppTotalScore": 319,
            "waitTime": 5324.085292820131,
            "responseTime": 1682104558093,
            "catchQuestion": "How many <b class=\"r\">red<\/b> marbles did your opponent report drawing? ",
            "catchKey": -1,
            "catchResponse": -1,
            "catchTime": 1682104543199,
            "trialTime": 0
        },
        {
            "exptPart": "trial",
            "trialNumber": 90,
            "roleCurrent": "receiver",
            "marblesSampled": 100,
            "probRed": 0.5,
            "practiceLambda": 5,
            "trialLambda": 0.3,
            "instructedLambda": "dishonest_small",
            "sd": 8.1,
            "drawnRed": 43,
            "reportedRed": 34,
            "inferredRed": 40,
            "playerTrialScore": -3,
            "oppTrialScore": 0,
            "playerTotalScore": -1083,
            "oppTotalScore": 319,
            "waitTime": 6407.4490814387555,
            "responseTime": 1682104567981,
            "catchQuestion": "How many <b class=\"r\">red<\/b> marbles did your opponent report drawing? ",
            "catchKey": -1,
            "catchResponse": -1,
            "catchTime": 1682104567981,
            "trialTime": 0
        },
        {
            "exptPart": "trial",
            "trialNumber": 91,
            "roleCurrent": "receiver",
            "marblesSampled": 100,
            "probRed": 0.5,
            "practiceLambda": 5,
            "trialLambda": 0.3,
            "instructedLambda": "dishonest_small",
            "sd": 8.1,
            "drawnRed": 50,
            "reportedRed": 42,
            "inferredRed": 45,
            "playerTrialScore": -5,
            "oppTrialScore": 0,
            "playerTotalScore": -1088,
            "oppTotalScore": 319,
            "waitTime": 5302.283199493777,
            "responseTime": 1682104579443,
            "catchQuestion": "How many <b class=\"r\">red<\/b> marbles did your opponent report drawing? ",
            "catchKey": -1,
            "catchResponse": -1,
            "catchTime": 1682104567981,
            "trialTime": 0
        },
        {
            "exptPart": "trial",
            "trialNumber": 92,
            "roleCurrent": "receiver",
            "marblesSampled": 100,
            "probRed": 0.5,
            "practiceLambda": 5,
            "trialLambda": 0.3,
            "instructedLambda": "dishonest_small",
            "sd": 8.1,
            "drawnRed": 48,
            "reportedRed": 38,
            "inferredRed": 60,
            "playerTrialScore": -12,
            "oppTrialScore": 12,
            "playerTotalScore": -1100,
            "oppTotalScore": 331,
            "waitTime": 5557.77733169057,
            "responseTime": 1682104589560,
            "catchQuestion": "How many <b class=\"r\">red<\/b> marbles did your opponent report drawing? ",
            "catchKey": -1,
            "catchResponse": -1,
            "catchTime": 1682104567981,
            "trialTime": 0
        },
        {
            "exptPart": "trial",
            "trialNumber": 93,
            "roleCurrent": "receiver",
            "marblesSampled": 100,
            "probRed": 0.5,
            "practiceLambda": 5,
            "trialLambda": 0.3,
            "instructedLambda": "dishonest_small",
            "sd": 8.1,
            "drawnRed": 24,
            "reportedRed": 24,
            "inferredRed": 36,
            "playerTrialScore": -12,
            "oppTrialScore": 12,
            "playerTotalScore": -1112,
            "oppTotalScore": 343,
            "waitTime": 5654.013809211556,
            "responseTime": 1682104600895,
            "catchQuestion": "How many <b class=\"r\">red<\/b> marbles did your opponent report drawing? ",
            "catchKey": -1,
            "catchResponse": -1,
            "catchTime": 1682104567981,
            "trialTime": 0
        },
        {
            "exptPart": "trial",
            "trialNumber": 94,
            "roleCurrent": "receiver",
            "marblesSampled": 100,
            "probRed": 0.5,
            "practiceLambda": 5,
            "trialLambda": 0.3,
            "instructedLambda": "dishonest_small",
            "sd": 8.1,
            "drawnRed": 20,
            "reportedRed": 41,
            "inferredRed": 42,
            "playerTrialScore": -22,
            "oppTrialScore": 22,
            "playerTotalScore": -1134,
            "oppTotalScore": 365,
            "waitTime": 7024.74348238852,
            "responseTime": 1682104611714,
            "catchQuestion": "How many <b class=\"r\">red<\/b> marbles did your opponent report drawing? ",
            "catchKey": -1,
            "catchResponse": -1,
            "catchTime": 1682104567981,
            "trialTime": 0
        },
        {
            "exptPart": "trial",
            "trialNumber": 95,
            "roleCurrent": "receiver",
            "marblesSampled": 100,
            "probRed": 0.5,
            "practiceLambda": 5,
            "trialLambda": 0.3,
            "instructedLambda": "dishonest_small",
            "sd": 8.1,
            "drawnRed": 60,
            "reportedRed": 65,
            "inferredRed": 54,
            "playerTrialScore": -6,
            "oppTrialScore": 0,
            "playerTotalScore": -1140,
            "oppTotalScore": 365,
            "waitTime": 5599.7209149742785,
            "responseTime": 1682104623130,
            "catchQuestion": "How many <b class=\"r\">red<\/b> marbles did your opponent report drawing? ",
            "catchKey": -1,
            "catchResponse": -1,
            "catchTime": 1682104567981,
            "trialTime": 0
        },
        {
            "exptPart": "trial",
            "trialNumber": 96,
            "roleCurrent": "receiver",
            "marblesSampled": 100,
            "probRed": 0.5,
            "practiceLambda": 5,
            "trialLambda": 0.3,
            "instructedLambda": "dishonest_small",
            "sd": 8.1,
            "drawnRed": 41,
            "reportedRed": 11,
            "inferredRed": 37,
            "playerTrialScore": -4,
            "oppTrialScore": 0,
            "playerTotalScore": -1144,
            "oppTotalScore": 365,
            "waitTime": 7077.195574434912,
            "responseTime": 1682104638138,
            "catchQuestion": "How many <b class=\"r\">red<\/b> marbles did your opponent report drawing? ",
            "catchKey": -1,
            "catchResponse": -1,
            "catchTime": 1682104567981,
            "trialTime": 0
        },
        {
            "exptPart": "trial",
            "trialNumber": 97,
            "roleCurrent": "receiver",
            "marblesSampled": 100,
            "probRed": 0.5,
            "practiceLambda": 5,
            "trialLambda": 0.3,
            "instructedLambda": "dishonest_small",
            "sd": 8.1,
            "drawnRed": 54,
            "reportedRed": 51,
            "inferredRed": 50,
            "playerTrialScore": -4,
            "oppTrialScore": 0,
            "playerTotalScore": -1148,
            "oppTotalScore": 365,
            "waitTime": 7103.61566838029,
            "responseTime": 1682104651181,
            "catchQuestion": "How many <b class=\"r\">red<\/b> marbles did your opponent report drawing? ",
            "catchKey": -1,
            "catchResponse": -1,
            "catchTime": 1682104567981,
            "trialTime": 0
        },
        {
            "exptPart": "trial",
            "trialNumber": 98,
            "roleCurrent": "receiver",
            "marblesSampled": 100,
            "probRed": 0.5,
            "practiceLambda": 5,
            "trialLambda": 0.3,
            "instructedLambda": "dishonest_small",
            "sd": 8.1,
            "drawnRed": 57,
            "reportedRed": 51,
            "inferredRed": 40,
            "playerTrialScore": -17,
            "oppTrialScore": 0,
            "playerTotalScore": -1165,
            "oppTotalScore": 365,
            "waitTime": 6264.5854311175335,
            "responseTime": 1682104661539,
            "catchQuestion": "How many <b class=\"r\">red<\/b> marbles did your opponent report drawing? ",
            "catchKey": -1,
            "catchResponse": -1,
            "catchTime": 1682104567981,
            "trialTime": 0
        },
        {
            "exptPart": "trial",
            "trialNumber": 99,
            "roleCurrent": "receiver",
            "marblesSampled": 100,
            "probRed": 0.5,
            "practiceLambda": 5,
            "trialLambda": 0.3,
            "instructedLambda": "dishonest_small",
            "sd": 8.1,
            "drawnRed": 59,
            "reportedRed": 58,
            "inferredRed": 52,
            "playerTrialScore": -7,
            "oppTrialScore": 0,
            "playerTotalScore": -1172,
            "oppTotalScore": 365,
            "waitTime": 6793.957642114138,
            "responseTime": 1682104675546,
            "catchQuestion": "How many <b class=\"r\">red<\/b> marbles did your opponent report drawing? ",
            "catchKey": -1,
            "catchResponse": -1,
            "catchTime": 1682104567981,
            "trialTime": 0
        },
        {
            "exptPart": "trial",
            "trialNumber": 100,
            "roleCurrent": "receiver",
            "marblesSampled": 100,
            "probRed": 0.5,
            "practiceLambda": 5,
            "trialLambda": 0.3,
            "instructedLambda": "dishonest_small",
            "sd": 8.1,
            "drawnRed": 83,
            "reportedRed": 79,
            "inferredRed": 67,
            "playerTrialScore": -16,
            "oppTrialScore": 0,
            "playerTotalScore": -1188,
            "oppTotalScore": 365,
            "waitTime": 6000.727279358431,
            "responseTime": 1682104685676,
            "catchQuestion": "How many <b class=\"r\">red<\/b> marbles did your opponent report drawing? ",
            "catchKey": -1,
            "catchResponse": -1,
            "catchTime": 1682104685676,
            "trialTime": 0
        }
    ]
}