{
    "client": {
        "type": "sona",
        "experiment_id": 2228,
        "credit_token": "b315147ae43241ea9c65086cb510cfb7",
        "survey_code": "47082",
        "sid": "sona-47082",
        "window": {
            "width": 585,
            "height": 713
        },
        "screen": {
            "width": 820,
            "height": 1180
        },
        "userAgent": "Mozilla\/5.0 (Macintosh; Intel Mac OS X 10_15_7) AppleWebKit\/605.1.15 (KHTML, like Gecko) Version\/16.3 Safari\/605.1.15",
        "score": 0,
        "bonus": 0
    },
    "expt": {
        "saveURL": "submit.simple.php",
        "trials": 100,
        "practiceTrials": 2,
        "marblesSampled": 100,
        "probRed": 0.5,
        "practiceLambdaAI": 5,
        "lambdaAI": 21.9,
        "sd": 8.1,
        "roles": [
            "sender",
            "receiver"
        ],
        "cost": "unif",
        "goal": "over",
        "oppDishonesty": "dishonest_big",
        "catchTrials": [
            99,
            35,
            9,
            39,
            4,
            64,
            25,
            10,
            14,
            20
        ],
        "scoreTotal": {
            "player": -1860,
            "opp": 1654
        },
        "sona": {
            "experiment_id": 2228,
            "credit_token": "b315147ae43241ea9c65086cb510cfb7"
        },
        "pilot": false,
        "debug": false
    },
    "trials": [
        {
            "exptPart": "practice",
            "trialNumber": 1,
            "roleCurrent": "sender",
            "marblesSampled": 100,
            "probRed": 0.5,
            "practiceLambda": 5,
            "trialLambda": 21.9,
            "instructedLambda": "dishonest_big",
            "sd": 8.1,
            "drawnRed": 77,
            "reportedRed": 75,
            "inferredRed": 61,
            "playerTrialScore": 0,
            "oppTrialScore": -16,
            "playerTotalScore": 0,
            "oppTotalScore": -16,
            "waitTime": 2119.2692263715358,
            "responseTime": 1682319962928,
            "catchQuestion": "How many <b class=\"r\">red<\/b> marbles did you actually draw (before any changes)? ",
            "catchKey": 77,
            "catchResponse": 75,
            "catchTime": 1682319962929,
            "trialTime": 0
        },
        {
            "exptPart": "practice",
            "trialNumber": 2,
            "roleCurrent": "receiver",
            "marblesSampled": 100,
            "probRed": 0.5,
            "practiceLambda": 5,
            "trialLambda": 21.9,
            "instructedLambda": "dishonest_big",
            "sd": 8.1,
            "drawnRed": 57,
            "reportedRed": 62,
            "inferredRed": 64,
            "playerTrialScore": -7,
            "oppTrialScore": 7,
            "playerTotalScore": -7,
            "oppTotalScore": -9,
            "waitTime": 5443.945263443841,
            "responseTime": 1682320011790,
            "catchQuestion": "How many <b class=\"r\">red<\/b> marbles did your opponent report drawing? ",
            "catchKey": 62,
            "catchResponse": 66,
            "catchTime": 1682320011790,
            "trialTime": 0
        },
        {
            "exptPart": "trial",
            "trialNumber": 1,
            "roleCurrent": "receiver",
            "marblesSampled": 100,
            "probRed": 0.5,
            "practiceLambda": 5,
            "trialLambda": 21.9,
            "instructedLambda": "dishonest_big",
            "sd": 8.1,
            "drawnRed": 67,
            "reportedRed": 84,
            "inferredRed": 86,
            "playerTrialScore": -19,
            "oppTrialScore": 19,
            "playerTotalScore": -19,
            "oppTotalScore": 19,
            "waitTime": 6181.8128774985635,
            "responseTime": 1682320044632,
            "catchQuestion": "How many <b class=\"r\">red<\/b> marbles did your opponent report drawing? ",
            "catchKey": -1,
            "catchResponse": -1,
            "catchTime": 1682320011790,
            "trialTime": 0
        },
        {
            "exptPart": "trial",
            "trialNumber": 2,
            "roleCurrent": "receiver",
            "marblesSampled": 100,
            "probRed": 0.5,
            "practiceLambda": 5,
            "trialLambda": 21.9,
            "instructedLambda": "dishonest_big",
            "sd": 8.1,
            "drawnRed": 51,
            "reportedRed": 68,
            "inferredRed": 65,
            "playerTrialScore": -14,
            "oppTrialScore": 14,
            "playerTotalScore": -33,
            "oppTotalScore": 33,
            "waitTime": 5205.912945422777,
            "responseTime": 1682320054504,
            "catchQuestion": "How many <b class=\"r\">red<\/b> marbles did your opponent report drawing? ",
            "catchKey": -1,
            "catchResponse": -1,
            "catchTime": 1682320011790,
            "trialTime": 0
        },
        {
            "exptPart": "trial",
            "trialNumber": 3,
            "roleCurrent": "receiver",
            "marblesSampled": 100,
            "probRed": 0.5,
            "practiceLambda": 5,
            "trialLambda": 21.9,
            "instructedLambda": "dishonest_big",
            "sd": 8.1,
            "drawnRed": 51,
            "reportedRed": 73,
            "inferredRed": 70,
            "playerTrialScore": -19,
            "oppTrialScore": 19,
            "playerTotalScore": -52,
            "oppTotalScore": 52,
            "waitTime": 7295.464245001435,
            "responseTime": 1682320065237,
            "catchQuestion": "How many <b class=\"r\">red<\/b> marbles did your opponent report drawing? ",
            "catchKey": -1,
            "catchResponse": -1,
            "catchTime": 1682320011790,
            "trialTime": 0
        },
        {
            "exptPart": "trial",
            "trialNumber": 4,
            "roleCurrent": "receiver",
            "marblesSampled": 100,
            "probRed": 0.5,
            "practiceLambda": 5,
            "trialLambda": 21.9,
            "instructedLambda": "dishonest_big",
            "sd": 8.1,
            "drawnRed": 24,
            "reportedRed": 47,
            "inferredRed": 43,
            "playerTrialScore": -19,
            "oppTrialScore": 19,
            "playerTotalScore": -71,
            "oppTotalScore": 71,
            "waitTime": 5855.8526339692235,
            "responseTime": 1682320074914,
            "catchQuestion": "How many <b class=\"r\">red<\/b> marbles did your opponent report drawing? ",
            "catchKey": -1,
            "catchResponse": -1,
            "catchTime": 1682320011790,
            "trialTime": 0
        },
        {
            "exptPart": "trial",
            "trialNumber": 5,
            "roleCurrent": "receiver",
            "marblesSampled": 100,
            "probRed": 0.5,
            "practiceLambda": 5,
            "trialLambda": 21.9,
            "instructedLambda": "dishonest_big",
            "sd": 8.1,
            "drawnRed": 21,
            "reportedRed": 66,
            "inferredRed": 63,
            "playerTrialScore": -42,
            "oppTrialScore": 42,
            "playerTotalScore": -113,
            "oppTotalScore": 113,
            "waitTime": 7447.911449242621,
            "responseTime": 1682320086041,
            "catchQuestion": "How many <b class=\"r\">red<\/b> marbles did your opponent report drawing? ",
            "catchKey": 66,
            "catchResponse": 66,
            "catchTime": 1682320086041,
            "trialTime": 0
        },
        {
            "exptPart": "trial",
            "trialNumber": 6,
            "roleCurrent": "receiver",
            "marblesSampled": 100,
            "probRed": 0.5,
            "practiceLambda": 5,
            "trialLambda": 21.9,
            "instructedLambda": "dishonest_big",
            "sd": 8.1,
            "drawnRed": 64,
            "reportedRed": 85,
            "inferredRed": 81,
            "playerTrialScore": -17,
            "oppTrialScore": 17,
            "playerTotalScore": -130,
            "oppTotalScore": 130,
            "waitTime": 7266.436457664712,
            "responseTime": 1682320111244,
            "catchQuestion": "How many <b class=\"r\">red<\/b> marbles did your opponent report drawing? ",
            "catchKey": -1,
            "catchResponse": -1,
            "catchTime": 1682320086041,
            "trialTime": 0
        },
        {
            "exptPart": "trial",
            "trialNumber": 7,
            "roleCurrent": "receiver",
            "marblesSampled": 100,
            "probRed": 0.5,
            "practiceLambda": 5,
            "trialLambda": 21.9,
            "instructedLambda": "dishonest_big",
            "sd": 8.1,
            "drawnRed": 31,
            "reportedRed": 74,
            "inferredRed": 71,
            "playerTrialScore": -40,
            "oppTrialScore": 40,
            "playerTotalScore": -170,
            "oppTotalScore": 170,
            "waitTime": 5569.636876639874,
            "responseTime": 1682320120350,
            "catchQuestion": "How many <b class=\"r\">red<\/b> marbles did your opponent report drawing? ",
            "catchKey": -1,
            "catchResponse": -1,
            "catchTime": 1682320086041,
            "trialTime": 0
        },
        {
            "exptPart": "trial",
            "trialNumber": 8,
            "roleCurrent": "receiver",
            "marblesSampled": 100,
            "probRed": 0.5,
            "practiceLambda": 5,
            "trialLambda": 21.9,
            "instructedLambda": "dishonest_big",
            "sd": 8.1,
            "drawnRed": 50,
            "reportedRed": 82,
            "inferredRed": 78,
            "playerTrialScore": -28,
            "oppTrialScore": 28,
            "playerTotalScore": -198,
            "oppTotalScore": 198,
            "waitTime": 5725.27783055849,
            "responseTime": 1682320138683,
            "catchQuestion": "How many <b class=\"r\">red<\/b> marbles did your opponent report drawing? ",
            "catchKey": -1,
            "catchResponse": -1,
            "catchTime": 1682320086041,
            "trialTime": 0
        },
        {
            "exptPart": "trial",
            "trialNumber": 9,
            "roleCurrent": "receiver",
            "marblesSampled": 100,
            "probRed": 0.5,
            "practiceLambda": 5,
            "trialLambda": 21.9,
            "instructedLambda": "dishonest_big",
            "sd": 8.1,
            "drawnRed": 63,
            "reportedRed": 93,
            "inferredRed": 90,
            "playerTrialScore": -27,
            "oppTrialScore": 27,
            "playerTotalScore": -225,
            "oppTotalScore": 225,
            "waitTime": 5910.774147461221,
            "responseTime": 1682320147525,
            "catchQuestion": "How many <b class=\"r\">red<\/b> marbles did your opponent report drawing? ",
            "catchKey": -1,
            "catchResponse": -1,
            "catchTime": 1682320086041,
            "trialTime": 0
        },
        {
            "exptPart": "trial",
            "trialNumber": 10,
            "roleCurrent": "receiver",
            "marblesSampled": 100,
            "probRed": 0.5,
            "practiceLambda": 5,
            "trialLambda": 21.9,
            "instructedLambda": "dishonest_big",
            "sd": 8.1,
            "drawnRed": 13,
            "reportedRed": 40,
            "inferredRed": 37,
            "playerTrialScore": -24,
            "oppTrialScore": 24,
            "playerTotalScore": -249,
            "oppTotalScore": 249,
            "waitTime": 6433.34803480878,
            "responseTime": 1682320157806,
            "catchQuestion": "How many <b class=\"r\">red<\/b> marbles did your opponent report drawing? ",
            "catchKey": 40,
            "catchResponse": 40,
            "catchTime": 1682320157806,
            "trialTime": 0
        },
        {
            "exptPart": "trial",
            "trialNumber": 11,
            "roleCurrent": "receiver",
            "marblesSampled": 100,
            "probRed": 0.5,
            "practiceLambda": 5,
            "trialLambda": 21.9,
            "instructedLambda": "dishonest_big",
            "sd": 8.1,
            "drawnRed": 27,
            "reportedRed": 37,
            "inferredRed": 33,
            "playerTrialScore": -6,
            "oppTrialScore": 6,
            "playerTotalScore": -255,
            "oppTotalScore": 255,
            "waitTime": 5892.936493650093,
            "responseTime": 1682320171947,
            "catchQuestion": "How many <b class=\"r\">red<\/b> marbles did your opponent report drawing? ",
            "catchKey": 37,
            "catchResponse": 36,
            "catchTime": 1682320171948,
            "trialTime": 0
        },
        {
            "exptPart": "trial",
            "trialNumber": 12,
            "roleCurrent": "receiver",
            "marblesSampled": 100,
            "probRed": 0.5,
            "practiceLambda": 5,
            "trialLambda": 21.9,
            "instructedLambda": "dishonest_big",
            "sd": 8.1,
            "drawnRed": 49,
            "reportedRed": 74,
            "inferredRed": 79,
            "playerTrialScore": -30,
            "oppTrialScore": 30,
            "playerTotalScore": -285,
            "oppTotalScore": 285,
            "waitTime": 7072.115949930658,
            "responseTime": 1682320190963,
            "catchQuestion": "How many <b class=\"r\">red<\/b> marbles did your opponent report drawing? ",
            "catchKey": -1,
            "catchResponse": -1,
            "catchTime": 1682320171948,
            "trialTime": 0
        },
        {
            "exptPart": "trial",
            "trialNumber": 13,
            "roleCurrent": "receiver",
            "marblesSampled": 100,
            "probRed": 0.5,
            "practiceLambda": 5,
            "trialLambda": 21.9,
            "instructedLambda": "dishonest_big",
            "sd": 8.1,
            "drawnRed": 15,
            "reportedRed": 54,
            "inferredRed": 50,
            "playerTrialScore": -35,
            "oppTrialScore": 35,
            "playerTotalScore": -320,
            "oppTotalScore": 320,
            "waitTime": 5999.744007360601,
            "responseTime": 1682320200382,
            "catchQuestion": "How many <b class=\"r\">red<\/b> marbles did your opponent report drawing? ",
            "catchKey": -1,
            "catchResponse": -1,
            "catchTime": 1682320171948,
            "trialTime": 0
        },
        {
            "exptPart": "trial",
            "trialNumber": 14,
            "roleCurrent": "receiver",
            "marblesSampled": 100,
            "probRed": 0.5,
            "practiceLambda": 5,
            "trialLambda": 21.9,
            "instructedLambda": "dishonest_big",
            "sd": 8.1,
            "drawnRed": 43,
            "reportedRed": 70,
            "inferredRed": 66,
            "playerTrialScore": -23,
            "oppTrialScore": 23,
            "playerTotalScore": -343,
            "oppTotalScore": 343,
            "waitTime": 6781.314590519358,
            "responseTime": 1682320212364,
            "catchQuestion": "How many <b class=\"r\">red<\/b> marbles did your opponent report drawing? ",
            "catchKey": -1,
            "catchResponse": -1,
            "catchTime": 1682320171948,
            "trialTime": 0
        },
        {
            "exptPart": "trial",
            "trialNumber": 15,
            "roleCurrent": "receiver",
            "marblesSampled": 100,
            "probRed": 0.5,
            "practiceLambda": 5,
            "trialLambda": 21.9,
            "instructedLambda": "dishonest_big",
            "sd": 8.1,
            "drawnRed": 60,
            "reportedRed": 77,
            "inferredRed": 74,
            "playerTrialScore": -14,
            "oppTrialScore": 14,
            "playerTotalScore": -357,
            "oppTotalScore": 357,
            "waitTime": 5480.9566470568425,
            "responseTime": 1682320220633,
            "catchQuestion": "How many <b class=\"r\">red<\/b> marbles did your opponent report drawing? ",
            "catchKey": 77,
            "catchResponse": 77,
            "catchTime": 1682320220633,
            "trialTime": 0
        },
        {
            "exptPart": "trial",
            "trialNumber": 16,
            "roleCurrent": "receiver",
            "marblesSampled": 100,
            "probRed": 0.5,
            "practiceLambda": 5,
            "trialLambda": 21.9,
            "instructedLambda": "dishonest_big",
            "sd": 8.1,
            "drawnRed": 82,
            "reportedRed": 100,
            "inferredRed": 67,
            "playerTrialScore": -15,
            "oppTrialScore": 0,
            "playerTotalScore": -372,
            "oppTotalScore": 357,
            "waitTime": 7487.631483538996,
            "responseTime": 1682320236594,
            "catchQuestion": "How many <b class=\"r\">red<\/b> marbles did your opponent report drawing? ",
            "catchKey": -1,
            "catchResponse": -1,
            "catchTime": 1682320220633,
            "trialTime": 0
        },
        {
            "exptPart": "trial",
            "trialNumber": 17,
            "roleCurrent": "receiver",
            "marblesSampled": 100,
            "probRed": 0.5,
            "practiceLambda": 5,
            "trialLambda": 21.9,
            "instructedLambda": "dishonest_big",
            "sd": 8.1,
            "drawnRed": 71,
            "reportedRed": 99,
            "inferredRed": 64,
            "playerTrialScore": -7,
            "oppTrialScore": 0,
            "playerTotalScore": -379,
            "oppTotalScore": 357,
            "waitTime": 6034.640967858288,
            "responseTime": 1682320246385,
            "catchQuestion": "How many <b class=\"r\">red<\/b> marbles did your opponent report drawing? ",
            "catchKey": -1,
            "catchResponse": -1,
            "catchTime": 1682320220633,
            "trialTime": 0
        },
        {
            "exptPart": "trial",
            "trialNumber": 18,
            "roleCurrent": "receiver",
            "marblesSampled": 100,
            "probRed": 0.5,
            "practiceLambda": 5,
            "trialLambda": 21.9,
            "instructedLambda": "dishonest_big",
            "sd": 8.1,
            "drawnRed": 69,
            "reportedRed": 100,
            "inferredRed": 64,
            "playerTrialScore": -5,
            "oppTrialScore": 0,
            "playerTotalScore": -384,
            "oppTotalScore": 357,
            "waitTime": 5144.007086989123,
            "responseTime": 1682320255145,
            "catchQuestion": "How many <b class=\"r\">red<\/b> marbles did your opponent report drawing? ",
            "catchKey": -1,
            "catchResponse": -1,
            "catchTime": 1682320220633,
            "trialTime": 0
        },
        {
            "exptPart": "trial",
            "trialNumber": 19,
            "roleCurrent": "receiver",
            "marblesSampled": 100,
            "probRed": 0.5,
            "practiceLambda": 5,
            "trialLambda": 21.9,
            "instructedLambda": "dishonest_big",
            "sd": 8.1,
            "drawnRed": 67,
            "reportedRed": 86,
            "inferredRed": 77,
            "playerTrialScore": -10,
            "oppTrialScore": 10,
            "playerTotalScore": -394,
            "oppTotalScore": 367,
            "waitTime": 7220.841396973816,
            "responseTime": 1682320265575,
            "catchQuestion": "How many <b class=\"r\">red<\/b> marbles did your opponent report drawing? ",
            "catchKey": -1,
            "catchResponse": -1,
            "catchTime": 1682320220633,
            "trialTime": 0
        },
        {
            "exptPart": "trial",
            "trialNumber": 20,
            "roleCurrent": "receiver",
            "marblesSampled": 100,
            "probRed": 0.5,
            "practiceLambda": 5,
            "trialLambda": 21.9,
            "instructedLambda": "dishonest_big",
            "sd": 8.1,
            "drawnRed": 70,
            "reportedRed": 94,
            "inferredRed": 66,
            "playerTrialScore": -4,
            "oppTrialScore": 0,
            "playerTotalScore": -398,
            "oppTotalScore": 367,
            "waitTime": 7382.433018058242,
            "responseTime": 1682320275954,
            "catchQuestion": "How many <b class=\"r\">red<\/b> marbles did your opponent report drawing? ",
            "catchKey": -1,
            "catchResponse": -1,
            "catchTime": 1682320275954,
            "trialTime": 0
        },
        {
            "exptPart": "trial",
            "trialNumber": 21,
            "roleCurrent": "receiver",
            "marblesSampled": 100,
            "probRed": 0.5,
            "practiceLambda": 5,
            "trialLambda": 21.9,
            "instructedLambda": "dishonest_big",
            "sd": 8.1,
            "drawnRed": 72,
            "reportedRed": 90,
            "inferredRed": 77,
            "playerTrialScore": -5,
            "oppTrialScore": 5,
            "playerTotalScore": -403,
            "oppTotalScore": 372,
            "waitTime": 7388.203120138526,
            "responseTime": 1682320287352,
            "catchQuestion": "How many <b class=\"r\">red<\/b> marbles did your opponent report drawing? ",
            "catchKey": 90,
            "catchResponse": 90,
            "catchTime": 1682320287352,
            "trialTime": 0
        },
        {
            "exptPart": "trial",
            "trialNumber": 22,
            "roleCurrent": "receiver",
            "marblesSampled": 100,
            "probRed": 0.5,
            "practiceLambda": 5,
            "trialLambda": 21.9,
            "instructedLambda": "dishonest_big",
            "sd": 8.1,
            "drawnRed": 60,
            "reportedRed": 90,
            "inferredRed": 45,
            "playerTrialScore": -15,
            "oppTrialScore": 0,
            "playerTotalScore": -418,
            "oppTotalScore": 372,
            "waitTime": 5466.572887790569,
            "responseTime": 1682320299824,
            "catchQuestion": "How many <b class=\"r\">red<\/b> marbles did your opponent report drawing? ",
            "catchKey": -1,
            "catchResponse": -1,
            "catchTime": 1682320287352,
            "trialTime": 0
        },
        {
            "exptPart": "trial",
            "trialNumber": 23,
            "roleCurrent": "receiver",
            "marblesSampled": 100,
            "probRed": 0.5,
            "practiceLambda": 5,
            "trialLambda": 21.9,
            "instructedLambda": "dishonest_big",
            "sd": 8.1,
            "drawnRed": 40,
            "reportedRed": 59,
            "inferredRed": 56,
            "playerTrialScore": -16,
            "oppTrialScore": 16,
            "playerTotalScore": -434,
            "oppTotalScore": 388,
            "waitTime": 7431.818904940081,
            "responseTime": 1682320311030,
            "catchQuestion": "How many <b class=\"r\">red<\/b> marbles did your opponent report drawing? ",
            "catchKey": -1,
            "catchResponse": -1,
            "catchTime": 1682320287352,
            "trialTime": 0
        },
        {
            "exptPart": "trial",
            "trialNumber": 24,
            "roleCurrent": "receiver",
            "marblesSampled": 100,
            "probRed": 0.5,
            "practiceLambda": 5,
            "trialLambda": 21.9,
            "instructedLambda": "dishonest_big",
            "sd": 8.1,
            "drawnRed": 39,
            "reportedRed": 64,
            "inferredRed": 63,
            "playerTrialScore": -24,
            "oppTrialScore": 24,
            "playerTotalScore": -458,
            "oppTotalScore": 412,
            "waitTime": 6226.017517878245,
            "responseTime": 1682320320863,
            "catchQuestion": "How many <b class=\"r\">red<\/b> marbles did your opponent report drawing? ",
            "catchKey": -1,
            "catchResponse": -1,
            "catchTime": 1682320287352,
            "trialTime": 0
        },
        {
            "exptPart": "trial",
            "trialNumber": 25,
            "roleCurrent": "receiver",
            "marblesSampled": 100,
            "probRed": 0.5,
            "practiceLambda": 5,
            "trialLambda": 21.9,
            "instructedLambda": "dishonest_big",
            "sd": 8.1,
            "drawnRed": 51,
            "reportedRed": 76,
            "inferredRed": 73,
            "playerTrialScore": -22,
            "oppTrialScore": 22,
            "playerTotalScore": -480,
            "oppTotalScore": 434,
            "waitTime": 5304.796325714752,
            "responseTime": 1682320329402,
            "catchQuestion": "How many <b class=\"r\">red<\/b> marbles did your opponent report drawing? ",
            "catchKey": -1,
            "catchResponse": -1,
            "catchTime": 1682320287352,
            "trialTime": 0
        },
        {
            "exptPart": "trial",
            "trialNumber": 26,
            "roleCurrent": "receiver",
            "marblesSampled": 100,
            "probRed": 0.5,
            "practiceLambda": 5,
            "trialLambda": 21.9,
            "instructedLambda": "dishonest_big",
            "sd": 8.1,
            "drawnRed": 40,
            "reportedRed": 67,
            "inferredRed": 63,
            "playerTrialScore": -23,
            "oppTrialScore": 23,
            "playerTotalScore": -503,
            "oppTotalScore": 457,
            "waitTime": 6120.109166193406,
            "responseTime": 1682320338914,
            "catchQuestion": "How many <b class=\"r\">red<\/b> marbles did your opponent report drawing? ",
            "catchKey": 67,
            "catchResponse": 67,
            "catchTime": 1682320338914,
            "trialTime": 0
        },
        {
            "exptPart": "trial",
            "trialNumber": 27,
            "roleCurrent": "receiver",
            "marblesSampled": 100,
            "probRed": 0.5,
            "practiceLambda": 5,
            "trialLambda": 21.9,
            "instructedLambda": "dishonest_big",
            "sd": 8.1,
            "drawnRed": 42,
            "reportedRed": 66,
            "inferredRed": 63,
            "playerTrialScore": -21,
            "oppTrialScore": 21,
            "playerTotalScore": -524,
            "oppTotalScore": 478,
            "waitTime": 6405.489873030865,
            "responseTime": 1682320351360,
            "catchQuestion": "How many <b class=\"r\">red<\/b> marbles did your opponent report drawing? ",
            "catchKey": -1,
            "catchResponse": -1,
            "catchTime": 1682320338914,
            "trialTime": 0
        },
        {
            "exptPart": "trial",
            "trialNumber": 28,
            "roleCurrent": "receiver",
            "marblesSampled": 100,
            "probRed": 0.5,
            "practiceLambda": 5,
            "trialLambda": 21.9,
            "instructedLambda": "dishonest_big",
            "sd": 8.1,
            "drawnRed": 11,
            "reportedRed": 30,
            "inferredRed": 36,
            "playerTrialScore": -25,
            "oppTrialScore": 25,
            "playerTotalScore": -549,
            "oppTotalScore": 503,
            "waitTime": 6105.897289594669,
            "responseTime": 1682320361269,
            "catchQuestion": "How many <b class=\"r\">red<\/b> marbles did your opponent report drawing? ",
            "catchKey": -1,
            "catchResponse": -1,
            "catchTime": 1682320338914,
            "trialTime": 0
        },
        {
            "exptPart": "trial",
            "trialNumber": 29,
            "roleCurrent": "receiver",
            "marblesSampled": 100,
            "probRed": 0.5,
            "practiceLambda": 5,
            "trialLambda": 21.9,
            "instructedLambda": "dishonest_big",
            "sd": 8.1,
            "drawnRed": 63,
            "reportedRed": 67,
            "inferredRed": 63,
            "playerTrialScore": 0,
            "oppTrialScore": 0,
            "playerTotalScore": -549,
            "oppTotalScore": 503,
            "waitTime": 5931.827299776312,
            "responseTime": 1682320370628,
            "catchQuestion": "How many <b class=\"r\">red<\/b> marbles did your opponent report drawing? ",
            "catchKey": -1,
            "catchResponse": -1,
            "catchTime": 1682320338914,
            "trialTime": 0
        },
        {
            "exptPart": "trial",
            "trialNumber": 30,
            "roleCurrent": "receiver",
            "marblesSampled": 100,
            "probRed": 0.5,
            "practiceLambda": 5,
            "trialLambda": 21.9,
            "instructedLambda": "dishonest_big",
            "sd": 8.1,
            "drawnRed": 56,
            "reportedRed": 75,
            "inferredRed": 73,
            "playerTrialScore": -17,
            "oppTrialScore": 17,
            "playerTotalScore": -566,
            "oppTotalScore": 520,
            "waitTime": 5248.415716542703,
            "responseTime": 1682320378842,
            "catchQuestion": "How many <b class=\"r\">red<\/b> marbles did your opponent report drawing? ",
            "catchKey": -1,
            "catchResponse": -1,
            "catchTime": 1682320378842,
            "trialTime": 0
        },
        {
            "exptPart": "trial",
            "trialNumber": 31,
            "roleCurrent": "receiver",
            "marblesSampled": 100,
            "probRed": 0.5,
            "practiceLambda": 5,
            "trialLambda": 21.9,
            "instructedLambda": "dishonest_big",
            "sd": 8.1,
            "drawnRed": 66,
            "reportedRed": 80,
            "inferredRed": 67,
            "playerTrialScore": -1,
            "oppTrialScore": 1,
            "playerTotalScore": -567,
            "oppTotalScore": 521,
            "waitTime": 7060.498057173965,
            "responseTime": 1682320390774,
            "catchQuestion": "How many <b class=\"r\">red<\/b> marbles did your opponent report drawing? ",
            "catchKey": -1,
            "catchResponse": -1,
            "catchTime": 1682320378842,
            "trialTime": 0
        },
        {
            "exptPart": "trial",
            "trialNumber": 32,
            "roleCurrent": "receiver",
            "marblesSampled": 100,
            "probRed": 0.5,
            "practiceLambda": 5,
            "trialLambda": 21.9,
            "instructedLambda": "dishonest_big",
            "sd": 8.1,
            "drawnRed": 44,
            "reportedRed": 62,
            "inferredRed": 60,
            "playerTrialScore": -16,
            "oppTrialScore": 16,
            "playerTotalScore": -583,
            "oppTotalScore": 537,
            "waitTime": 5613.52790384827,
            "responseTime": 1682320398850,
            "catchQuestion": "How many <b class=\"r\">red<\/b> marbles did your opponent report drawing? ",
            "catchKey": -1,
            "catchResponse": -1,
            "catchTime": 1682320378842,
            "trialTime": 0
        },
        {
            "exptPart": "trial",
            "trialNumber": 33,
            "roleCurrent": "receiver",
            "marblesSampled": 100,
            "probRed": 0.5,
            "practiceLambda": 5,
            "trialLambda": 21.9,
            "instructedLambda": "dishonest_big",
            "sd": 8.1,
            "drawnRed": 29,
            "reportedRed": 39,
            "inferredRed": 36,
            "playerTrialScore": -7,
            "oppTrialScore": 7,
            "playerTotalScore": -590,
            "oppTotalScore": 544,
            "waitTime": 5306.001441433491,
            "responseTime": 1682320407984,
            "catchQuestion": "How many <b class=\"r\">red<\/b> marbles did your opponent report drawing? ",
            "catchKey": -1,
            "catchResponse": -1,
            "catchTime": 1682320378842,
            "trialTime": 0
        },
        {
            "exptPart": "trial",
            "trialNumber": 34,
            "roleCurrent": "receiver",
            "marblesSampled": 100,
            "probRed": 0.5,
            "practiceLambda": 5,
            "trialLambda": 21.9,
            "instructedLambda": "dishonest_big",
            "sd": 8.1,
            "drawnRed": 50,
            "reportedRed": 77,
            "inferredRed": 70,
            "playerTrialScore": -20,
            "oppTrialScore": 20,
            "playerTotalScore": -610,
            "oppTotalScore": 564,
            "waitTime": 5432.746557141087,
            "responseTime": 1682320416161,
            "catchQuestion": "How many <b class=\"r\">red<\/b> marbles did your opponent report drawing? ",
            "catchKey": -1,
            "catchResponse": -1,
            "catchTime": 1682320378842,
            "trialTime": 0
        },
        {
            "exptPart": "trial",
            "trialNumber": 35,
            "roleCurrent": "receiver",
            "marblesSampled": 100,
            "probRed": 0.5,
            "practiceLambda": 5,
            "trialLambda": 21.9,
            "instructedLambda": "dishonest_big",
            "sd": 8.1,
            "drawnRed": 52,
            "reportedRed": 73,
            "inferredRed": 70,
            "playerTrialScore": -18,
            "oppTrialScore": 18,
            "playerTotalScore": -628,
            "oppTotalScore": 582,
            "waitTime": 5805.19622949628,
            "responseTime": 1682320424596,
            "catchQuestion": "How many <b class=\"r\">red<\/b> marbles did your opponent report drawing? ",
            "catchKey": -1,
            "catchResponse": -1,
            "catchTime": 1682320378842,
            "trialTime": 0
        },
        {
            "exptPart": "trial",
            "trialNumber": 36,
            "roleCurrent": "receiver",
            "marblesSampled": 100,
            "probRed": 0.5,
            "practiceLambda": 5,
            "trialLambda": 21.9,
            "instructedLambda": "dishonest_big",
            "sd": 8.1,
            "drawnRed": 70,
            "reportedRed": 100,
            "inferredRed": 57,
            "playerTrialScore": -13,
            "oppTrialScore": 0,
            "playerTotalScore": -641,
            "oppTotalScore": 582,
            "waitTime": 6233.287618383077,
            "responseTime": 1682320433347,
            "catchQuestion": "How many <b class=\"r\">red<\/b> marbles did your opponent report drawing? ",
            "catchKey": 100,
            "catchResponse": 100,
            "catchTime": 1682320433347,
            "trialTime": 0
        },
        {
            "exptPart": "trial",
            "trialNumber": 37,
            "roleCurrent": "receiver",
            "marblesSampled": 100,
            "probRed": 0.5,
            "practiceLambda": 5,
            "trialLambda": 21.9,
            "instructedLambda": "dishonest_big",
            "sd": 8.1,
            "drawnRed": 62,
            "reportedRed": 83,
            "inferredRed": 80,
            "playerTrialScore": -18,
            "oppTrialScore": 18,
            "playerTotalScore": -659,
            "oppTotalScore": 600,
            "waitTime": 5399.514009976989,
            "responseTime": 1682320445072,
            "catchQuestion": "How many <b class=\"r\">red<\/b> marbles did your opponent report drawing? ",
            "catchKey": -1,
            "catchResponse": -1,
            "catchTime": 1682320433347,
            "trialTime": 0
        },
        {
            "exptPart": "trial",
            "trialNumber": 38,
            "roleCurrent": "receiver",
            "marblesSampled": 100,
            "probRed": 0.5,
            "practiceLambda": 5,
            "trialLambda": 21.9,
            "instructedLambda": "dishonest_big",
            "sd": 8.1,
            "drawnRed": 40,
            "reportedRed": 64,
            "inferredRed": 63,
            "playerTrialScore": -23,
            "oppTrialScore": 23,
            "playerTotalScore": -682,
            "oppTotalScore": 623,
            "waitTime": 5773.59705537407,
            "responseTime": 1682320454202,
            "catchQuestion": "How many <b class=\"r\">red<\/b> marbles did your opponent report drawing? ",
            "catchKey": -1,
            "catchResponse": -1,
            "catchTime": 1682320433347,
            "trialTime": 0
        },
        {
            "exptPart": "trial",
            "trialNumber": 39,
            "roleCurrent": "receiver",
            "marblesSampled": 100,
            "probRed": 0.5,
            "practiceLambda": 5,
            "trialLambda": 21.9,
            "instructedLambda": "dishonest_big",
            "sd": 8.1,
            "drawnRed": 36,
            "reportedRed": 57,
            "inferredRed": 50,
            "playerTrialScore": -14,
            "oppTrialScore": 14,
            "playerTotalScore": -696,
            "oppTotalScore": 637,
            "waitTime": 6043.901910016405,
            "responseTime": 1682320463728,
            "catchQuestion": "How many <b class=\"r\">red<\/b> marbles did your opponent report drawing? ",
            "catchKey": -1,
            "catchResponse": -1,
            "catchTime": 1682320433347,
            "trialTime": 0
        },
        {
            "exptPart": "trial",
            "trialNumber": 40,
            "roleCurrent": "receiver",
            "marblesSampled": 100,
            "probRed": 0.5,
            "practiceLambda": 5,
            "trialLambda": 21.9,
            "instructedLambda": "dishonest_big",
            "sd": 8.1,
            "drawnRed": 79,
            "reportedRed": 98,
            "inferredRed": 66,
            "playerTrialScore": -13,
            "oppTrialScore": 0,
            "playerTotalScore": -709,
            "oppTotalScore": 637,
            "waitTime": 5848.647397139153,
            "responseTime": 1682320473625,
            "catchQuestion": "How many <b class=\"r\">red<\/b> marbles did your opponent report drawing? ",
            "catchKey": 98,
            "catchResponse": 98,
            "catchTime": 1682320473625,
            "trialTime": 0
        },
        {
            "exptPart": "trial",
            "trialNumber": 41,
            "roleCurrent": "receiver",
            "marblesSampled": 100,
            "probRed": 0.5,
            "practiceLambda": 5,
            "trialLambda": 21.9,
            "instructedLambda": "dishonest_big",
            "sd": 8.1,
            "drawnRed": 68,
            "reportedRed": 93,
            "inferredRed": 67,
            "playerTrialScore": -1,
            "oppTrialScore": 0,
            "playerTotalScore": -710,
            "oppTotalScore": 637,
            "waitTime": 5500.757776303267,
            "responseTime": 1682320486101,
            "catchQuestion": "How many <b class=\"r\">red<\/b> marbles did your opponent report drawing? ",
            "catchKey": -1,
            "catchResponse": -1,
            "catchTime": 1682320473625,
            "trialTime": 0
        },
        {
            "exptPart": "trial",
            "trialNumber": 42,
            "roleCurrent": "receiver",
            "marblesSampled": 100,
            "probRed": 0.5,
            "practiceLambda": 5,
            "trialLambda": 21.9,
            "instructedLambda": "dishonest_big",
            "sd": 8.1,
            "drawnRed": 49,
            "reportedRed": 70,
            "inferredRed": 66,
            "playerTrialScore": -17,
            "oppTrialScore": 17,
            "playerTotalScore": -727,
            "oppTotalScore": 654,
            "waitTime": 5748.219616381835,
            "responseTime": 1682320497644,
            "catchQuestion": "How many <b class=\"r\">red<\/b> marbles did your opponent report drawing? ",
            "catchKey": -1,
            "catchResponse": -1,
            "catchTime": 1682320473625,
            "trialTime": 0
        },
        {
            "exptPart": "trial",
            "trialNumber": 43,
            "roleCurrent": "receiver",
            "marblesSampled": 100,
            "probRed": 0.5,
            "practiceLambda": 5,
            "trialLambda": 21.9,
            "instructedLambda": "dishonest_big",
            "sd": 8.1,
            "drawnRed": 42,
            "reportedRed": 63,
            "inferredRed": 59,
            "playerTrialScore": -17,
            "oppTrialScore": 17,
            "playerTotalScore": -744,
            "oppTotalScore": 671,
            "waitTime": 5698.5978347901655,
            "responseTime": 1682320505781,
            "catchQuestion": "How many <b class=\"r\">red<\/b> marbles did your opponent report drawing? ",
            "catchKey": -1,
            "catchResponse": -1,
            "catchTime": 1682320473625,
            "trialTime": 0
        },
        {
            "exptPart": "trial",
            "trialNumber": 44,
            "roleCurrent": "receiver",
            "marblesSampled": 100,
            "probRed": 0.5,
            "practiceLambda": 5,
            "trialLambda": 21.9,
            "instructedLambda": "dishonest_big",
            "sd": 8.1,
            "drawnRed": 28,
            "reportedRed": 39,
            "inferredRed": 77,
            "playerTrialScore": -49,
            "oppTrialScore": 49,
            "playerTotalScore": -793,
            "oppTotalScore": 720,
            "waitTime": 6118.471244071257,
            "responseTime": 1682320514274,
            "catchQuestion": "How many <b class=\"r\">red<\/b> marbles did your opponent report drawing? ",
            "catchKey": -1,
            "catchResponse": -1,
            "catchTime": 1682320473625,
            "trialTime": 0
        },
        {
            "exptPart": "trial",
            "trialNumber": 45,
            "roleCurrent": "receiver",
            "marblesSampled": 100,
            "probRed": 0.5,
            "practiceLambda": 5,
            "trialLambda": 21.9,
            "instructedLambda": "dishonest_big",
            "sd": 8.1,
            "drawnRed": 49,
            "reportedRed": 84,
            "inferredRed": 58,
            "playerTrialScore": -9,
            "oppTrialScore": 9,
            "playerTotalScore": -802,
            "oppTotalScore": 729,
            "waitTime": 5604.030393556525,
            "responseTime": 1682320522169,
            "catchQuestion": "How many <b class=\"r\">red<\/b> marbles did your opponent report drawing? ",
            "catchKey": -1,
            "catchResponse": -1,
            "catchTime": 1682320473625,
            "trialTime": 0
        },
        {
            "exptPart": "trial",
            "trialNumber": 46,
            "roleCurrent": "receiver",
            "marblesSampled": 100,
            "probRed": 0.5,
            "practiceLambda": 5,
            "trialLambda": 21.9,
            "instructedLambda": "dishonest_big",
            "sd": 8.1,
            "drawnRed": 50,
            "reportedRed": 65,
            "inferredRed": 77,
            "playerTrialScore": -27,
            "oppTrialScore": 27,
            "playerTotalScore": -829,
            "oppTotalScore": 756,
            "waitTime": 5801.012044696931,
            "responseTime": 1682320531259,
            "catchQuestion": "How many <b class=\"r\">red<\/b> marbles did your opponent report drawing? ",
            "catchKey": -1,
            "catchResponse": -1,
            "catchTime": 1682320473625,
            "trialTime": 0
        },
        {
            "exptPart": "trial",
            "trialNumber": 47,
            "roleCurrent": "receiver",
            "marblesSampled": 100,
            "probRed": 0.5,
            "practiceLambda": 5,
            "trialLambda": 21.9,
            "instructedLambda": "dishonest_big",
            "sd": 8.1,
            "drawnRed": 38,
            "reportedRed": 63,
            "inferredRed": 60,
            "playerTrialScore": -22,
            "oppTrialScore": 22,
            "playerTotalScore": -851,
            "oppTotalScore": 778,
            "waitTime": 6091.999137684055,
            "responseTime": 1682320540388,
            "catchQuestion": "How many <b class=\"r\">red<\/b> marbles did your opponent report drawing? ",
            "catchKey": -1,
            "catchResponse": -1,
            "catchTime": 1682320473625,
            "trialTime": 0
        },
        {
            "exptPart": "trial",
            "trialNumber": 48,
            "roleCurrent": "receiver",
            "marblesSampled": 100,
            "probRed": 0.5,
            "practiceLambda": 5,
            "trialLambda": 21.9,
            "instructedLambda": "dishonest_big",
            "sd": 8.1,
            "drawnRed": 36,
            "reportedRed": 57,
            "inferredRed": 65,
            "playerTrialScore": -29,
            "oppTrialScore": 29,
            "playerTotalScore": -880,
            "oppTotalScore": 807,
            "waitTime": 6427.282610581155,
            "responseTime": 1682320549583,
            "catchQuestion": "How many <b class=\"r\">red<\/b> marbles did your opponent report drawing? ",
            "catchKey": -1,
            "catchResponse": -1,
            "catchTime": 1682320473625,
            "trialTime": 0
        },
        {
            "exptPart": "trial",
            "trialNumber": 49,
            "roleCurrent": "receiver",
            "marblesSampled": 100,
            "probRed": 0.5,
            "practiceLambda": 5,
            "trialLambda": 21.9,
            "instructedLambda": "dishonest_big",
            "sd": 8.1,
            "drawnRed": 22,
            "reportedRed": 35,
            "inferredRed": 30,
            "playerTrialScore": -8,
            "oppTrialScore": 8,
            "playerTotalScore": -888,
            "oppTotalScore": 815,
            "waitTime": 5695.621179814451,
            "responseTime": 1682320559485,
            "catchQuestion": "How many <b class=\"r\">red<\/b> marbles did your opponent report drawing? ",
            "catchKey": -1,
            "catchResponse": -1,
            "catchTime": 1682320473625,
            "trialTime": 0
        },
        {
            "exptPart": "trial",
            "trialNumber": 50,
            "roleCurrent": "receiver",
            "marblesSampled": 100,
            "probRed": 0.5,
            "practiceLambda": 5,
            "trialLambda": 21.9,
            "instructedLambda": "dishonest_big",
            "sd": 8.1,
            "drawnRed": 12,
            "reportedRed": 37,
            "inferredRed": 33,
            "playerTrialScore": -21,
            "oppTrialScore": 21,
            "playerTotalScore": -909,
            "oppTotalScore": 836,
            "waitTime": 5575.438988207461,
            "responseTime": 1682320572582,
            "catchQuestion": "How many <b class=\"r\">red<\/b> marbles did your opponent report drawing? ",
            "catchKey": -1,
            "catchResponse": -1,
            "catchTime": 1682320572582,
            "trialTime": 0
        },
        {
            "exptPart": "trial",
            "trialNumber": 51,
            "roleCurrent": "receiver",
            "marblesSampled": 100,
            "probRed": 0.5,
            "practiceLambda": 5,
            "trialLambda": 21.9,
            "instructedLambda": "dishonest_big",
            "sd": 8.1,
            "drawnRed": 94,
            "reportedRed": 100,
            "inferredRed": 66,
            "playerTrialScore": -28,
            "oppTrialScore": 0,
            "playerTotalScore": -937,
            "oppTotalScore": 836,
            "waitTime": 6235.353867160065,
            "responseTime": 1682320589315,
            "catchQuestion": "How many <b class=\"r\">red<\/b> marbles did your opponent report drawing? ",
            "catchKey": -1,
            "catchResponse": -1,
            "catchTime": 1682320572582,
            "trialTime": 0
        },
        {
            "exptPart": "trial",
            "trialNumber": 52,
            "roleCurrent": "receiver",
            "marblesSampled": 100,
            "probRed": 0.5,
            "practiceLambda": 5,
            "trialLambda": 21.9,
            "instructedLambda": "dishonest_big",
            "sd": 8.1,
            "drawnRed": 48,
            "reportedRed": 68,
            "inferredRed": 64,
            "playerTrialScore": -16,
            "oppTrialScore": 16,
            "playerTotalScore": -953,
            "oppTotalScore": 852,
            "waitTime": 5717.847081988622,
            "responseTime": 1682320597901,
            "catchQuestion": "How many <b class=\"r\">red<\/b> marbles did your opponent report drawing? ",
            "catchKey": -1,
            "catchResponse": -1,
            "catchTime": 1682320572582,
            "trialTime": 0
        },
        {
            "exptPart": "trial",
            "trialNumber": 53,
            "roleCurrent": "receiver",
            "marblesSampled": 100,
            "probRed": 0.5,
            "practiceLambda": 5,
            "trialLambda": 21.9,
            "instructedLambda": "dishonest_big",
            "sd": 8.1,
            "drawnRed": 37,
            "reportedRed": 61,
            "inferredRed": 66,
            "playerTrialScore": -29,
            "oppTrialScore": 29,
            "playerTotalScore": -982,
            "oppTotalScore": 881,
            "waitTime": 7366.828203238674,
            "responseTime": 1682320608150,
            "catchQuestion": "How many <b class=\"r\">red<\/b> marbles did your opponent report drawing? ",
            "catchKey": -1,
            "catchResponse": -1,
            "catchTime": 1682320572582,
            "trialTime": 0
        },
        {
            "exptPart": "trial",
            "trialNumber": 54,
            "roleCurrent": "receiver",
            "marblesSampled": 100,
            "probRed": 0.5,
            "practiceLambda": 5,
            "trialLambda": 21.9,
            "instructedLambda": "dishonest_big",
            "sd": 8.1,
            "drawnRed": 80,
            "reportedRed": 99,
            "inferredRed": 55,
            "playerTrialScore": -25,
            "oppTrialScore": 0,
            "playerTotalScore": -1007,
            "oppTotalScore": 881,
            "waitTime": 5734.819891535159,
            "responseTime": 1682320619692,
            "catchQuestion": "How many <b class=\"r\">red<\/b> marbles did your opponent report drawing? ",
            "catchKey": -1,
            "catchResponse": -1,
            "catchTime": 1682320572582,
            "trialTime": 0
        },
        {
            "exptPart": "trial",
            "trialNumber": 55,
            "roleCurrent": "receiver",
            "marblesSampled": 100,
            "probRed": 0.5,
            "practiceLambda": 5,
            "trialLambda": 21.9,
            "instructedLambda": "dishonest_big",
            "sd": 8.1,
            "drawnRed": 53,
            "reportedRed": 71,
            "inferredRed": 60,
            "playerTrialScore": -7,
            "oppTrialScore": 7,
            "playerTotalScore": -1014,
            "oppTotalScore": 888,
            "waitTime": 7128.583942679851,
            "responseTime": 1682320629950,
            "catchQuestion": "How many <b class=\"r\">red<\/b> marbles did your opponent report drawing? ",
            "catchKey": -1,
            "catchResponse": -1,
            "catchTime": 1682320572582,
            "trialTime": 0
        },
        {
            "exptPart": "trial",
            "trialNumber": 56,
            "roleCurrent": "receiver",
            "marblesSampled": 100,
            "probRed": 0.5,
            "practiceLambda": 5,
            "trialLambda": 21.9,
            "instructedLambda": "dishonest_big",
            "sd": 8.1,
            "drawnRed": 59,
            "reportedRed": 69,
            "inferredRed": 66,
            "playerTrialScore": -7,
            "oppTrialScore": 7,
            "playerTotalScore": -1021,
            "oppTotalScore": 895,
            "waitTime": 5453.669584670699,
            "responseTime": 1682320639248,
            "catchQuestion": "How many <b class=\"r\">red<\/b> marbles did your opponent report drawing? ",
            "catchKey": -1,
            "catchResponse": -1,
            "catchTime": 1682320572582,
            "trialTime": 0
        },
        {
            "exptPart": "trial",
            "trialNumber": 57,
            "roleCurrent": "receiver",
            "marblesSampled": 100,
            "probRed": 0.5,
            "practiceLambda": 5,
            "trialLambda": 21.9,
            "instructedLambda": "dishonest_big",
            "sd": 8.1,
            "drawnRed": 68,
            "reportedRed": 93,
            "inferredRed": 78,
            "playerTrialScore": -10,
            "oppTrialScore": 10,
            "playerTotalScore": -1031,
            "oppTotalScore": 905,
            "waitTime": 5523.448713936308,
            "responseTime": 1682320648071,
            "catchQuestion": "How many <b class=\"r\">red<\/b> marbles did your opponent report drawing? ",
            "catchKey": -1,
            "catchResponse": -1,
            "catchTime": 1682320572582,
            "trialTime": 0
        },
        {
            "exptPart": "trial",
            "trialNumber": 58,
            "roleCurrent": "receiver",
            "marblesSampled": 100,
            "probRed": 0.5,
            "practiceLambda": 5,
            "trialLambda": 21.9,
            "instructedLambda": "dishonest_big",
            "sd": 8.1,
            "drawnRed": 33,
            "reportedRed": 52,
            "inferredRed": 59,
            "playerTrialScore": -26,
            "oppTrialScore": 26,
            "playerTotalScore": -1057,
            "oppTotalScore": 931,
            "waitTime": 6359.949931385121,
            "responseTime": 1682320679110,
            "catchQuestion": "How many <b class=\"r\">red<\/b> marbles did your opponent report drawing? ",
            "catchKey": -1,
            "catchResponse": -1,
            "catchTime": 1682320572582,
            "trialTime": 0
        },
        {
            "exptPart": "trial",
            "trialNumber": 59,
            "roleCurrent": "receiver",
            "marblesSampled": 100,
            "probRed": 0.5,
            "practiceLambda": 5,
            "trialLambda": 21.9,
            "instructedLambda": "dishonest_big",
            "sd": 8.1,
            "drawnRed": 52,
            "reportedRed": 83,
            "inferredRed": 83,
            "playerTrialScore": -31,
            "oppTrialScore": 31,
            "playerTotalScore": -1088,
            "oppTotalScore": 962,
            "waitTime": 5211.075245759854,
            "responseTime": 1682320687245,
            "catchQuestion": "How many <b class=\"r\">red<\/b> marbles did your opponent report drawing? ",
            "catchKey": -1,
            "catchResponse": -1,
            "catchTime": 1682320572582,
            "trialTime": 0
        },
        {
            "exptPart": "trial",
            "trialNumber": 60,
            "roleCurrent": "receiver",
            "marblesSampled": 100,
            "probRed": 0.5,
            "practiceLambda": 5,
            "trialLambda": 21.9,
            "instructedLambda": "dishonest_big",
            "sd": 8.1,
            "drawnRed": 14,
            "reportedRed": 29,
            "inferredRed": 45,
            "playerTrialScore": -31,
            "oppTrialScore": 31,
            "playerTotalScore": -1119,
            "oppTotalScore": 993,
            "waitTime": 5291.5587971822315,
            "responseTime": 1682320695713,
            "catchQuestion": "How many <b class=\"r\">red<\/b> marbles did your opponent report drawing? ",
            "catchKey": -1,
            "catchResponse": -1,
            "catchTime": 1682320695713,
            "trialTime": 0
        },
        {
            "exptPart": "trial",
            "trialNumber": 61,
            "roleCurrent": "receiver",
            "marblesSampled": 100,
            "probRed": 0.5,
            "practiceLambda": 5,
            "trialLambda": 21.9,
            "instructedLambda": "dishonest_big",
            "sd": 8.1,
            "drawnRed": 79,
            "reportedRed": 100,
            "inferredRed": 69,
            "playerTrialScore": -10,
            "oppTrialScore": 0,
            "playerTotalScore": -1129,
            "oppTotalScore": 993,
            "waitTime": 5353.96265642632,
            "responseTime": 1682320704994,
            "catchQuestion": "How many <b class=\"r\">red<\/b> marbles did your opponent report drawing? ",
            "catchKey": -1,
            "catchResponse": -1,
            "catchTime": 1682320695713,
            "trialTime": 0
        },
        {
            "exptPart": "trial",
            "trialNumber": 62,
            "roleCurrent": "receiver",
            "marblesSampled": 100,
            "probRed": 0.5,
            "practiceLambda": 5,
            "trialLambda": 21.9,
            "instructedLambda": "dishonest_big",
            "sd": 8.1,
            "drawnRed": 36,
            "reportedRed": 58,
            "inferredRed": 50,
            "playerTrialScore": -14,
            "oppTrialScore": 14,
            "playerTotalScore": -1143,
            "oppTotalScore": 1007,
            "waitTime": 6710.547437997551,
            "responseTime": 1682320714177,
            "catchQuestion": "How many <b class=\"r\">red<\/b> marbles did your opponent report drawing? ",
            "catchKey": -1,
            "catchResponse": -1,
            "catchTime": 1682320695713,
            "trialTime": 0
        },
        {
            "exptPart": "trial",
            "trialNumber": 63,
            "roleCurrent": "receiver",
            "marblesSampled": 100,
            "probRed": 0.5,
            "practiceLambda": 5,
            "trialLambda": 21.9,
            "instructedLambda": "dishonest_big",
            "sd": 8.1,
            "drawnRed": 40,
            "reportedRed": 54,
            "inferredRed": 59,
            "playerTrialScore": -19,
            "oppTrialScore": 19,
            "playerTotalScore": -1162,
            "oppTotalScore": 1026,
            "waitTime": 5466.433370450228,
            "responseTime": 1682320722736,
            "catchQuestion": "How many <b class=\"r\">red<\/b> marbles did your opponent report drawing? ",
            "catchKey": -1,
            "catchResponse": -1,
            "catchTime": 1682320695713,
            "trialTime": 0
        },
        {
            "exptPart": "trial",
            "trialNumber": 64,
            "roleCurrent": "receiver",
            "marblesSampled": 100,
            "probRed": 0.5,
            "practiceLambda": 5,
            "trialLambda": 21.9,
            "instructedLambda": "dishonest_big",
            "sd": 8.1,
            "drawnRed": 79,
            "reportedRed": 100,
            "inferredRed": 60,
            "playerTrialScore": -19,
            "oppTrialScore": 0,
            "playerTotalScore": -1181,
            "oppTotalScore": 1026,
            "waitTime": 5414.467757344864,
            "responseTime": 1682320731022,
            "catchQuestion": "How many <b class=\"r\">red<\/b> marbles did your opponent report drawing? ",
            "catchKey": -1,
            "catchResponse": -1,
            "catchTime": 1682320695713,
            "trialTime": 0
        },
        {
            "exptPart": "trial",
            "trialNumber": 65,
            "roleCurrent": "receiver",
            "marblesSampled": 100,
            "probRed": 0.5,
            "practiceLambda": 5,
            "trialLambda": 21.9,
            "instructedLambda": "dishonest_big",
            "sd": 8.1,
            "drawnRed": 55,
            "reportedRed": 81,
            "inferredRed": 62,
            "playerTrialScore": -7,
            "oppTrialScore": 7,
            "playerTotalScore": -1188,
            "oppTotalScore": 1033,
            "waitTime": 7069.782499480458,
            "responseTime": 1682320756698,
            "catchQuestion": "How many <b class=\"r\">red<\/b> marbles did your opponent report drawing? ",
            "catchKey": 81,
            "catchResponse": 81,
            "catchTime": 1682320756698,
            "trialTime": 0
        },
        {
            "exptPart": "trial",
            "trialNumber": 66,
            "roleCurrent": "receiver",
            "marblesSampled": 100,
            "probRed": 0.5,
            "practiceLambda": 5,
            "trialLambda": 21.9,
            "instructedLambda": "dishonest_big",
            "sd": 8.1,
            "drawnRed": 11,
            "reportedRed": 39,
            "inferredRed": 40,
            "playerTrialScore": -29,
            "oppTrialScore": 29,
            "playerTotalScore": -1217,
            "oppTotalScore": 1062,
            "waitTime": 7031.248410720301,
            "responseTime": 1682320842535,
            "catchQuestion": "How many <b class=\"r\">red<\/b> marbles did your opponent report drawing? ",
            "catchKey": -1,
            "catchResponse": -1,
            "catchTime": 1682320756698,
            "trialTime": 0
        },
        {
            "exptPart": "trial",
            "trialNumber": 67,
            "roleCurrent": "receiver",
            "marblesSampled": 100,
            "probRed": 0.5,
            "practiceLambda": 5,
            "trialLambda": 21.9,
            "instructedLambda": "dishonest_big",
            "sd": 8.1,
            "drawnRed": 67,
            "reportedRed": 82,
            "inferredRed": 60,
            "playerTrialScore": -7,
            "oppTrialScore": 0,
            "playerTotalScore": -1224,
            "oppTotalScore": 1062,
            "waitTime": 6728.207257688439,
            "responseTime": 1682320852015,
            "catchQuestion": "How many <b class=\"r\">red<\/b> marbles did your opponent report drawing? ",
            "catchKey": -1,
            "catchResponse": -1,
            "catchTime": 1682320756698,
            "trialTime": 0
        },
        {
            "exptPart": "trial",
            "trialNumber": 68,
            "roleCurrent": "receiver",
            "marblesSampled": 100,
            "probRed": 0.5,
            "practiceLambda": 5,
            "trialLambda": 21.9,
            "instructedLambda": "dishonest_big",
            "sd": 8.1,
            "drawnRed": 75,
            "reportedRed": 87,
            "inferredRed": 80,
            "playerTrialScore": -5,
            "oppTrialScore": 5,
            "playerTotalScore": -1229,
            "oppTotalScore": 1067,
            "waitTime": 6700.134269905844,
            "responseTime": 1682320862335,
            "catchQuestion": "How many <b class=\"r\">red<\/b> marbles did your opponent report drawing? ",
            "catchKey": -1,
            "catchResponse": -1,
            "catchTime": 1682320756698,
            "trialTime": 0
        },
        {
            "exptPart": "trial",
            "trialNumber": 69,
            "roleCurrent": "receiver",
            "marblesSampled": 100,
            "probRed": 0.5,
            "practiceLambda": 5,
            "trialLambda": 21.9,
            "instructedLambda": "dishonest_big",
            "sd": 8.1,
            "drawnRed": 57,
            "reportedRed": 82,
            "inferredRed": 89,
            "playerTrialScore": -32,
            "oppTrialScore": 32,
            "playerTotalScore": -1261,
            "oppTotalScore": 1099,
            "waitTime": 7318.209380735203,
            "responseTime": 1682320877197,
            "catchQuestion": "How many <b class=\"r\">red<\/b> marbles did your opponent report drawing? ",
            "catchKey": -1,
            "catchResponse": -1,
            "catchTime": 1682320756698,
            "trialTime": 0
        },
        {
            "exptPart": "trial",
            "trialNumber": 70,
            "roleCurrent": "receiver",
            "marblesSampled": 100,
            "probRed": 0.5,
            "practiceLambda": 5,
            "trialLambda": 21.9,
            "instructedLambda": "dishonest_big",
            "sd": 8.1,
            "drawnRed": 60,
            "reportedRed": 75,
            "inferredRed": 70,
            "playerTrialScore": -10,
            "oppTrialScore": 10,
            "playerTotalScore": -1271,
            "oppTotalScore": 1109,
            "waitTime": 6720.5394600678865,
            "responseTime": 1682320887095,
            "catchQuestion": "How many <b class=\"r\">red<\/b> marbles did your opponent report drawing? ",
            "catchKey": -1,
            "catchResponse": -1,
            "catchTime": 1682320887095,
            "trialTime": 0
        },
        {
            "exptPart": "trial",
            "trialNumber": 71,
            "roleCurrent": "receiver",
            "marblesSampled": 100,
            "probRed": 0.5,
            "practiceLambda": 5,
            "trialLambda": 21.9,
            "instructedLambda": "dishonest_big",
            "sd": 8.1,
            "drawnRed": 67,
            "reportedRed": 98,
            "inferredRed": 60,
            "playerTrialScore": -7,
            "oppTrialScore": 0,
            "playerTotalScore": -1278,
            "oppTotalScore": 1109,
            "waitTime": 5670.157126542814,
            "responseTime": 1682320898861,
            "catchQuestion": "How many <b class=\"r\">red<\/b> marbles did your opponent report drawing? ",
            "catchKey": -1,
            "catchResponse": -1,
            "catchTime": 1682320887095,
            "trialTime": 0
        },
        {
            "exptPart": "trial",
            "trialNumber": 72,
            "roleCurrent": "receiver",
            "marblesSampled": 100,
            "probRed": 0.5,
            "practiceLambda": 5,
            "trialLambda": 21.9,
            "instructedLambda": "dishonest_big",
            "sd": 8.1,
            "drawnRed": 49,
            "reportedRed": 54,
            "inferredRed": 50,
            "playerTrialScore": -1,
            "oppTrialScore": 1,
            "playerTotalScore": -1279,
            "oppTotalScore": 1110,
            "waitTime": 6411.762465073949,
            "responseTime": 1682320909228,
            "catchQuestion": "How many <b class=\"r\">red<\/b> marbles did your opponent report drawing? ",
            "catchKey": -1,
            "catchResponse": -1,
            "catchTime": 1682320887095,
            "trialTime": 0
        },
        {
            "exptPart": "trial",
            "trialNumber": 73,
            "roleCurrent": "receiver",
            "marblesSampled": 100,
            "probRed": 0.5,
            "practiceLambda": 5,
            "trialLambda": 21.9,
            "instructedLambda": "dishonest_big",
            "sd": 8.1,
            "drawnRed": 54,
            "reportedRed": 67,
            "inferredRed": 70,
            "playerTrialScore": -16,
            "oppTrialScore": 16,
            "playerTotalScore": -1295,
            "oppTotalScore": 1126,
            "waitTime": 6350.428073271967,
            "responseTime": 1682320918619,
            "catchQuestion": "How many <b class=\"r\">red<\/b> marbles did your opponent report drawing? ",
            "catchKey": -1,
            "catchResponse": -1,
            "catchTime": 1682320887095,
            "trialTime": 0
        },
        {
            "exptPart": "trial",
            "trialNumber": 74,
            "roleCurrent": "receiver",
            "marblesSampled": 100,
            "probRed": 0.5,
            "practiceLambda": 5,
            "trialLambda": 21.9,
            "instructedLambda": "dishonest_big",
            "sd": 8.1,
            "drawnRed": 53,
            "reportedRed": 72,
            "inferredRed": 65,
            "playerTrialScore": -12,
            "oppTrialScore": 12,
            "playerTotalScore": -1307,
            "oppTotalScore": 1138,
            "waitTime": 5646.960902260909,
            "responseTime": 1682320927403,
            "catchQuestion": "How many <b class=\"r\">red<\/b> marbles did your opponent report drawing? ",
            "catchKey": -1,
            "catchResponse": -1,
            "catchTime": 1682320887095,
            "trialTime": 0
        },
        {
            "exptPart": "trial",
            "trialNumber": 75,
            "roleCurrent": "receiver",
            "marblesSampled": 100,
            "probRed": 0.5,
            "practiceLambda": 5,
            "trialLambda": 21.9,
            "instructedLambda": "dishonest_big",
            "sd": 8.1,
            "drawnRed": 36,
            "reportedRed": 50,
            "inferredRed": 66,
            "playerTrialScore": -30,
            "oppTrialScore": 30,
            "playerTotalScore": -1337,
            "oppTotalScore": 1168,
            "waitTime": 6525.718592592446,
            "responseTime": 1682320936482,
            "catchQuestion": "How many <b class=\"r\">red<\/b> marbles did your opponent report drawing? ",
            "catchKey": -1,
            "catchResponse": -1,
            "catchTime": 1682320887095,
            "trialTime": 0
        },
        {
            "exptPart": "trial",
            "trialNumber": 76,
            "roleCurrent": "receiver",
            "marblesSampled": 100,
            "probRed": 0.5,
            "practiceLambda": 5,
            "trialLambda": 21.9,
            "instructedLambda": "dishonest_big",
            "sd": 8.1,
            "drawnRed": 77,
            "reportedRed": 100,
            "inferredRed": 60,
            "playerTrialScore": -17,
            "oppTrialScore": 0,
            "playerTotalScore": -1354,
            "oppTotalScore": 1168,
            "waitTime": 6391.269680702384,
            "responseTime": 1682320945091,
            "catchQuestion": "How many <b class=\"r\">red<\/b> marbles did your opponent report drawing? ",
            "catchKey": -1,
            "catchResponse": -1,
            "catchTime": 1682320887095,
            "trialTime": 0
        },
        {
            "exptPart": "trial",
            "trialNumber": 77,
            "roleCurrent": "receiver",
            "marblesSampled": 100,
            "probRed": 0.5,
            "practiceLambda": 5,
            "trialLambda": 21.9,
            "instructedLambda": "dishonest_big",
            "sd": 8.1,
            "drawnRed": 59,
            "reportedRed": 91,
            "inferredRed": 69,
            "playerTrialScore": -10,
            "oppTrialScore": 10,
            "playerTotalScore": -1364,
            "oppTotalScore": 1178,
            "waitTime": 6931.538335851947,
            "responseTime": 1682320955655,
            "catchQuestion": "How many <b class=\"r\">red<\/b> marbles did your opponent report drawing? ",
            "catchKey": -1,
            "catchResponse": -1,
            "catchTime": 1682320887095,
            "trialTime": 0
        },
        {
            "exptPart": "trial",
            "trialNumber": 78,
            "roleCurrent": "receiver",
            "marblesSampled": 100,
            "probRed": 0.5,
            "practiceLambda": 5,
            "trialLambda": 21.9,
            "instructedLambda": "dishonest_big",
            "sd": 8.1,
            "drawnRed": 64,
            "reportedRed": 97,
            "inferredRed": 77,
            "playerTrialScore": -13,
            "oppTrialScore": 13,
            "playerTotalScore": -1377,
            "oppTotalScore": 1191,
            "waitTime": 5922.460961771394,
            "responseTime": 1682320965824,
            "catchQuestion": "How many <b class=\"r\">red<\/b> marbles did your opponent report drawing? ",
            "catchKey": -1,
            "catchResponse": -1,
            "catchTime": 1682320887095,
            "trialTime": 0
        },
        {
            "exptPart": "trial",
            "trialNumber": 79,
            "roleCurrent": "receiver",
            "marblesSampled": 100,
            "probRed": 0.5,
            "practiceLambda": 5,
            "trialLambda": 21.9,
            "instructedLambda": "dishonest_big",
            "sd": 8.1,
            "drawnRed": 76,
            "reportedRed": 100,
            "inferredRed": 60,
            "playerTrialScore": -16,
            "oppTrialScore": 0,
            "playerTotalScore": -1393,
            "oppTotalScore": 1191,
            "waitTime": 6677.375482076621,
            "responseTime": 1682320975766,
            "catchQuestion": "How many <b class=\"r\">red<\/b> marbles did your opponent report drawing? ",
            "catchKey": -1,
            "catchResponse": -1,
            "catchTime": 1682320887095,
            "trialTime": 0
        },
        {
            "exptPart": "trial",
            "trialNumber": 80,
            "roleCurrent": "receiver",
            "marblesSampled": 100,
            "probRed": 0.5,
            "practiceLambda": 5,
            "trialLambda": 21.9,
            "instructedLambda": "dishonest_big",
            "sd": 8.1,
            "drawnRed": 28,
            "reportedRed": 53,
            "inferredRed": 50,
            "playerTrialScore": -22,
            "oppTrialScore": 22,
            "playerTotalScore": -1415,
            "oppTotalScore": 1213,
            "waitTime": 5997.213345207742,
            "responseTime": 1682320985433,
            "catchQuestion": "How many <b class=\"r\">red<\/b> marbles did your opponent report drawing? ",
            "catchKey": -1,
            "catchResponse": -1,
            "catchTime": 1682320985433,
            "trialTime": 0
        },
        {
            "exptPart": "trial",
            "trialNumber": 81,
            "roleCurrent": "receiver",
            "marblesSampled": 100,
            "probRed": 0.5,
            "practiceLambda": 5,
            "trialLambda": 21.9,
            "instructedLambda": "dishonest_big",
            "sd": 8.1,
            "drawnRed": 59,
            "reportedRed": 77,
            "inferredRed": 70,
            "playerTrialScore": -11,
            "oppTrialScore": 11,
            "playerTotalScore": -1426,
            "oppTotalScore": 1224,
            "waitTime": 6237.03401080667,
            "responseTime": 1682320995840,
            "catchQuestion": "How many <b class=\"r\">red<\/b> marbles did your opponent report drawing? ",
            "catchKey": -1,
            "catchResponse": -1,
            "catchTime": 1682320985433,
            "trialTime": 0
        },
        {
            "exptPart": "trial",
            "trialNumber": 82,
            "roleCurrent": "receiver",
            "marblesSampled": 100,
            "probRed": 0.5,
            "practiceLambda": 5,
            "trialLambda": 21.9,
            "instructedLambda": "dishonest_big",
            "sd": 8.1,
            "drawnRed": 18,
            "reportedRed": 38,
            "inferredRed": 45,
            "playerTrialScore": -27,
            "oppTrialScore": 27,
            "playerTotalScore": -1453,
            "oppTotalScore": 1251,
            "waitTime": 7465.779841867929,
            "responseTime": 1682321007485,
            "catchQuestion": "How many <b class=\"r\">red<\/b> marbles did your opponent report drawing? ",
            "catchKey": -1,
            "catchResponse": -1,
            "catchTime": 1682320985433,
            "trialTime": 0
        },
        {
            "exptPart": "trial",
            "trialNumber": 83,
            "roleCurrent": "receiver",
            "marblesSampled": 100,
            "probRed": 0.5,
            "practiceLambda": 5,
            "trialLambda": 21.9,
            "instructedLambda": "dishonest_big",
            "sd": 8.1,
            "drawnRed": 57,
            "reportedRed": 69,
            "inferredRed": 66,
            "playerTrialScore": -9,
            "oppTrialScore": 9,
            "playerTotalScore": -1462,
            "oppTotalScore": 1260,
            "waitTime": 5916.283536965822,
            "responseTime": 1682321016668,
            "catchQuestion": "How many <b class=\"r\">red<\/b> marbles did your opponent report drawing? ",
            "catchKey": -1,
            "catchResponse": -1,
            "catchTime": 1682320985433,
            "trialTime": 0
        },
        {
            "exptPart": "trial",
            "trialNumber": 84,
            "roleCurrent": "receiver",
            "marblesSampled": 100,
            "probRed": 0.5,
            "practiceLambda": 5,
            "trialLambda": 21.9,
            "instructedLambda": "dishonest_big",
            "sd": 8.1,
            "drawnRed": 57,
            "reportedRed": 72,
            "inferredRed": 59,
            "playerTrialScore": -2,
            "oppTrialScore": 2,
            "playerTotalScore": -1464,
            "oppTotalScore": 1262,
            "waitTime": 5450.280442498342,
            "responseTime": 1682321024929,
            "catchQuestion": "How many <b class=\"r\">red<\/b> marbles did your opponent report drawing? ",
            "catchKey": -1,
            "catchResponse": -1,
            "catchTime": 1682320985433,
            "trialTime": 0
        },
        {
            "exptPart": "trial",
            "trialNumber": 85,
            "roleCurrent": "receiver",
            "marblesSampled": 100,
            "probRed": 0.5,
            "practiceLambda": 5,
            "trialLambda": 21.9,
            "instructedLambda": "dishonest_big",
            "sd": 8.1,
            "drawnRed": 70,
            "reportedRed": 97,
            "inferredRed": 66,
            "playerTrialScore": -4,
            "oppTrialScore": 0,
            "playerTotalScore": -1468,
            "oppTotalScore": 1262,
            "waitTime": 5348.0333820098185,
            "responseTime": 1682321032891,
            "catchQuestion": "How many <b class=\"r\">red<\/b> marbles did your opponent report drawing? ",
            "catchKey": -1,
            "catchResponse": -1,
            "catchTime": 1682320985433,
            "trialTime": 0
        },
        {
            "exptPart": "trial",
            "trialNumber": 86,
            "roleCurrent": "receiver",
            "marblesSampled": 100,
            "probRed": 0.5,
            "practiceLambda": 5,
            "trialLambda": 21.9,
            "instructedLambda": "dishonest_big",
            "sd": 8.1,
            "drawnRed": 14,
            "reportedRed": 25,
            "inferredRed": 33,
            "playerTrialScore": -19,
            "oppTrialScore": 19,
            "playerTotalScore": -1487,
            "oppTotalScore": 1281,
            "waitTime": 7244.4440964812975,
            "responseTime": 1682321043009,
            "catchQuestion": "How many <b class=\"r\">red<\/b> marbles did your opponent report drawing? ",
            "catchKey": -1,
            "catchResponse": -1,
            "catchTime": 1682320985433,
            "trialTime": 0
        },
        {
            "exptPart": "trial",
            "trialNumber": 87,
            "roleCurrent": "receiver",
            "marblesSampled": 100,
            "probRed": 0.5,
            "practiceLambda": 5,
            "trialLambda": 21.9,
            "instructedLambda": "dishonest_big",
            "sd": 8.1,
            "drawnRed": 29,
            "reportedRed": 51,
            "inferredRed": 66,
            "playerTrialScore": -37,
            "oppTrialScore": 37,
            "playerTotalScore": -1524,
            "oppTotalScore": 1318,
            "waitTime": 6729.445415479809,
            "responseTime": 1682321053110,
            "catchQuestion": "How many <b class=\"r\">red<\/b> marbles did your opponent report drawing? ",
            "catchKey": -1,
            "catchResponse": -1,
            "catchTime": 1682320985433,
            "trialTime": 0
        },
        {
            "exptPart": "trial",
            "trialNumber": 88,
            "roleCurrent": "receiver",
            "marblesSampled": 100,
            "probRed": 0.5,
            "practiceLambda": 5,
            "trialLambda": 21.9,
            "instructedLambda": "dishonest_big",
            "sd": 8.1,
            "drawnRed": 15,
            "reportedRed": 37,
            "inferredRed": 66,
            "playerTrialScore": -51,
            "oppTrialScore": 51,
            "playerTotalScore": -1575,
            "oppTotalScore": 1369,
            "waitTime": 5735.538720753586,
            "responseTime": 1682321061562,
            "catchQuestion": "How many <b class=\"r\">red<\/b> marbles did your opponent report drawing? ",
            "catchKey": -1,
            "catchResponse": -1,
            "catchTime": 1682320985433,
            "trialTime": 0
        },
        {
            "exptPart": "trial",
            "trialNumber": 89,
            "roleCurrent": "receiver",
            "marblesSampled": 100,
            "probRed": 0.5,
            "practiceLambda": 5,
            "trialLambda": 21.9,
            "instructedLambda": "dishonest_big",
            "sd": 8.1,
            "drawnRed": 26,
            "reportedRed": 48,
            "inferredRed": 44,
            "playerTrialScore": -18,
            "oppTrialScore": 18,
            "playerTotalScore": -1593,
            "oppTotalScore": 1387,
            "waitTime": 6464.252383180175,
            "responseTime": 1682321072811,
            "catchQuestion": "How many <b class=\"r\">red<\/b> marbles did your opponent report drawing? ",
            "catchKey": -1,
            "catchResponse": -1,
            "catchTime": 1682320985433,
            "trialTime": 0
        },
        {
            "exptPart": "trial",
            "trialNumber": 90,
            "roleCurrent": "receiver",
            "marblesSampled": 100,
            "probRed": 0.5,
            "practiceLambda": 5,
            "trialLambda": 21.9,
            "instructedLambda": "dishonest_big",
            "sd": 8.1,
            "drawnRed": 8,
            "reportedRed": 33,
            "inferredRed": 55,
            "playerTrialScore": -47,
            "oppTrialScore": 47,
            "playerTotalScore": -1640,
            "oppTotalScore": 1434,
            "waitTime": 5398.259395068397,
            "responseTime": 1682321082100,
            "catchQuestion": "How many <b class=\"r\">red<\/b> marbles did your opponent report drawing? ",
            "catchKey": -1,
            "catchResponse": -1,
            "catchTime": 1682321082100,
            "trialTime": 0
        },
        {
            "exptPart": "trial",
            "trialNumber": 91,
            "roleCurrent": "receiver",
            "marblesSampled": 100,
            "probRed": 0.5,
            "practiceLambda": 5,
            "trialLambda": 21.9,
            "instructedLambda": "dishonest_big",
            "sd": 8.1,
            "drawnRed": 24,
            "reportedRed": 53,
            "inferredRed": 51,
            "playerTrialScore": -27,
            "oppTrialScore": 27,
            "playerTotalScore": -1667,
            "oppTotalScore": 1461,
            "waitTime": 5528.339095249446,
            "responseTime": 1682321091144,
            "catchQuestion": "How many <b class=\"r\">red<\/b> marbles did your opponent report drawing? ",
            "catchKey": -1,
            "catchResponse": -1,
            "catchTime": 1682321082100,
            "trialTime": 0
        },
        {
            "exptPart": "trial",
            "trialNumber": 92,
            "roleCurrent": "receiver",
            "marblesSampled": 100,
            "probRed": 0.5,
            "practiceLambda": 5,
            "trialLambda": 21.9,
            "instructedLambda": "dishonest_big",
            "sd": 8.1,
            "drawnRed": 54,
            "reportedRed": 61,
            "inferredRed": 55,
            "playerTrialScore": -1,
            "oppTrialScore": 1,
            "playerTotalScore": -1668,
            "oppTotalScore": 1462,
            "waitTime": 5971.579623951591,
            "responseTime": 1682321129960,
            "catchQuestion": "How many <b class=\"r\">red<\/b> marbles did your opponent report drawing? ",
            "catchKey": -1,
            "catchResponse": -1,
            "catchTime": 1682321082100,
            "trialTime": 0
        },
        {
            "exptPart": "trial",
            "trialNumber": 93,
            "roleCurrent": "receiver",
            "marblesSampled": 100,
            "probRed": 0.5,
            "practiceLambda": 5,
            "trialLambda": 21.9,
            "instructedLambda": "dishonest_big",
            "sd": 8.1,
            "drawnRed": 28,
            "reportedRed": 51,
            "inferredRed": 45,
            "playerTrialScore": -17,
            "oppTrialScore": 17,
            "playerTotalScore": -1685,
            "oppTotalScore": 1479,
            "waitTime": 6854.948134162327,
            "responseTime": 1682321139271,
            "catchQuestion": "How many <b class=\"r\">red<\/b> marbles did your opponent report drawing? ",
            "catchKey": -1,
            "catchResponse": -1,
            "catchTime": 1682321082100,
            "trialTime": 0
        },
        {
            "exptPart": "trial",
            "trialNumber": 94,
            "roleCurrent": "receiver",
            "marblesSampled": 100,
            "probRed": 0.5,
            "practiceLambda": 5,
            "trialLambda": 21.9,
            "instructedLambda": "dishonest_big",
            "sd": 8.1,
            "drawnRed": 41,
            "reportedRed": 69,
            "inferredRed": 66,
            "playerTrialScore": -25,
            "oppTrialScore": 25,
            "playerTotalScore": -1710,
            "oppTotalScore": 1504,
            "waitTime": 5999.996772060655,
            "responseTime": 1682321148539,
            "catchQuestion": "How many <b class=\"r\">red<\/b> marbles did your opponent report drawing? ",
            "catchKey": -1,
            "catchResponse": -1,
            "catchTime": 1682321082100,
            "trialTime": 0
        },
        {
            "exptPart": "trial",
            "trialNumber": 95,
            "roleCurrent": "receiver",
            "marblesSampled": 100,
            "probRed": 0.5,
            "practiceLambda": 5,
            "trialLambda": 21.9,
            "instructedLambda": "dishonest_big",
            "sd": 8.1,
            "drawnRed": 44,
            "reportedRed": 67,
            "inferredRed": 63,
            "playerTrialScore": -19,
            "oppTrialScore": 19,
            "playerTotalScore": -1729,
            "oppTotalScore": 1523,
            "waitTime": 7358.120400178916,
            "responseTime": 1682321159745,
            "catchQuestion": "How many <b class=\"r\">red<\/b> marbles did your opponent report drawing? ",
            "catchKey": -1,
            "catchResponse": -1,
            "catchTime": 1682321082100,
            "trialTime": 0
        },
        {
            "exptPart": "trial",
            "trialNumber": 96,
            "roleCurrent": "receiver",
            "marblesSampled": 100,
            "probRed": 0.5,
            "practiceLambda": 5,
            "trialLambda": 21.9,
            "instructedLambda": "dishonest_big",
            "sd": 8.1,
            "drawnRed": 26,
            "reportedRed": 53,
            "inferredRed": 61,
            "playerTrialScore": -35,
            "oppTrialScore": 35,
            "playerTotalScore": -1764,
            "oppTotalScore": 1558,
            "waitTime": 5867.770736674403,
            "responseTime": 1682321168520,
            "catchQuestion": "How many <b class=\"r\">red<\/b> marbles did your opponent report drawing? ",
            "catchKey": -1,
            "catchResponse": -1,
            "catchTime": 1682321082100,
            "trialTime": 0
        },
        {
            "exptPart": "trial",
            "trialNumber": 97,
            "roleCurrent": "receiver",
            "marblesSampled": 100,
            "probRed": 0.5,
            "practiceLambda": 5,
            "trialLambda": 21.9,
            "instructedLambda": "dishonest_big",
            "sd": 8.1,
            "drawnRed": 38,
            "reportedRed": 69,
            "inferredRed": 66,
            "playerTrialScore": -28,
            "oppTrialScore": 28,
            "playerTotalScore": -1792,
            "oppTotalScore": 1586,
            "waitTime": 5791.414504012415,
            "responseTime": 1682321178107,
            "catchQuestion": "How many <b class=\"r\">red<\/b> marbles did your opponent report drawing? ",
            "catchKey": -1,
            "catchResponse": -1,
            "catchTime": 1682321082100,
            "trialTime": 0
        },
        {
            "exptPart": "trial",
            "trialNumber": 98,
            "roleCurrent": "receiver",
            "marblesSampled": 100,
            "probRed": 0.5,
            "practiceLambda": 5,
            "trialLambda": 21.9,
            "instructedLambda": "dishonest_big",
            "sd": 8.1,
            "drawnRed": 26,
            "reportedRed": 52,
            "inferredRed": 49,
            "playerTrialScore": -23,
            "oppTrialScore": 23,
            "playerTotalScore": -1815,
            "oppTotalScore": 1609,
            "waitTime": 6437.080896807571,
            "responseTime": 1682321191137,
            "catchQuestion": "How many <b class=\"r\">red<\/b> marbles did your opponent report drawing? ",
            "catchKey": -1,
            "catchResponse": -1,
            "catchTime": 1682321082100,
            "trialTime": 0
        },
        {
            "exptPart": "trial",
            "trialNumber": 99,
            "roleCurrent": "receiver",
            "marblesSampled": 100,
            "probRed": 0.5,
            "practiceLambda": 5,
            "trialLambda": 21.9,
            "instructedLambda": "dishonest_big",
            "sd": 8.1,
            "drawnRed": 56,
            "reportedRed": 87,
            "inferredRed": 71,
            "playerTrialScore": -15,
            "oppTrialScore": 15,
            "playerTotalScore": -1830,
            "oppTotalScore": 1624,
            "waitTime": 6257.061067857729,
            "responseTime": 1682321200284,
            "catchQuestion": "How many <b class=\"r\">red<\/b> marbles did your opponent report drawing? ",
            "catchKey": -1,
            "catchResponse": -1,
            "catchTime": 1682321082100,
            "trialTime": 0
        },
        {
            "exptPart": "trial",
            "trialNumber": 100,
            "roleCurrent": "receiver",
            "marblesSampled": 100,
            "probRed": 0.5,
            "practiceLambda": 5,
            "trialLambda": 21.9,
            "instructedLambda": "dishonest_big",
            "sd": 8.1,
            "drawnRed": 36,
            "reportedRed": 72,
            "inferredRed": 66,
            "playerTrialScore": -30,
            "oppTrialScore": 30,
            "playerTotalScore": -1860,
            "oppTotalScore": 1654,
            "waitTime": 5558.817733152185,
            "responseTime": 1682321208457,
            "catchQuestion": "How many <b class=\"r\">red<\/b> marbles did your opponent report drawing? ",
            "catchKey": 72,
            "catchResponse": 77,
            "catchTime": 1682321208458,
            "trialTime": 0
        }
    ]
}