{
    "client": {
        "type": "sona",
        "experiment_id": 2228,
        "credit_token": "b315147ae43241ea9c65086cb510cfb7",
        "survey_code": "47676",
        "sid": "sona-47676",
        "window": {
            "width": 917,
            "height": 789
        },
        "screen": {
            "width": 1440,
            "height": 900
        },
        "userAgent": "Mozilla\/5.0 (Macintosh; Intel Mac OS X 10_15_7) AppleWebKit\/537.36 (KHTML, like Gecko) Chrome\/108.0.0.0 Safari\/537.36",
        "score": 0,
        "bonus": 0
    },
    "expt": {
        "saveURL": "submit.simple.php",
        "trials": 100,
        "practiceTrials": 2,
        "marblesSampled": 100,
        "probRed": 0.5,
        "practiceLambdaAI": 5,
        "lambdaAI": 21.9,
        "sd": 8.1,
        "roles": [
            "sender",
            "receiver"
        ],
        "cost": "unif",
        "goal": "over",
        "oppDishonesty": "honest",
        "catchTrials": [
            51,
            88,
            19,
            45,
            95,
            61,
            80,
            83,
            41,
            84
        ],
        "scoreTotal": {
            "player": -1702,
            "opp": 361
        },
        "sona": {
            "experiment_id": 2228,
            "credit_token": "b315147ae43241ea9c65086cb510cfb7"
        },
        "pilot": false,
        "debug": false
    },
    "trials": [
        {
            "exptPart": "practice",
            "trialNumber": 1,
            "roleCurrent": "sender",
            "marblesSampled": 100,
            "probRed": 0.5,
            "practiceLambda": 5,
            "trialLambda": 21.9,
            "instructedLambda": "honest",
            "sd": 8.1,
            "drawnRed": 81,
            "reportedRed": 95,
            "inferredRed": 100,
            "playerTrialScore": 19,
            "oppTrialScore": -19,
            "playerTotalScore": 19,
            "oppTotalScore": -19,
            "waitTime": 2569.44952097188,
            "responseTime": 1682387612968,
            "catchQuestion": "How many <b class=\"r\">red<\/b> marbles did you actually draw (before any changes)? ",
            "catchKey": 81,
            "catchResponse": 81,
            "catchTime": 1682387612969,
            "trialTime": 0
        },
        {
            "exptPart": "practice",
            "trialNumber": 2,
            "roleCurrent": "receiver",
            "marblesSampled": 100,
            "probRed": 0.5,
            "practiceLambda": 5,
            "trialLambda": 21.9,
            "instructedLambda": "honest",
            "sd": 8.1,
            "drawnRed": 39,
            "reportedRed": 57,
            "inferredRed": 31,
            "playerTrialScore": -8,
            "oppTrialScore": 0,
            "playerTotalScore": 11,
            "oppTotalScore": -19,
            "waitTime": 5663.861915470203,
            "responseTime": 1682387652452,
            "catchQuestion": "How many <b class=\"r\">red<\/b> marbles did your opponent report drawing? ",
            "catchKey": 57,
            "catchResponse": 57,
            "catchTime": 1682387652452,
            "trialTime": 0
        },
        {
            "exptPart": "trial",
            "trialNumber": 1,
            "roleCurrent": "receiver",
            "marblesSampled": 100,
            "probRed": 0.5,
            "practiceLambda": 5,
            "trialLambda": 21.9,
            "instructedLambda": "honest",
            "sd": 8.1,
            "drawnRed": 42,
            "reportedRed": 65,
            "inferredRed": 52,
            "playerTrialScore": -10,
            "oppTrialScore": 10,
            "playerTotalScore": -10,
            "oppTotalScore": 10,
            "waitTime": 5180.125604990219,
            "responseTime": 1682387695363,
            "catchQuestion": "How many <b class=\"r\">red<\/b> marbles did your opponent report drawing? ",
            "catchKey": -1,
            "catchResponse": -1,
            "catchTime": 1682387652452,
            "trialTime": 0
        },
        {
            "exptPart": "trial",
            "trialNumber": 2,
            "roleCurrent": "receiver",
            "marblesSampled": 100,
            "probRed": 0.5,
            "practiceLambda": 5,
            "trialLambda": 21.9,
            "instructedLambda": "honest",
            "sd": 8.1,
            "drawnRed": 84,
            "reportedRed": 99,
            "inferredRed": 80,
            "playerTrialScore": -4,
            "oppTrialScore": 0,
            "playerTotalScore": -14,
            "oppTotalScore": 10,
            "waitTime": 6930.36046086263,
            "responseTime": 1682387722645,
            "catchQuestion": "How many <b class=\"r\">red<\/b> marbles did your opponent report drawing? ",
            "catchKey": -1,
            "catchResponse": -1,
            "catchTime": 1682387652452,
            "trialTime": 0
        },
        {
            "exptPart": "trial",
            "trialNumber": 3,
            "roleCurrent": "receiver",
            "marblesSampled": 100,
            "probRed": 0.5,
            "practiceLambda": 5,
            "trialLambda": 21.9,
            "instructedLambda": "honest",
            "sd": 8.1,
            "drawnRed": 85,
            "reportedRed": 100,
            "inferredRed": 90,
            "playerTrialScore": -5,
            "oppTrialScore": 5,
            "playerTotalScore": -19,
            "oppTotalScore": 15,
            "waitTime": 6170.823831795732,
            "responseTime": 1682387734182,
            "catchQuestion": "How many <b class=\"r\">red<\/b> marbles did your opponent report drawing? ",
            "catchKey": -1,
            "catchResponse": -1,
            "catchTime": 1682387652452,
            "trialTime": 0
        },
        {
            "exptPart": "trial",
            "trialNumber": 4,
            "roleCurrent": "receiver",
            "marblesSampled": 100,
            "probRed": 0.5,
            "practiceLambda": 5,
            "trialLambda": 21.9,
            "instructedLambda": "honest",
            "sd": 8.1,
            "drawnRed": 73,
            "reportedRed": 83,
            "inferredRed": 72,
            "playerTrialScore": -1,
            "oppTrialScore": 0,
            "playerTotalScore": -20,
            "oppTotalScore": 15,
            "waitTime": 5708.793223972009,
            "responseTime": 1682387749066,
            "catchQuestion": "How many <b class=\"r\">red<\/b> marbles did your opponent report drawing? ",
            "catchKey": -1,
            "catchResponse": -1,
            "catchTime": 1682387652452,
            "trialTime": 0
        },
        {
            "exptPart": "trial",
            "trialNumber": 5,
            "roleCurrent": "receiver",
            "marblesSampled": 100,
            "probRed": 0.5,
            "practiceLambda": 5,
            "trialLambda": 21.9,
            "instructedLambda": "honest",
            "sd": 8.1,
            "drawnRed": 16,
            "reportedRed": 46,
            "inferredRed": 39,
            "playerTrialScore": -23,
            "oppTrialScore": 23,
            "playerTotalScore": -43,
            "oppTotalScore": 38,
            "waitTime": 6205.254570273733,
            "responseTime": 1682387765431,
            "catchQuestion": "How many <b class=\"r\">red<\/b> marbles did your opponent report drawing? ",
            "catchKey": -1,
            "catchResponse": -1,
            "catchTime": 1682387652452,
            "trialTime": 0
        },
        {
            "exptPart": "trial",
            "trialNumber": 6,
            "roleCurrent": "receiver",
            "marblesSampled": 100,
            "probRed": 0.5,
            "practiceLambda": 5,
            "trialLambda": 21.9,
            "instructedLambda": "honest",
            "sd": 8.1,
            "drawnRed": 45,
            "reportedRed": 60,
            "inferredRed": 51,
            "playerTrialScore": -6,
            "oppTrialScore": 6,
            "playerTotalScore": -49,
            "oppTotalScore": 44,
            "waitTime": 6669.869368831336,
            "responseTime": 1682387778549,
            "catchQuestion": "How many <b class=\"r\">red<\/b> marbles did your opponent report drawing? ",
            "catchKey": -1,
            "catchResponse": -1,
            "catchTime": 1682387652452,
            "trialTime": 0
        },
        {
            "exptPart": "trial",
            "trialNumber": 7,
            "roleCurrent": "receiver",
            "marblesSampled": 100,
            "probRed": 0.5,
            "practiceLambda": 5,
            "trialLambda": 21.9,
            "instructedLambda": "honest",
            "sd": 8.1,
            "drawnRed": 81,
            "reportedRed": 94,
            "inferredRed": 76,
            "playerTrialScore": -5,
            "oppTrialScore": 0,
            "playerTotalScore": -54,
            "oppTotalScore": 44,
            "waitTime": 5435.702583364307,
            "responseTime": 1682387792986,
            "catchQuestion": "How many <b class=\"r\">red<\/b> marbles did your opponent report drawing? ",
            "catchKey": -1,
            "catchResponse": -1,
            "catchTime": 1682387652452,
            "trialTime": 0
        },
        {
            "exptPart": "trial",
            "trialNumber": 8,
            "roleCurrent": "receiver",
            "marblesSampled": 100,
            "probRed": 0.5,
            "practiceLambda": 5,
            "trialLambda": 21.9,
            "instructedLambda": "honest",
            "sd": 8.1,
            "drawnRed": 70,
            "reportedRed": 86,
            "inferredRed": 86,
            "playerTrialScore": -16,
            "oppTrialScore": 16,
            "playerTotalScore": -70,
            "oppTotalScore": 60,
            "waitTime": 7376.258465786871,
            "responseTime": 1682387805147,
            "catchQuestion": "How many <b class=\"r\">red<\/b> marbles did your opponent report drawing? ",
            "catchKey": -1,
            "catchResponse": -1,
            "catchTime": 1682387652452,
            "trialTime": 0
        },
        {
            "exptPart": "trial",
            "trialNumber": 9,
            "roleCurrent": "receiver",
            "marblesSampled": 100,
            "probRed": 0.5,
            "practiceLambda": 5,
            "trialLambda": 21.9,
            "instructedLambda": "honest",
            "sd": 8.1,
            "drawnRed": 45,
            "reportedRed": 79,
            "inferredRed": 69,
            "playerTrialScore": -24,
            "oppTrialScore": 24,
            "playerTotalScore": -94,
            "oppTotalScore": 84,
            "waitTime": 7404.881411553319,
            "responseTime": 1682387816517,
            "catchQuestion": "How many <b class=\"r\">red<\/b> marbles did your opponent report drawing? ",
            "catchKey": -1,
            "catchResponse": -1,
            "catchTime": 1682387652452,
            "trialTime": 0
        },
        {
            "exptPart": "trial",
            "trialNumber": 10,
            "roleCurrent": "receiver",
            "marblesSampled": 100,
            "probRed": 0.5,
            "practiceLambda": 5,
            "trialLambda": 21.9,
            "instructedLambda": "honest",
            "sd": 8.1,
            "drawnRed": 64,
            "reportedRed": 82,
            "inferredRed": 70,
            "playerTrialScore": -6,
            "oppTrialScore": 6,
            "playerTotalScore": -100,
            "oppTotalScore": 90,
            "waitTime": 7339.703406440476,
            "responseTime": 1682387832405,
            "catchQuestion": "How many <b class=\"r\">red<\/b> marbles did your opponent report drawing? ",
            "catchKey": -1,
            "catchResponse": -1,
            "catchTime": 1682387832405,
            "trialTime": 0
        },
        {
            "exptPart": "trial",
            "trialNumber": 11,
            "roleCurrent": "receiver",
            "marblesSampled": 100,
            "probRed": 0.5,
            "practiceLambda": 5,
            "trialLambda": 21.9,
            "instructedLambda": "honest",
            "sd": 8.1,
            "drawnRed": 55,
            "reportedRed": 96,
            "inferredRed": 60,
            "playerTrialScore": -5,
            "oppTrialScore": 5,
            "playerTotalScore": -105,
            "oppTotalScore": 95,
            "waitTime": 5170.300568156286,
            "responseTime": 1682387855501,
            "catchQuestion": "How many <b class=\"r\">red<\/b> marbles did your opponent report drawing? ",
            "catchKey": -1,
            "catchResponse": -1,
            "catchTime": 1682387832405,
            "trialTime": 0
        },
        {
            "exptPart": "trial",
            "trialNumber": 12,
            "roleCurrent": "receiver",
            "marblesSampled": 100,
            "probRed": 0.5,
            "practiceLambda": 5,
            "trialLambda": 21.9,
            "instructedLambda": "honest",
            "sd": 8.1,
            "drawnRed": 30,
            "reportedRed": 52,
            "inferredRed": 43,
            "playerTrialScore": -13,
            "oppTrialScore": 13,
            "playerTotalScore": -118,
            "oppTotalScore": 108,
            "waitTime": 6878.163312303184,
            "responseTime": 1682387867366,
            "catchQuestion": "How many <b class=\"r\">red<\/b> marbles did your opponent report drawing? ",
            "catchKey": -1,
            "catchResponse": -1,
            "catchTime": 1682387832405,
            "trialTime": 0
        },
        {
            "exptPart": "trial",
            "trialNumber": 13,
            "roleCurrent": "receiver",
            "marblesSampled": 100,
            "probRed": 0.5,
            "practiceLambda": 5,
            "trialLambda": 21.9,
            "instructedLambda": "honest",
            "sd": 8.1,
            "drawnRed": 60,
            "reportedRed": 64,
            "inferredRed": 48,
            "playerTrialScore": -12,
            "oppTrialScore": 0,
            "playerTotalScore": -130,
            "oppTotalScore": 108,
            "waitTime": 6985.8609916132245,
            "responseTime": 1682387878029,
            "catchQuestion": "How many <b class=\"r\">red<\/b> marbles did your opponent report drawing? ",
            "catchKey": -1,
            "catchResponse": -1,
            "catchTime": 1682387832405,
            "trialTime": 0
        },
        {
            "exptPart": "trial",
            "trialNumber": 14,
            "roleCurrent": "receiver",
            "marblesSampled": 100,
            "probRed": 0.5,
            "practiceLambda": 5,
            "trialLambda": 21.9,
            "instructedLambda": "honest",
            "sd": 8.1,
            "drawnRed": 65,
            "reportedRed": 92,
            "inferredRed": 53,
            "playerTrialScore": -12,
            "oppTrialScore": 0,
            "playerTotalScore": -142,
            "oppTotalScore": 108,
            "waitTime": 5475.982266345954,
            "responseTime": 1682387889084,
            "catchQuestion": "How many <b class=\"r\">red<\/b> marbles did your opponent report drawing? ",
            "catchKey": -1,
            "catchResponse": -1,
            "catchTime": 1682387832405,
            "trialTime": 0
        },
        {
            "exptPart": "trial",
            "trialNumber": 15,
            "roleCurrent": "receiver",
            "marblesSampled": 100,
            "probRed": 0.5,
            "practiceLambda": 5,
            "trialLambda": 21.9,
            "instructedLambda": "honest",
            "sd": 8.1,
            "drawnRed": 42,
            "reportedRed": 61,
            "inferredRed": 48,
            "playerTrialScore": -6,
            "oppTrialScore": 6,
            "playerTotalScore": -148,
            "oppTotalScore": 114,
            "waitTime": 6298.614203636296,
            "responseTime": 1682387899967,
            "catchQuestion": "How many <b class=\"r\">red<\/b> marbles did your opponent report drawing? ",
            "catchKey": -1,
            "catchResponse": -1,
            "catchTime": 1682387832405,
            "trialTime": 0
        },
        {
            "exptPart": "trial",
            "trialNumber": 16,
            "roleCurrent": "receiver",
            "marblesSampled": 100,
            "probRed": 0.5,
            "practiceLambda": 5,
            "trialLambda": 21.9,
            "instructedLambda": "honest",
            "sd": 8.1,
            "drawnRed": 56,
            "reportedRed": 64,
            "inferredRed": 51,
            "playerTrialScore": -5,
            "oppTrialScore": 0,
            "playerTotalScore": -153,
            "oppTotalScore": 114,
            "waitTime": 5387.29069107042,
            "responseTime": 1682387911657,
            "catchQuestion": "How many <b class=\"r\">red<\/b> marbles did your opponent report drawing? ",
            "catchKey": -1,
            "catchResponse": -1,
            "catchTime": 1682387832405,
            "trialTime": 0
        },
        {
            "exptPart": "trial",
            "trialNumber": 17,
            "roleCurrent": "receiver",
            "marblesSampled": 100,
            "probRed": 0.5,
            "practiceLambda": 5,
            "trialLambda": 21.9,
            "instructedLambda": "honest",
            "sd": 8.1,
            "drawnRed": 74,
            "reportedRed": 91,
            "inferredRed": 54,
            "playerTrialScore": -20,
            "oppTrialScore": 0,
            "playerTotalScore": -173,
            "oppTotalScore": 114,
            "waitTime": 5299.223324905901,
            "responseTime": 1682387920619,
            "catchQuestion": "How many <b class=\"r\">red<\/b> marbles did your opponent report drawing? ",
            "catchKey": -1,
            "catchResponse": -1,
            "catchTime": 1682387832405,
            "trialTime": 0
        },
        {
            "exptPart": "trial",
            "trialNumber": 18,
            "roleCurrent": "receiver",
            "marblesSampled": 100,
            "probRed": 0.5,
            "practiceLambda": 5,
            "trialLambda": 21.9,
            "instructedLambda": "honest",
            "sd": 8.1,
            "drawnRed": 84,
            "reportedRed": 100,
            "inferredRed": 58,
            "playerTrialScore": -26,
            "oppTrialScore": 0,
            "playerTotalScore": -199,
            "oppTotalScore": 114,
            "waitTime": 5347.329593707102,
            "responseTime": 1682387933901,
            "catchQuestion": "How many <b class=\"r\">red<\/b> marbles did your opponent report drawing? ",
            "catchKey": -1,
            "catchResponse": -1,
            "catchTime": 1682387832405,
            "trialTime": 0
        },
        {
            "exptPart": "trial",
            "trialNumber": 19,
            "roleCurrent": "receiver",
            "marblesSampled": 100,
            "probRed": 0.5,
            "practiceLambda": 5,
            "trialLambda": 21.9,
            "instructedLambda": "honest",
            "sd": 8.1,
            "drawnRed": 55,
            "reportedRed": 67,
            "inferredRed": 53,
            "playerTrialScore": -2,
            "oppTrialScore": 0,
            "playerTotalScore": -201,
            "oppTotalScore": 114,
            "waitTime": 6620.3339578379055,
            "responseTime": 1682387943761,
            "catchQuestion": "How many <b class=\"r\">red<\/b> marbles did your opponent report drawing? ",
            "catchKey": -1,
            "catchResponse": -1,
            "catchTime": 1682387832405,
            "trialTime": 0
        },
        {
            "exptPart": "trial",
            "trialNumber": 20,
            "roleCurrent": "receiver",
            "marblesSampled": 100,
            "probRed": 0.5,
            "practiceLambda": 5,
            "trialLambda": 21.9,
            "instructedLambda": "honest",
            "sd": 8.1,
            "drawnRed": 36,
            "reportedRed": 45,
            "inferredRed": 39,
            "playerTrialScore": -3,
            "oppTrialScore": 3,
            "playerTotalScore": -204,
            "oppTotalScore": 117,
            "waitTime": 6235.164702139814,
            "responseTime": 1682387958919,
            "catchQuestion": "How many <b class=\"r\">red<\/b> marbles did your opponent report drawing? ",
            "catchKey": 45,
            "catchResponse": 45,
            "catchTime": 1682387958919,
            "trialTime": 0
        },
        {
            "exptPart": "trial",
            "trialNumber": 21,
            "roleCurrent": "receiver",
            "marblesSampled": 100,
            "probRed": 0.5,
            "practiceLambda": 5,
            "trialLambda": 21.9,
            "instructedLambda": "honest",
            "sd": 8.1,
            "drawnRed": 64,
            "reportedRed": 81,
            "inferredRed": 30,
            "playerTrialScore": -34,
            "oppTrialScore": 0,
            "playerTotalScore": -238,
            "oppTotalScore": 117,
            "waitTime": 5942.243703064478,
            "responseTime": 1682387982368,
            "catchQuestion": "How many <b class=\"r\">red<\/b> marbles did your opponent report drawing? ",
            "catchKey": -1,
            "catchResponse": -1,
            "catchTime": 1682387958919,
            "trialTime": 0
        },
        {
            "exptPart": "trial",
            "trialNumber": 22,
            "roleCurrent": "receiver",
            "marblesSampled": 100,
            "probRed": 0.5,
            "practiceLambda": 5,
            "trialLambda": 21.9,
            "instructedLambda": "honest",
            "sd": 8.1,
            "drawnRed": 26,
            "reportedRed": 57,
            "inferredRed": 28,
            "playerTrialScore": -2,
            "oppTrialScore": 2,
            "playerTotalScore": -240,
            "oppTotalScore": 119,
            "waitTime": 6705.266458132444,
            "responseTime": 1682388015432,
            "catchQuestion": "How many <b class=\"r\">red<\/b> marbles did your opponent report drawing? ",
            "catchKey": -1,
            "catchResponse": -1,
            "catchTime": 1682387958919,
            "trialTime": 0
        },
        {
            "exptPart": "trial",
            "trialNumber": 23,
            "roleCurrent": "receiver",
            "marblesSampled": 100,
            "probRed": 0.5,
            "practiceLambda": 5,
            "trialLambda": 21.9,
            "instructedLambda": "honest",
            "sd": 8.1,
            "drawnRed": 66,
            "reportedRed": 100,
            "inferredRed": 32,
            "playerTrialScore": -34,
            "oppTrialScore": 0,
            "playerTotalScore": -274,
            "oppTotalScore": 119,
            "waitTime": 5496.667759052217,
            "responseTime": 1682388029998,
            "catchQuestion": "How many <b class=\"r\">red<\/b> marbles did your opponent report drawing? ",
            "catchKey": -1,
            "catchResponse": -1,
            "catchTime": 1682387958919,
            "trialTime": 0
        },
        {
            "exptPart": "trial",
            "trialNumber": 24,
            "roleCurrent": "receiver",
            "marblesSampled": 100,
            "probRed": 0.5,
            "practiceLambda": 5,
            "trialLambda": 21.9,
            "instructedLambda": "honest",
            "sd": 8.1,
            "drawnRed": 60,
            "reportedRed": 84,
            "inferredRed": 30,
            "playerTrialScore": -30,
            "oppTrialScore": 0,
            "playerTotalScore": -304,
            "oppTotalScore": 119,
            "waitTime": 6388.753115866553,
            "responseTime": 1682388051802,
            "catchQuestion": "How many <b class=\"r\">red<\/b> marbles did your opponent report drawing? ",
            "catchKey": -1,
            "catchResponse": -1,
            "catchTime": 1682387958919,
            "trialTime": 0
        },
        {
            "exptPart": "trial",
            "trialNumber": 25,
            "roleCurrent": "receiver",
            "marblesSampled": 100,
            "probRed": 0.5,
            "practiceLambda": 5,
            "trialLambda": 21.9,
            "instructedLambda": "honest",
            "sd": 8.1,
            "drawnRed": 31,
            "reportedRed": 51,
            "inferredRed": 20,
            "playerTrialScore": -11,
            "oppTrialScore": 0,
            "playerTotalScore": -315,
            "oppTotalScore": 119,
            "waitTime": 5767.9543330226115,
            "responseTime": 1682388061584,
            "catchQuestion": "How many <b class=\"r\">red<\/b> marbles did your opponent report drawing? ",
            "catchKey": -1,
            "catchResponse": -1,
            "catchTime": 1682387958919,
            "trialTime": 0
        },
        {
            "exptPart": "trial",
            "trialNumber": 26,
            "roleCurrent": "receiver",
            "marblesSampled": 100,
            "probRed": 0.5,
            "practiceLambda": 5,
            "trialLambda": 21.9,
            "instructedLambda": "honest",
            "sd": 8.1,
            "drawnRed": 47,
            "reportedRed": 67,
            "inferredRed": 32,
            "playerTrialScore": -15,
            "oppTrialScore": 0,
            "playerTotalScore": -330,
            "oppTotalScore": 119,
            "waitTime": 5243.372857335351,
            "responseTime": 1682388074116,
            "catchQuestion": "How many <b class=\"r\">red<\/b> marbles did your opponent report drawing? ",
            "catchKey": -1,
            "catchResponse": -1,
            "catchTime": 1682387958919,
            "trialTime": 0
        },
        {
            "exptPart": "trial",
            "trialNumber": 27,
            "roleCurrent": "receiver",
            "marblesSampled": 100,
            "probRed": 0.5,
            "practiceLambda": 5,
            "trialLambda": 21.9,
            "instructedLambda": "honest",
            "sd": 8.1,
            "drawnRed": 30,
            "reportedRed": 56,
            "inferredRed": 32,
            "playerTrialScore": -2,
            "oppTrialScore": 2,
            "playerTotalScore": -332,
            "oppTotalScore": 121,
            "waitTime": 6810.550953654329,
            "responseTime": 1682388085786,
            "catchQuestion": "How many <b class=\"r\">red<\/b> marbles did your opponent report drawing? ",
            "catchKey": -1,
            "catchResponse": -1,
            "catchTime": 1682387958919,
            "trialTime": 0
        },
        {
            "exptPart": "trial",
            "trialNumber": 28,
            "roleCurrent": "receiver",
            "marblesSampled": 100,
            "probRed": 0.5,
            "practiceLambda": 5,
            "trialLambda": 21.9,
            "instructedLambda": "honest",
            "sd": 8.1,
            "drawnRed": 51,
            "reportedRed": 68,
            "inferredRed": 31,
            "playerTrialScore": -20,
            "oppTrialScore": 0,
            "playerTotalScore": -352,
            "oppTotalScore": 121,
            "waitTime": 5190.646536880849,
            "responseTime": 1682388094601,
            "catchQuestion": "How many <b class=\"r\">red<\/b> marbles did your opponent report drawing? ",
            "catchKey": -1,
            "catchResponse": -1,
            "catchTime": 1682387958919,
            "trialTime": 0
        },
        {
            "exptPart": "trial",
            "trialNumber": 29,
            "roleCurrent": "receiver",
            "marblesSampled": 100,
            "probRed": 0.5,
            "practiceLambda": 5,
            "trialLambda": 21.9,
            "instructedLambda": "honest",
            "sd": 8.1,
            "drawnRed": 30,
            "reportedRed": 48,
            "inferredRed": 29,
            "playerTrialScore": -1,
            "oppTrialScore": 0,
            "playerTotalScore": -353,
            "oppTotalScore": 121,
            "waitTime": 7405.438467377382,
            "responseTime": 1682388107182,
            "catchQuestion": "How many <b class=\"r\">red<\/b> marbles did your opponent report drawing? ",
            "catchKey": -1,
            "catchResponse": -1,
            "catchTime": 1682387958919,
            "trialTime": 0
        },
        {
            "exptPart": "trial",
            "trialNumber": 30,
            "roleCurrent": "receiver",
            "marblesSampled": 100,
            "probRed": 0.5,
            "practiceLambda": 5,
            "trialLambda": 21.9,
            "instructedLambda": "honest",
            "sd": 8.1,
            "drawnRed": 39,
            "reportedRed": 67,
            "inferredRed": 34,
            "playerTrialScore": -5,
            "oppTrialScore": 0,
            "playerTotalScore": -358,
            "oppTotalScore": 121,
            "waitTime": 6882.544482016892,
            "responseTime": 1682388118111,
            "catchQuestion": "How many <b class=\"r\">red<\/b> marbles did your opponent report drawing? ",
            "catchKey": -1,
            "catchResponse": -1,
            "catchTime": 1682388118111,
            "trialTime": 0
        },
        {
            "exptPart": "trial",
            "trialNumber": 31,
            "roleCurrent": "receiver",
            "marblesSampled": 100,
            "probRed": 0.5,
            "practiceLambda": 5,
            "trialLambda": 21.9,
            "instructedLambda": "honest",
            "sd": 8.1,
            "drawnRed": 24,
            "reportedRed": 34,
            "inferredRed": 33,
            "playerTrialScore": -9,
            "oppTrialScore": 9,
            "playerTotalScore": -367,
            "oppTotalScore": 130,
            "waitTime": 6500.222640613516,
            "responseTime": 1682388140312,
            "catchQuestion": "How many <b class=\"r\">red<\/b> marbles did your opponent report drawing? ",
            "catchKey": -1,
            "catchResponse": -1,
            "catchTime": 1682388118111,
            "trialTime": 0
        },
        {
            "exptPart": "trial",
            "trialNumber": 32,
            "roleCurrent": "receiver",
            "marblesSampled": 100,
            "probRed": 0.5,
            "practiceLambda": 5,
            "trialLambda": 21.9,
            "instructedLambda": "honest",
            "sd": 8.1,
            "drawnRed": 69,
            "reportedRed": 94,
            "inferredRed": 86,
            "playerTrialScore": -17,
            "oppTrialScore": 17,
            "playerTotalScore": -384,
            "oppTotalScore": 147,
            "waitTime": 6299.882634851433,
            "responseTime": 1682388155710,
            "catchQuestion": "How many <b class=\"r\">red<\/b> marbles did your opponent report drawing? ",
            "catchKey": -1,
            "catchResponse": -1,
            "catchTime": 1682388118111,
            "trialTime": 0
        },
        {
            "exptPart": "trial",
            "trialNumber": 33,
            "roleCurrent": "receiver",
            "marblesSampled": 100,
            "probRed": 0.5,
            "practiceLambda": 5,
            "trialLambda": 21.9,
            "instructedLambda": "honest",
            "sd": 8.1,
            "drawnRed": 67,
            "reportedRed": 85,
            "inferredRed": 69,
            "playerTrialScore": -2,
            "oppTrialScore": 2,
            "playerTotalScore": -386,
            "oppTotalScore": 149,
            "waitTime": 5541.007633752289,
            "responseTime": 1682388165936,
            "catchQuestion": "How many <b class=\"r\">red<\/b> marbles did your opponent report drawing? ",
            "catchKey": -1,
            "catchResponse": -1,
            "catchTime": 1682388118111,
            "trialTime": 0
        },
        {
            "exptPart": "trial",
            "trialNumber": 34,
            "roleCurrent": "receiver",
            "marblesSampled": 100,
            "probRed": 0.5,
            "practiceLambda": 5,
            "trialLambda": 21.9,
            "instructedLambda": "honest",
            "sd": 8.1,
            "drawnRed": 57,
            "reportedRed": 81,
            "inferredRed": 70,
            "playerTrialScore": -13,
            "oppTrialScore": 13,
            "playerTotalScore": -399,
            "oppTotalScore": 162,
            "waitTime": 6239.95598449881,
            "responseTime": 1682388184880,
            "catchQuestion": "How many <b class=\"r\">red<\/b> marbles did your opponent report drawing? ",
            "catchKey": -1,
            "catchResponse": -1,
            "catchTime": 1682388118111,
            "trialTime": 0
        },
        {
            "exptPart": "trial",
            "trialNumber": 35,
            "roleCurrent": "receiver",
            "marblesSampled": 100,
            "probRed": 0.5,
            "practiceLambda": 5,
            "trialLambda": 21.9,
            "instructedLambda": "honest",
            "sd": 8.1,
            "drawnRed": 67,
            "reportedRed": 80,
            "inferredRed": 59,
            "playerTrialScore": -8,
            "oppTrialScore": 0,
            "playerTotalScore": -407,
            "oppTotalScore": 162,
            "waitTime": 6834.221760192812,
            "responseTime": 1682388198602,
            "catchQuestion": "How many <b class=\"r\">red<\/b> marbles did your opponent report drawing? ",
            "catchKey": -1,
            "catchResponse": -1,
            "catchTime": 1682388118111,
            "trialTime": 0
        },
        {
            "exptPart": "trial",
            "trialNumber": 36,
            "roleCurrent": "receiver",
            "marblesSampled": 100,
            "probRed": 0.5,
            "practiceLambda": 5,
            "trialLambda": 21.9,
            "instructedLambda": "honest",
            "sd": 8.1,
            "drawnRed": 78,
            "reportedRed": 92,
            "inferredRed": 81,
            "playerTrialScore": -3,
            "oppTrialScore": 3,
            "playerTotalScore": -410,
            "oppTotalScore": 165,
            "waitTime": 6482.967659232974,
            "responseTime": 1682388337916,
            "catchQuestion": "How many <b class=\"r\">red<\/b> marbles did your opponent report drawing? ",
            "catchKey": -1,
            "catchResponse": -1,
            "catchTime": 1682388118111,
            "trialTime": 0
        },
        {
            "exptPart": "trial",
            "trialNumber": 37,
            "roleCurrent": "receiver",
            "marblesSampled": 100,
            "probRed": 0.5,
            "practiceLambda": 5,
            "trialLambda": 21.9,
            "instructedLambda": "honest",
            "sd": 8.1,
            "drawnRed": 38,
            "reportedRed": 63,
            "inferredRed": 50,
            "playerTrialScore": -12,
            "oppTrialScore": 12,
            "playerTotalScore": -422,
            "oppTotalScore": 177,
            "waitTime": 6927.809644865218,
            "responseTime": 1682388348110,
            "catchQuestion": "How many <b class=\"r\">red<\/b> marbles did your opponent report drawing? ",
            "catchKey": -1,
            "catchResponse": -1,
            "catchTime": 1682388118111,
            "trialTime": 0
        },
        {
            "exptPart": "trial",
            "trialNumber": 38,
            "roleCurrent": "receiver",
            "marblesSampled": 100,
            "probRed": 0.5,
            "practiceLambda": 5,
            "trialLambda": 21.9,
            "instructedLambda": "honest",
            "sd": 8.1,
            "drawnRed": 31,
            "reportedRed": 50,
            "inferredRed": 45,
            "playerTrialScore": -14,
            "oppTrialScore": 14,
            "playerTotalScore": -436,
            "oppTotalScore": 191,
            "waitTime": 7447.842268941222,
            "responseTime": 1682388363677,
            "catchQuestion": "How many <b class=\"r\">red<\/b> marbles did your opponent report drawing? ",
            "catchKey": -1,
            "catchResponse": -1,
            "catchTime": 1682388118111,
            "trialTime": 0
        },
        {
            "exptPart": "trial",
            "trialNumber": 39,
            "roleCurrent": "receiver",
            "marblesSampled": 100,
            "probRed": 0.5,
            "practiceLambda": 5,
            "trialLambda": 21.9,
            "instructedLambda": "honest",
            "sd": 8.1,
            "drawnRed": 51,
            "reportedRed": 76,
            "inferredRed": 45,
            "playerTrialScore": -6,
            "oppTrialScore": 0,
            "playerTotalScore": -442,
            "oppTotalScore": 191,
            "waitTime": 6291.948662828943,
            "responseTime": 1682388373952,
            "catchQuestion": "How many <b class=\"r\">red<\/b> marbles did your opponent report drawing? ",
            "catchKey": -1,
            "catchResponse": -1,
            "catchTime": 1682388118111,
            "trialTime": 0
        },
        {
            "exptPart": "trial",
            "trialNumber": 40,
            "roleCurrent": "receiver",
            "marblesSampled": 100,
            "probRed": 0.5,
            "practiceLambda": 5,
            "trialLambda": 21.9,
            "instructedLambda": "honest",
            "sd": 8.1,
            "drawnRed": 56,
            "reportedRed": 72,
            "inferredRed": 54,
            "playerTrialScore": -2,
            "oppTrialScore": 0,
            "playerTotalScore": -444,
            "oppTotalScore": 191,
            "waitTime": 5969.808552620432,
            "responseTime": 1682388383646,
            "catchQuestion": "How many <b class=\"r\">red<\/b> marbles did your opponent report drawing? ",
            "catchKey": -1,
            "catchResponse": -1,
            "catchTime": 1682388383646,
            "trialTime": 0
        },
        {
            "exptPart": "trial",
            "trialNumber": 41,
            "roleCurrent": "receiver",
            "marblesSampled": 100,
            "probRed": 0.5,
            "practiceLambda": 5,
            "trialLambda": 21.9,
            "instructedLambda": "honest",
            "sd": 8.1,
            "drawnRed": 92,
            "reportedRed": 100,
            "inferredRed": 32,
            "playerTrialScore": -60,
            "oppTrialScore": 0,
            "playerTotalScore": -504,
            "oppTotalScore": 191,
            "waitTime": 5714.190875498578,
            "responseTime": 1682388401299,
            "catchQuestion": "How many <b class=\"r\">red<\/b> marbles did your opponent report drawing? ",
            "catchKey": -1,
            "catchResponse": -1,
            "catchTime": 1682388383646,
            "trialTime": 0
        },
        {
            "exptPart": "trial",
            "trialNumber": 42,
            "roleCurrent": "receiver",
            "marblesSampled": 100,
            "probRed": 0.5,
            "practiceLambda": 5,
            "trialLambda": 21.9,
            "instructedLambda": "honest",
            "sd": 8.1,
            "drawnRed": 57,
            "reportedRed": 69,
            "inferredRed": 34,
            "playerTrialScore": -23,
            "oppTrialScore": 0,
            "playerTotalScore": -527,
            "oppTotalScore": 191,
            "waitTime": 5501.592967321961,
            "responseTime": 1682388412611,
            "catchQuestion": "How many <b class=\"r\">red<\/b> marbles did your opponent report drawing? ",
            "catchKey": 69,
            "catchResponse": 69,
            "catchTime": 1682388412611,
            "trialTime": 0
        },
        {
            "exptPart": "trial",
            "trialNumber": 43,
            "roleCurrent": "receiver",
            "marblesSampled": 100,
            "probRed": 0.5,
            "practiceLambda": 5,
            "trialLambda": 21.9,
            "instructedLambda": "honest",
            "sd": 8.1,
            "drawnRed": 61,
            "reportedRed": 76,
            "inferredRed": 48,
            "playerTrialScore": -13,
            "oppTrialScore": 0,
            "playerTotalScore": -540,
            "oppTotalScore": 191,
            "waitTime": 5940.277100709809,
            "responseTime": 1682388432679,
            "catchQuestion": "How many <b class=\"r\">red<\/b> marbles did your opponent report drawing? ",
            "catchKey": -1,
            "catchResponse": -1,
            "catchTime": 1682388412611,
            "trialTime": 0
        },
        {
            "exptPart": "trial",
            "trialNumber": 44,
            "roleCurrent": "receiver",
            "marblesSampled": 100,
            "probRed": 0.5,
            "practiceLambda": 5,
            "trialLambda": 21.9,
            "instructedLambda": "honest",
            "sd": 8.1,
            "drawnRed": 44,
            "reportedRed": 63,
            "inferredRed": 48,
            "playerTrialScore": -4,
            "oppTrialScore": 4,
            "playerTotalScore": -544,
            "oppTotalScore": 195,
            "waitTime": 7266.019580411664,
            "responseTime": 1682388446347,
            "catchQuestion": "How many <b class=\"r\">red<\/b> marbles did your opponent report drawing? ",
            "catchKey": -1,
            "catchResponse": -1,
            "catchTime": 1682388412611,
            "trialTime": 0
        },
        {
            "exptPart": "trial",
            "trialNumber": 45,
            "roleCurrent": "receiver",
            "marblesSampled": 100,
            "probRed": 0.5,
            "practiceLambda": 5,
            "trialLambda": 21.9,
            "instructedLambda": "honest",
            "sd": 8.1,
            "drawnRed": 50,
            "reportedRed": 77,
            "inferredRed": 39,
            "playerTrialScore": -11,
            "oppTrialScore": 0,
            "playerTotalScore": -555,
            "oppTotalScore": 195,
            "waitTime": 5971.952298465702,
            "responseTime": 1682388457605,
            "catchQuestion": "How many <b class=\"r\">red<\/b> marbles did your opponent report drawing? ",
            "catchKey": -1,
            "catchResponse": -1,
            "catchTime": 1682388412611,
            "trialTime": 0
        },
        {
            "exptPart": "trial",
            "trialNumber": 46,
            "roleCurrent": "receiver",
            "marblesSampled": 100,
            "probRed": 0.5,
            "practiceLambda": 5,
            "trialLambda": 21.9,
            "instructedLambda": "honest",
            "sd": 8.1,
            "drawnRed": 46,
            "reportedRed": 55,
            "inferredRed": 44,
            "playerTrialScore": -2,
            "oppTrialScore": 0,
            "playerTotalScore": -557,
            "oppTotalScore": 195,
            "waitTime": 5657.7644075577555,
            "responseTime": 1682388467291,
            "catchQuestion": "How many <b class=\"r\">red<\/b> marbles did your opponent report drawing? ",
            "catchKey": 55,
            "catchResponse": 55,
            "catchTime": 1682388467291,
            "trialTime": 0
        },
        {
            "exptPart": "trial",
            "trialNumber": 47,
            "roleCurrent": "receiver",
            "marblesSampled": 100,
            "probRed": 0.5,
            "practiceLambda": 5,
            "trialLambda": 21.9,
            "instructedLambda": "honest",
            "sd": 8.1,
            "drawnRed": 69,
            "reportedRed": 86,
            "inferredRed": 58,
            "playerTrialScore": -11,
            "oppTrialScore": 0,
            "playerTotalScore": -568,
            "oppTotalScore": 195,
            "waitTime": 7058.113017791848,
            "responseTime": 1682388486945,
            "catchQuestion": "How many <b class=\"r\">red<\/b> marbles did your opponent report drawing? ",
            "catchKey": -1,
            "catchResponse": -1,
            "catchTime": 1682388467291,
            "trialTime": 0
        },
        {
            "exptPart": "trial",
            "trialNumber": 48,
            "roleCurrent": "receiver",
            "marblesSampled": 100,
            "probRed": 0.5,
            "practiceLambda": 5,
            "trialLambda": 21.9,
            "instructedLambda": "honest",
            "sd": 8.1,
            "drawnRed": 38,
            "reportedRed": 55,
            "inferredRed": 38,
            "playerTrialScore": 0,
            "oppTrialScore": 0,
            "playerTotalScore": -568,
            "oppTotalScore": 195,
            "waitTime": 5452.650995250222,
            "responseTime": 1682388503017,
            "catchQuestion": "How many <b class=\"r\">red<\/b> marbles did your opponent report drawing? ",
            "catchKey": -1,
            "catchResponse": -1,
            "catchTime": 1682388467291,
            "trialTime": 0
        },
        {
            "exptPart": "trial",
            "trialNumber": 49,
            "roleCurrent": "receiver",
            "marblesSampled": 100,
            "probRed": 0.5,
            "practiceLambda": 5,
            "trialLambda": 21.9,
            "instructedLambda": "honest",
            "sd": 8.1,
            "drawnRed": 33,
            "reportedRed": 47,
            "inferredRed": 34,
            "playerTrialScore": -1,
            "oppTrialScore": 1,
            "playerTotalScore": -569,
            "oppTotalScore": 196,
            "waitTime": 7055.926103986345,
            "responseTime": 1682388520125,
            "catchQuestion": "How many <b class=\"r\">red<\/b> marbles did your opponent report drawing? ",
            "catchKey": -1,
            "catchResponse": -1,
            "catchTime": 1682388467291,
            "trialTime": 0
        },
        {
            "exptPart": "trial",
            "trialNumber": 50,
            "roleCurrent": "receiver",
            "marblesSampled": 100,
            "probRed": 0.5,
            "practiceLambda": 5,
            "trialLambda": 21.9,
            "instructedLambda": "honest",
            "sd": 8.1,
            "drawnRed": 78,
            "reportedRed": 100,
            "inferredRed": 45,
            "playerTrialScore": -33,
            "oppTrialScore": 0,
            "playerTotalScore": -602,
            "oppTotalScore": 196,
            "waitTime": 6831.598112587566,
            "responseTime": 1682388533386,
            "catchQuestion": "How many <b class=\"r\">red<\/b> marbles did your opponent report drawing? ",
            "catchKey": -1,
            "catchResponse": -1,
            "catchTime": 1682388533386,
            "trialTime": 0
        },
        {
            "exptPart": "trial",
            "trialNumber": 51,
            "roleCurrent": "receiver",
            "marblesSampled": 100,
            "probRed": 0.5,
            "practiceLambda": 5,
            "trialLambda": 21.9,
            "instructedLambda": "honest",
            "sd": 8.1,
            "drawnRed": 40,
            "reportedRed": 59,
            "inferredRed": 43,
            "playerTrialScore": -3,
            "oppTrialScore": 3,
            "playerTotalScore": -605,
            "oppTotalScore": 199,
            "waitTime": 7247.0962886963,
            "responseTime": 1682388722221,
            "catchQuestion": "How many <b class=\"r\">red<\/b> marbles did your opponent report drawing? ",
            "catchKey": -1,
            "catchResponse": -1,
            "catchTime": 1682388533386,
            "trialTime": 0
        },
        {
            "exptPart": "trial",
            "trialNumber": 52,
            "roleCurrent": "receiver",
            "marblesSampled": 100,
            "probRed": 0.5,
            "practiceLambda": 5,
            "trialLambda": 21.9,
            "instructedLambda": "honest",
            "sd": 8.1,
            "drawnRed": 63,
            "reportedRed": 82,
            "inferredRed": 56,
            "playerTrialScore": -7,
            "oppTrialScore": 0,
            "playerTotalScore": -612,
            "oppTotalScore": 199,
            "waitTime": 5776.8108577478015,
            "responseTime": 1682388734083,
            "catchQuestion": "How many <b class=\"r\">red<\/b> marbles did your opponent report drawing? ",
            "catchKey": 82,
            "catchResponse": 82,
            "catchTime": 1682388734083,
            "trialTime": 0
        },
        {
            "exptPart": "trial",
            "trialNumber": 53,
            "roleCurrent": "receiver",
            "marblesSampled": 100,
            "probRed": 0.5,
            "practiceLambda": 5,
            "trialLambda": 21.9,
            "instructedLambda": "honest",
            "sd": 8.1,
            "drawnRed": 70,
            "reportedRed": 92,
            "inferredRed": 55,
            "playerTrialScore": -15,
            "oppTrialScore": 0,
            "playerTotalScore": -627,
            "oppTotalScore": 199,
            "waitTime": 5486.44985597471,
            "responseTime": 1682388748327,
            "catchQuestion": "How many <b class=\"r\">red<\/b> marbles did your opponent report drawing? ",
            "catchKey": -1,
            "catchResponse": -1,
            "catchTime": 1682388734083,
            "trialTime": 0
        },
        {
            "exptPart": "trial",
            "trialNumber": 54,
            "roleCurrent": "receiver",
            "marblesSampled": 100,
            "probRed": 0.5,
            "practiceLambda": 5,
            "trialLambda": 21.9,
            "instructedLambda": "honest",
            "sd": 8.1,
            "drawnRed": 48,
            "reportedRed": 78,
            "inferredRed": 42,
            "playerTrialScore": -6,
            "oppTrialScore": 0,
            "playerTotalScore": -633,
            "oppTotalScore": 199,
            "waitTime": 7482.461888905183,
            "responseTime": 1682388758785,
            "catchQuestion": "How many <b class=\"r\">red<\/b> marbles did your opponent report drawing? ",
            "catchKey": -1,
            "catchResponse": -1,
            "catchTime": 1682388734083,
            "trialTime": 0
        },
        {
            "exptPart": "trial",
            "trialNumber": 55,
            "roleCurrent": "receiver",
            "marblesSampled": 100,
            "probRed": 0.5,
            "practiceLambda": 5,
            "trialLambda": 21.9,
            "instructedLambda": "honest",
            "sd": 8.1,
            "drawnRed": 64,
            "reportedRed": 86,
            "inferredRed": 35,
            "playerTrialScore": -29,
            "oppTrialScore": 0,
            "playerTotalScore": -662,
            "oppTotalScore": 199,
            "waitTime": 6811.903454814356,
            "responseTime": 1682388770651,
            "catchQuestion": "How many <b class=\"r\">red<\/b> marbles did your opponent report drawing? ",
            "catchKey": -1,
            "catchResponse": -1,
            "catchTime": 1682388734083,
            "trialTime": 0
        },
        {
            "exptPart": "trial",
            "trialNumber": 56,
            "roleCurrent": "receiver",
            "marblesSampled": 100,
            "probRed": 0.5,
            "practiceLambda": 5,
            "trialLambda": 21.9,
            "instructedLambda": "honest",
            "sd": 8.1,
            "drawnRed": 46,
            "reportedRed": 76,
            "inferredRed": 56,
            "playerTrialScore": -10,
            "oppTrialScore": 10,
            "playerTotalScore": -672,
            "oppTotalScore": 209,
            "waitTime": 5437.3264366766825,
            "responseTime": 1682388789350,
            "catchQuestion": "How many <b class=\"r\">red<\/b> marbles did your opponent report drawing? ",
            "catchKey": -1,
            "catchResponse": -1,
            "catchTime": 1682388734083,
            "trialTime": 0
        },
        {
            "exptPart": "trial",
            "trialNumber": 57,
            "roleCurrent": "receiver",
            "marblesSampled": 100,
            "probRed": 0.5,
            "practiceLambda": 5,
            "trialLambda": 21.9,
            "instructedLambda": "honest",
            "sd": 8.1,
            "drawnRed": 64,
            "reportedRed": 85,
            "inferredRed": 46,
            "playerTrialScore": -18,
            "oppTrialScore": 0,
            "playerTotalScore": -690,
            "oppTotalScore": 209,
            "waitTime": 5245.208321963827,
            "responseTime": 1682388806496,
            "catchQuestion": "How many <b class=\"r\">red<\/b> marbles did your opponent report drawing? ",
            "catchKey": -1,
            "catchResponse": -1,
            "catchTime": 1682388734083,
            "trialTime": 0
        },
        {
            "exptPart": "trial",
            "trialNumber": 58,
            "roleCurrent": "receiver",
            "marblesSampled": 100,
            "probRed": 0.5,
            "practiceLambda": 5,
            "trialLambda": 21.9,
            "instructedLambda": "honest",
            "sd": 8.1,
            "drawnRed": 66,
            "reportedRed": 92,
            "inferredRed": 34,
            "playerTrialScore": -32,
            "oppTrialScore": 0,
            "playerTotalScore": -722,
            "oppTotalScore": 209,
            "waitTime": 5616.608907161386,
            "responseTime": 1682388822284,
            "catchQuestion": "How many <b class=\"r\">red<\/b> marbles did your opponent report drawing? ",
            "catchKey": -1,
            "catchResponse": -1,
            "catchTime": 1682388734083,
            "trialTime": 0
        },
        {
            "exptPart": "trial",
            "trialNumber": 59,
            "roleCurrent": "receiver",
            "marblesSampled": 100,
            "probRed": 0.5,
            "practiceLambda": 5,
            "trialLambda": 21.9,
            "instructedLambda": "honest",
            "sd": 8.1,
            "drawnRed": 40,
            "reportedRed": 58,
            "inferredRed": 44,
            "playerTrialScore": -4,
            "oppTrialScore": 4,
            "playerTotalScore": -726,
            "oppTotalScore": 213,
            "waitTime": 5725.758200745544,
            "responseTime": 1682388833093,
            "catchQuestion": "How many <b class=\"r\">red<\/b> marbles did your opponent report drawing? ",
            "catchKey": -1,
            "catchResponse": -1,
            "catchTime": 1682388734083,
            "trialTime": 0
        },
        {
            "exptPart": "trial",
            "trialNumber": 60,
            "roleCurrent": "receiver",
            "marblesSampled": 100,
            "probRed": 0.5,
            "practiceLambda": 5,
            "trialLambda": 21.9,
            "instructedLambda": "honest",
            "sd": 8.1,
            "drawnRed": 31,
            "reportedRed": 46,
            "inferredRed": 32,
            "playerTrialScore": -1,
            "oppTrialScore": 1,
            "playerTotalScore": -727,
            "oppTotalScore": 214,
            "waitTime": 6170.286373465124,
            "responseTime": 1682388844939,
            "catchQuestion": "How many <b class=\"r\">red<\/b> marbles did your opponent report drawing? ",
            "catchKey": -1,
            "catchResponse": -1,
            "catchTime": 1682388844939,
            "trialTime": 0
        },
        {
            "exptPart": "trial",
            "trialNumber": 61,
            "roleCurrent": "receiver",
            "marblesSampled": 100,
            "probRed": 0.5,
            "practiceLambda": 5,
            "trialLambda": 21.9,
            "instructedLambda": "honest",
            "sd": 8.1,
            "drawnRed": 20,
            "reportedRed": 28,
            "inferredRed": 28,
            "playerTrialScore": -8,
            "oppTrialScore": 8,
            "playerTotalScore": -735,
            "oppTotalScore": 222,
            "waitTime": 5693.530082709962,
            "responseTime": 1682388862444,
            "catchQuestion": "How many <b class=\"r\">red<\/b> marbles did your opponent report drawing? ",
            "catchKey": -1,
            "catchResponse": -1,
            "catchTime": 1682388844939,
            "trialTime": 0
        },
        {
            "exptPart": "trial",
            "trialNumber": 62,
            "roleCurrent": "receiver",
            "marblesSampled": 100,
            "probRed": 0.5,
            "practiceLambda": 5,
            "trialLambda": 21.9,
            "instructedLambda": "honest",
            "sd": 8.1,
            "drawnRed": 12,
            "reportedRed": 40,
            "inferredRed": 39,
            "playerTrialScore": -27,
            "oppTrialScore": 27,
            "playerTotalScore": -762,
            "oppTotalScore": 249,
            "waitTime": 6482.28730378383,
            "responseTime": 1682388872299,
            "catchQuestion": "How many <b class=\"r\">red<\/b> marbles did your opponent report drawing? ",
            "catchKey": 40,
            "catchResponse": 40,
            "catchTime": 1682388872299,
            "trialTime": 0
        },
        {
            "exptPart": "trial",
            "trialNumber": 63,
            "roleCurrent": "receiver",
            "marblesSampled": 100,
            "probRed": 0.5,
            "practiceLambda": 5,
            "trialLambda": 21.9,
            "instructedLambda": "honest",
            "sd": 8.1,
            "drawnRed": 57,
            "reportedRed": 73,
            "inferredRed": 56,
            "playerTrialScore": -1,
            "oppTrialScore": 0,
            "playerTotalScore": -763,
            "oppTotalScore": 249,
            "waitTime": 7309.55185196247,
            "responseTime": 1682388887866,
            "catchQuestion": "How many <b class=\"r\">red<\/b> marbles did your opponent report drawing? ",
            "catchKey": -1,
            "catchResponse": -1,
            "catchTime": 1682388872299,
            "trialTime": 0
        },
        {
            "exptPart": "trial",
            "trialNumber": 64,
            "roleCurrent": "receiver",
            "marblesSampled": 100,
            "probRed": 0.5,
            "practiceLambda": 5,
            "trialLambda": 21.9,
            "instructedLambda": "honest",
            "sd": 8.1,
            "drawnRed": 57,
            "reportedRed": 77,
            "inferredRed": 65,
            "playerTrialScore": -8,
            "oppTrialScore": 8,
            "playerTotalScore": -771,
            "oppTotalScore": 257,
            "waitTime": 6091.208856588075,
            "responseTime": 1682388897002,
            "catchQuestion": "How many <b class=\"r\">red<\/b> marbles did your opponent report drawing? ",
            "catchKey": -1,
            "catchResponse": -1,
            "catchTime": 1682388872299,
            "trialTime": 0
        },
        {
            "exptPart": "trial",
            "trialNumber": 65,
            "roleCurrent": "receiver",
            "marblesSampled": 100,
            "probRed": 0.5,
            "practiceLambda": 5,
            "trialLambda": 21.9,
            "instructedLambda": "honest",
            "sd": 8.1,
            "drawnRed": 23,
            "reportedRed": 37,
            "inferredRed": 37,
            "playerTrialScore": -14,
            "oppTrialScore": 14,
            "playerTotalScore": -785,
            "oppTotalScore": 271,
            "waitTime": 6033.775831854046,
            "responseTime": 1682388924818,
            "catchQuestion": "How many <b class=\"r\">red<\/b> marbles did your opponent report drawing? ",
            "catchKey": -1,
            "catchResponse": -1,
            "catchTime": 1682388872299,
            "trialTime": 0
        },
        {
            "exptPart": "trial",
            "trialNumber": 66,
            "roleCurrent": "receiver",
            "marblesSampled": 100,
            "probRed": 0.5,
            "practiceLambda": 5,
            "trialLambda": 21.9,
            "instructedLambda": "honest",
            "sd": 8.1,
            "drawnRed": 20,
            "reportedRed": 31,
            "inferredRed": 29,
            "playerTrialScore": -9,
            "oppTrialScore": 9,
            "playerTotalScore": -794,
            "oppTotalScore": 280,
            "waitTime": 6172.046255895253,
            "responseTime": 1682388934801,
            "catchQuestion": "How many <b class=\"r\">red<\/b> marbles did your opponent report drawing? ",
            "catchKey": -1,
            "catchResponse": -1,
            "catchTime": 1682388872299,
            "trialTime": 0
        },
        {
            "exptPart": "trial",
            "trialNumber": 67,
            "roleCurrent": "receiver",
            "marblesSampled": 100,
            "probRed": 0.5,
            "practiceLambda": 5,
            "trialLambda": 21.9,
            "instructedLambda": "honest",
            "sd": 8.1,
            "drawnRed": 31,
            "reportedRed": 51,
            "inferredRed": 45,
            "playerTrialScore": -14,
            "oppTrialScore": 14,
            "playerTotalScore": -808,
            "oppTotalScore": 294,
            "waitTime": 5161.19229291012,
            "responseTime": 1682388980227,
            "catchQuestion": "How many <b class=\"r\">red<\/b> marbles did your opponent report drawing? ",
            "catchKey": -1,
            "catchResponse": -1,
            "catchTime": 1682388872299,
            "trialTime": 0
        },
        {
            "exptPart": "trial",
            "trialNumber": 68,
            "roleCurrent": "receiver",
            "marblesSampled": 100,
            "probRed": 0.5,
            "practiceLambda": 5,
            "trialLambda": 21.9,
            "instructedLambda": "honest",
            "sd": 8.1,
            "drawnRed": 39,
            "reportedRed": 64,
            "inferredRed": 54,
            "playerTrialScore": -15,
            "oppTrialScore": 15,
            "playerTotalScore": -823,
            "oppTotalScore": 309,
            "waitTime": 7380.662330423138,
            "responseTime": 1682388993826,
            "catchQuestion": "How many <b class=\"r\">red<\/b> marbles did your opponent report drawing? ",
            "catchKey": -1,
            "catchResponse": -1,
            "catchTime": 1682388872299,
            "trialTime": 0
        },
        {
            "exptPart": "trial",
            "trialNumber": 69,
            "roleCurrent": "receiver",
            "marblesSampled": 100,
            "probRed": 0.5,
            "practiceLambda": 5,
            "trialLambda": 21.9,
            "instructedLambda": "honest",
            "sd": 8.1,
            "drawnRed": 51,
            "reportedRed": 72,
            "inferredRed": 69,
            "playerTrialScore": -18,
            "oppTrialScore": 18,
            "playerTotalScore": -841,
            "oppTotalScore": 327,
            "waitTime": 5222.0072895400735,
            "responseTime": 1682389002357,
            "catchQuestion": "How many <b class=\"r\">red<\/b> marbles did your opponent report drawing? ",
            "catchKey": -1,
            "catchResponse": -1,
            "catchTime": 1682388872299,
            "trialTime": 0
        },
        {
            "exptPart": "trial",
            "trialNumber": 70,
            "roleCurrent": "receiver",
            "marblesSampled": 100,
            "probRed": 0.5,
            "practiceLambda": 5,
            "trialLambda": 21.9,
            "instructedLambda": "honest",
            "sd": 8.1,
            "drawnRed": 18,
            "reportedRed": 44,
            "inferredRed": 35,
            "playerTrialScore": -17,
            "oppTrialScore": 17,
            "playerTotalScore": -858,
            "oppTotalScore": 344,
            "waitTime": 6357.329314851273,
            "responseTime": 1682389013605,
            "catchQuestion": "How many <b class=\"r\">red<\/b> marbles did your opponent report drawing? ",
            "catchKey": -1,
            "catchResponse": -1,
            "catchTime": 1682389013605,
            "trialTime": 0
        },
        {
            "exptPart": "trial",
            "trialNumber": 71,
            "roleCurrent": "receiver",
            "marblesSampled": 100,
            "probRed": 0.5,
            "practiceLambda": 5,
            "trialLambda": 21.9,
            "instructedLambda": "honest",
            "sd": 8.1,
            "drawnRed": 23,
            "reportedRed": 24,
            "inferredRed": 25,
            "playerTrialScore": -2,
            "oppTrialScore": 2,
            "playerTotalScore": -860,
            "oppTotalScore": 346,
            "waitTime": 5202.597794412278,
            "responseTime": 1682389027664,
            "catchQuestion": "How many <b class=\"r\">red<\/b> marbles did your opponent report drawing? ",
            "catchKey": -1,
            "catchResponse": -1,
            "catchTime": 1682389013605,
            "trialTime": 0
        },
        {
            "exptPart": "trial",
            "trialNumber": 72,
            "roleCurrent": "receiver",
            "marblesSampled": 100,
            "probRed": 0.5,
            "practiceLambda": 5,
            "trialLambda": 21.9,
            "instructedLambda": "honest",
            "sd": 8.1,
            "drawnRed": 83,
            "reportedRed": 100,
            "inferredRed": 65,
            "playerTrialScore": -18,
            "oppTrialScore": 0,
            "playerTotalScore": -878,
            "oppTotalScore": 346,
            "waitTime": 6036.5837233557995,
            "responseTime": 1682389041668,
            "catchQuestion": "How many <b class=\"r\">red<\/b> marbles did your opponent report drawing? ",
            "catchKey": -1,
            "catchResponse": -1,
            "catchTime": 1682389013605,
            "trialTime": 0
        },
        {
            "exptPart": "trial",
            "trialNumber": 73,
            "roleCurrent": "receiver",
            "marblesSampled": 100,
            "probRed": 0.5,
            "practiceLambda": 5,
            "trialLambda": 21.9,
            "instructedLambda": "honest",
            "sd": 8.1,
            "drawnRed": 40,
            "reportedRed": 49,
            "inferredRed": 5,
            "playerTrialScore": -35,
            "oppTrialScore": 0,
            "playerTotalScore": -913,
            "oppTotalScore": 346,
            "waitTime": 7026.4228532698835,
            "responseTime": 1682389052450,
            "catchQuestion": "How many <b class=\"r\">red<\/b> marbles did your opponent report drawing? ",
            "catchKey": -1,
            "catchResponse": -1,
            "catchTime": 1682389013605,
            "trialTime": 0
        },
        {
            "exptPart": "trial",
            "trialNumber": 74,
            "roleCurrent": "receiver",
            "marblesSampled": 100,
            "probRed": 0.5,
            "practiceLambda": 5,
            "trialLambda": 21.9,
            "instructedLambda": "honest",
            "sd": 8.1,
            "drawnRed": 22,
            "reportedRed": 56,
            "inferredRed": 9,
            "playerTrialScore": -13,
            "oppTrialScore": 0,
            "playerTotalScore": -926,
            "oppTotalScore": 346,
            "waitTime": 6437.6077342520475,
            "responseTime": 1682389064374,
            "catchQuestion": "How many <b class=\"r\">red<\/b> marbles did your opponent report drawing? ",
            "catchKey": -1,
            "catchResponse": -1,
            "catchTime": 1682389013605,
            "trialTime": 0
        },
        {
            "exptPart": "trial",
            "trialNumber": 75,
            "roleCurrent": "receiver",
            "marblesSampled": 100,
            "probRed": 0.5,
            "practiceLambda": 5,
            "trialLambda": 21.9,
            "instructedLambda": "honest",
            "sd": 8.1,
            "drawnRed": 34,
            "reportedRed": 49,
            "inferredRed": 5,
            "playerTrialScore": -29,
            "oppTrialScore": 0,
            "playerTotalScore": -955,
            "oppTotalScore": 346,
            "waitTime": 6517.44150369126,
            "responseTime": 1682389075299,
            "catchQuestion": "How many <b class=\"r\">red<\/b> marbles did your opponent report drawing? ",
            "catchKey": -1,
            "catchResponse": -1,
            "catchTime": 1682389013605,
            "trialTime": 0
        },
        {
            "exptPart": "trial",
            "trialNumber": 76,
            "roleCurrent": "receiver",
            "marblesSampled": 100,
            "probRed": 0.5,
            "practiceLambda": 5,
            "trialLambda": 21.9,
            "instructedLambda": "honest",
            "sd": 8.1,
            "drawnRed": 36,
            "reportedRed": 42,
            "inferredRed": 4,
            "playerTrialScore": -32,
            "oppTrialScore": 0,
            "playerTotalScore": -987,
            "oppTotalScore": 346,
            "waitTime": 5653.733741525196,
            "responseTime": 1682389086698,
            "catchQuestion": "How many <b class=\"r\">red<\/b> marbles did your opponent report drawing? ",
            "catchKey": -1,
            "catchResponse": -1,
            "catchTime": 1682389013605,
            "trialTime": 0
        },
        {
            "exptPart": "trial",
            "trialNumber": 77,
            "roleCurrent": "receiver",
            "marblesSampled": 100,
            "probRed": 0.5,
            "practiceLambda": 5,
            "trialLambda": 21.9,
            "instructedLambda": "honest",
            "sd": 8.1,
            "drawnRed": 65,
            "reportedRed": 89,
            "inferredRed": 8,
            "playerTrialScore": -57,
            "oppTrialScore": 0,
            "playerTotalScore": -1044,
            "oppTotalScore": 346,
            "waitTime": 5347.088725905785,
            "responseTime": 1682389096141,
            "catchQuestion": "How many <b class=\"r\">red<\/b> marbles did your opponent report drawing? ",
            "catchKey": -1,
            "catchResponse": -1,
            "catchTime": 1682389013605,
            "trialTime": 0
        },
        {
            "exptPart": "trial",
            "trialNumber": 78,
            "roleCurrent": "receiver",
            "marblesSampled": 100,
            "probRed": 0.5,
            "practiceLambda": 5,
            "trialLambda": 21.9,
            "instructedLambda": "honest",
            "sd": 8.1,
            "drawnRed": 68,
            "reportedRed": 90,
            "inferredRed": 6,
            "playerTrialScore": -62,
            "oppTrialScore": 0,
            "playerTotalScore": -1106,
            "oppTotalScore": 346,
            "waitTime": 5802.272000411123,
            "responseTime": 1682389106196,
            "catchQuestion": "How many <b class=\"r\">red<\/b> marbles did your opponent report drawing? ",
            "catchKey": -1,
            "catchResponse": -1,
            "catchTime": 1682389013605,
            "trialTime": 0
        },
        {
            "exptPart": "trial",
            "trialNumber": 79,
            "roleCurrent": "receiver",
            "marblesSampled": 100,
            "probRed": 0.5,
            "practiceLambda": 5,
            "trialLambda": 21.9,
            "instructedLambda": "honest",
            "sd": 8.1,
            "drawnRed": 59,
            "reportedRed": 73,
            "inferredRed": 11,
            "playerTrialScore": -48,
            "oppTrialScore": 0,
            "playerTotalScore": -1154,
            "oppTotalScore": 346,
            "waitTime": 6896.752104125353,
            "responseTime": 1682389191631,
            "catchQuestion": "How many <b class=\"r\">red<\/b> marbles did your opponent report drawing? ",
            "catchKey": -1,
            "catchResponse": -1,
            "catchTime": 1682389013605,
            "trialTime": 0
        },
        {
            "exptPart": "trial",
            "trialNumber": 80,
            "roleCurrent": "receiver",
            "marblesSampled": 100,
            "probRed": 0.5,
            "practiceLambda": 5,
            "trialLambda": 21.9,
            "instructedLambda": "honest",
            "sd": 8.1,
            "drawnRed": 80,
            "reportedRed": 91,
            "inferredRed": 9,
            "playerTrialScore": -71,
            "oppTrialScore": 0,
            "playerTotalScore": -1225,
            "oppTotalScore": 346,
            "waitTime": 5564.667911581234,
            "responseTime": 1682389200703,
            "catchQuestion": "How many <b class=\"r\">red<\/b> marbles did your opponent report drawing? ",
            "catchKey": -1,
            "catchResponse": -1,
            "catchTime": 1682389200703,
            "trialTime": 0
        },
        {
            "exptPart": "trial",
            "trialNumber": 81,
            "roleCurrent": "receiver",
            "marblesSampled": 100,
            "probRed": 0.5,
            "practiceLambda": 5,
            "trialLambda": 21.9,
            "instructedLambda": "honest",
            "sd": 8.1,
            "drawnRed": 44,
            "reportedRed": 59,
            "inferredRed": 53,
            "playerTrialScore": -9,
            "oppTrialScore": 9,
            "playerTotalScore": -1234,
            "oppTotalScore": 355,
            "waitTime": 6760.012299590197,
            "responseTime": 1682389233288,
            "catchQuestion": "How many <b class=\"r\">red<\/b> marbles did your opponent report drawing? ",
            "catchKey": 59,
            "catchResponse": 59,
            "catchTime": 1682389233288,
            "trialTime": 0
        },
        {
            "exptPart": "trial",
            "trialNumber": 82,
            "roleCurrent": "receiver",
            "marblesSampled": 100,
            "probRed": 0.5,
            "practiceLambda": 5,
            "trialLambda": 21.9,
            "instructedLambda": "honest",
            "sd": 8.1,
            "drawnRed": 54,
            "reportedRed": 77,
            "inferredRed": 53,
            "playerTrialScore": -1,
            "oppTrialScore": 0,
            "playerTotalScore": -1235,
            "oppTotalScore": 355,
            "waitTime": 5154.441917717066,
            "responseTime": 1682389248180,
            "catchQuestion": "How many <b class=\"r\">red<\/b> marbles did your opponent report drawing? ",
            "catchKey": -1,
            "catchResponse": -1,
            "catchTime": 1682389233288,
            "trialTime": 0
        },
        {
            "exptPart": "trial",
            "trialNumber": 83,
            "roleCurrent": "receiver",
            "marblesSampled": 100,
            "probRed": 0.5,
            "practiceLambda": 5,
            "trialLambda": 21.9,
            "instructedLambda": "honest",
            "sd": 8.1,
            "drawnRed": 39,
            "reportedRed": 60,
            "inferredRed": 34,
            "playerTrialScore": -5,
            "oppTrialScore": 0,
            "playerTotalScore": -1240,
            "oppTotalScore": 355,
            "waitTime": 5391.8441061296235,
            "responseTime": 1682389411407,
            "catchQuestion": "How many <b class=\"r\">red<\/b> marbles did your opponent report drawing? ",
            "catchKey": -1,
            "catchResponse": -1,
            "catchTime": 1682389233288,
            "trialTime": 0
        },
        {
            "exptPart": "trial",
            "trialNumber": 84,
            "roleCurrent": "receiver",
            "marblesSampled": 100,
            "probRed": 0.5,
            "practiceLambda": 5,
            "trialLambda": 21.9,
            "instructedLambda": "honest",
            "sd": 8.1,
            "drawnRed": 64,
            "reportedRed": 93,
            "inferredRed": 44,
            "playerTrialScore": -20,
            "oppTrialScore": 0,
            "playerTotalScore": -1260,
            "oppTotalScore": 355,
            "waitTime": 5229.094878590713,
            "responseTime": 1682389435316,
            "catchQuestion": "How many <b class=\"r\">red<\/b> marbles did your opponent report drawing? ",
            "catchKey": 93,
            "catchResponse": 93,
            "catchTime": 1682389435316,
            "trialTime": 0
        },
        {
            "exptPart": "trial",
            "trialNumber": 85,
            "roleCurrent": "receiver",
            "marblesSampled": 100,
            "probRed": 0.5,
            "practiceLambda": 5,
            "trialLambda": 21.9,
            "instructedLambda": "honest",
            "sd": 8.1,
            "drawnRed": 89,
            "reportedRed": 100,
            "inferredRed": 33,
            "playerTrialScore": -56,
            "oppTrialScore": 0,
            "playerTotalScore": -1316,
            "oppTotalScore": 355,
            "waitTime": 6740.945260697557,
            "responseTime": 1682389456700,
            "catchQuestion": "How many <b class=\"r\">red<\/b> marbles did your opponent report drawing? ",
            "catchKey": 100,
            "catchResponse": 100,
            "catchTime": 1682389456700,
            "trialTime": 0
        },
        {
            "exptPart": "trial",
            "trialNumber": 86,
            "roleCurrent": "receiver",
            "marblesSampled": 100,
            "probRed": 0.5,
            "practiceLambda": 5,
            "trialLambda": 21.9,
            "instructedLambda": "honest",
            "sd": 8.1,
            "drawnRed": 58,
            "reportedRed": 84,
            "inferredRed": 60,
            "playerTrialScore": -2,
            "oppTrialScore": 2,
            "playerTotalScore": -1318,
            "oppTotalScore": 357,
            "waitTime": 5179.3284337115465,
            "responseTime": 1682390372839,
            "catchQuestion": "How many <b class=\"r\">red<\/b> marbles did your opponent report drawing? ",
            "catchKey": -1,
            "catchResponse": -1,
            "catchTime": 1682389456700,
            "trialTime": 0
        },
        {
            "exptPart": "trial",
            "trialNumber": 87,
            "roleCurrent": "receiver",
            "marblesSampled": 100,
            "probRed": 0.5,
            "practiceLambda": 5,
            "trialLambda": 21.9,
            "instructedLambda": "honest",
            "sd": 8.1,
            "drawnRed": 30,
            "reportedRed": 52,
            "inferredRed": 34,
            "playerTrialScore": -4,
            "oppTrialScore": 4,
            "playerTotalScore": -1322,
            "oppTotalScore": 361,
            "waitTime": 6252.642134296865,
            "responseTime": 1682390385384,
            "catchQuestion": "How many <b class=\"r\">red<\/b> marbles did your opponent report drawing? ",
            "catchKey": -1,
            "catchResponse": -1,
            "catchTime": 1682389456700,
            "trialTime": 0
        },
        {
            "exptPart": "trial",
            "trialNumber": 88,
            "roleCurrent": "receiver",
            "marblesSampled": 100,
            "probRed": 0.5,
            "practiceLambda": 5,
            "trialLambda": 21.9,
            "instructedLambda": "honest",
            "sd": 8.1,
            "drawnRed": 49,
            "reportedRed": 71,
            "inferredRed": 31,
            "playerTrialScore": -18,
            "oppTrialScore": 0,
            "playerTotalScore": -1340,
            "oppTotalScore": 361,
            "waitTime": 5309.842684228626,
            "responseTime": 1682390394426,
            "catchQuestion": "How many <b class=\"r\">red<\/b> marbles did your opponent report drawing? ",
            "catchKey": -1,
            "catchResponse": -1,
            "catchTime": 1682389456700,
            "trialTime": 0
        },
        {
            "exptPart": "trial",
            "trialNumber": 89,
            "roleCurrent": "receiver",
            "marblesSampled": 100,
            "probRed": 0.5,
            "practiceLambda": 5,
            "trialLambda": 21.9,
            "instructedLambda": "honest",
            "sd": 8.1,
            "drawnRed": 53,
            "reportedRed": 71,
            "inferredRed": 34,
            "playerTrialScore": -19,
            "oppTrialScore": 0,
            "playerTotalScore": -1359,
            "oppTotalScore": 361,
            "waitTime": 6031.602007284764,
            "responseTime": 1682390403701,
            "catchQuestion": "How many <b class=\"r\">red<\/b> marbles did your opponent report drawing? ",
            "catchKey": 71,
            "catchResponse": 81,
            "catchTime": 1682390403701,
            "trialTime": 0
        },
        {
            "exptPart": "trial",
            "trialNumber": 90,
            "roleCurrent": "receiver",
            "marblesSampled": 100,
            "probRed": 0.5,
            "practiceLambda": 5,
            "trialLambda": 21.9,
            "instructedLambda": "honest",
            "sd": 8.1,
            "drawnRed": 54,
            "reportedRed": 58,
            "inferredRed": 45,
            "playerTrialScore": -9,
            "oppTrialScore": 0,
            "playerTotalScore": -1368,
            "oppTotalScore": 361,
            "waitTime": 6290.668105768667,
            "responseTime": 1682390423483,
            "catchQuestion": "How many <b class=\"r\">red<\/b> marbles did your opponent report drawing? ",
            "catchKey": -1,
            "catchResponse": -1,
            "catchTime": 1682390423483,
            "trialTime": 0
        },
        {
            "exptPart": "trial",
            "trialNumber": 91,
            "roleCurrent": "receiver",
            "marblesSampled": 100,
            "probRed": 0.5,
            "practiceLambda": 5,
            "trialLambda": 21.9,
            "instructedLambda": "honest",
            "sd": 8.1,
            "drawnRed": 19,
            "reportedRed": 49,
            "inferredRed": 4,
            "playerTrialScore": -15,
            "oppTrialScore": 0,
            "playerTotalScore": -1383,
            "oppTotalScore": 361,
            "waitTime": 5590.892846352472,
            "responseTime": 1682390444433,
            "catchQuestion": "How many <b class=\"r\">red<\/b> marbles did your opponent report drawing? ",
            "catchKey": -1,
            "catchResponse": -1,
            "catchTime": 1682390423483,
            "trialTime": 0
        },
        {
            "exptPart": "trial",
            "trialNumber": 92,
            "roleCurrent": "receiver",
            "marblesSampled": 100,
            "probRed": 0.5,
            "practiceLambda": 5,
            "trialLambda": 21.9,
            "instructedLambda": "honest",
            "sd": 8.1,
            "drawnRed": 83,
            "reportedRed": 100,
            "inferredRed": 5,
            "playerTrialScore": -78,
            "oppTrialScore": 0,
            "playerTotalScore": -1461,
            "oppTotalScore": 361,
            "waitTime": 5139.892565546597,
            "responseTime": 1682390452715,
            "catchQuestion": "How many <b class=\"r\">red<\/b> marbles did your opponent report drawing? ",
            "catchKey": -1,
            "catchResponse": -1,
            "catchTime": 1682390423483,
            "trialTime": 0
        },
        {
            "exptPart": "trial",
            "trialNumber": 93,
            "roleCurrent": "receiver",
            "marblesSampled": 100,
            "probRed": 0.5,
            "practiceLambda": 5,
            "trialLambda": 21.9,
            "instructedLambda": "honest",
            "sd": 8.1,
            "drawnRed": 69,
            "reportedRed": 98,
            "inferredRed": 8,
            "playerTrialScore": -61,
            "oppTrialScore": 0,
            "playerTotalScore": -1522,
            "oppTotalScore": 361,
            "waitTime": 7183.455104035522,
            "responseTime": 1682390490162,
            "catchQuestion": "How many <b class=\"r\">red<\/b> marbles did your opponent report drawing? ",
            "catchKey": -1,
            "catchResponse": -1,
            "catchTime": 1682390423483,
            "trialTime": 0
        },
        {
            "exptPart": "trial",
            "trialNumber": 94,
            "roleCurrent": "receiver",
            "marblesSampled": 100,
            "probRed": 0.5,
            "practiceLambda": 5,
            "trialLambda": 21.9,
            "instructedLambda": "honest",
            "sd": 8.1,
            "drawnRed": 74,
            "reportedRed": 84,
            "inferredRed": 7,
            "playerTrialScore": -67,
            "oppTrialScore": 0,
            "playerTotalScore": -1589,
            "oppTotalScore": 361,
            "waitTime": 6834.97551625767,
            "responseTime": 1682390502367,
            "catchQuestion": "How many <b class=\"r\">red<\/b> marbles did your opponent report drawing? ",
            "catchKey": -1,
            "catchResponse": -1,
            "catchTime": 1682390423483,
            "trialTime": 0
        },
        {
            "exptPart": "trial",
            "trialNumber": 95,
            "roleCurrent": "receiver",
            "marblesSampled": 100,
            "probRed": 0.5,
            "practiceLambda": 5,
            "trialLambda": 21.9,
            "instructedLambda": "honest",
            "sd": 8.1,
            "drawnRed": 46,
            "reportedRed": 68,
            "inferredRed": 36,
            "playerTrialScore": -10,
            "oppTrialScore": 0,
            "playerTotalScore": -1599,
            "oppTotalScore": 361,
            "waitTime": 5361.217105518934,
            "responseTime": 1682390513518,
            "catchQuestion": "How many <b class=\"r\">red<\/b> marbles did your opponent report drawing? ",
            "catchKey": -1,
            "catchResponse": -1,
            "catchTime": 1682390423483,
            "trialTime": 0
        },
        {
            "exptPart": "trial",
            "trialNumber": 96,
            "roleCurrent": "receiver",
            "marblesSampled": 100,
            "probRed": 0.5,
            "practiceLambda": 5,
            "trialLambda": 21.9,
            "instructedLambda": "honest",
            "sd": 8.1,
            "drawnRed": 70,
            "reportedRed": 95,
            "inferredRed": 44,
            "playerTrialScore": -26,
            "oppTrialScore": 0,
            "playerTotalScore": -1625,
            "oppTotalScore": 361,
            "waitTime": 6297.656633963528,
            "responseTime": 1682390525489,
            "catchQuestion": "How many <b class=\"r\">red<\/b> marbles did your opponent report drawing? ",
            "catchKey": 95,
            "catchResponse": 96,
            "catchTime": 1682390525489,
            "trialTime": 0
        },
        {
            "exptPart": "trial",
            "trialNumber": 97,
            "roleCurrent": "receiver",
            "marblesSampled": 100,
            "probRed": 0.5,
            "practiceLambda": 5,
            "trialLambda": 21.9,
            "instructedLambda": "honest",
            "sd": 8.1,
            "drawnRed": 61,
            "reportedRed": 89,
            "inferredRed": 44,
            "playerTrialScore": -17,
            "oppTrialScore": 0,
            "playerTotalScore": -1642,
            "oppTotalScore": 361,
            "waitTime": 5238.815974958458,
            "responseTime": 1682390543243,
            "catchQuestion": "How many <b class=\"r\">red<\/b> marbles did your opponent report drawing? ",
            "catchKey": -1,
            "catchResponse": -1,
            "catchTime": 1682390525489,
            "trialTime": 0
        },
        {
            "exptPart": "trial",
            "trialNumber": 98,
            "roleCurrent": "receiver",
            "marblesSampled": 100,
            "probRed": 0.5,
            "practiceLambda": 5,
            "trialLambda": 21.9,
            "instructedLambda": "honest",
            "sd": 8.1,
            "drawnRed": 57,
            "reportedRed": 69,
            "inferredRed": 33,
            "playerTrialScore": -24,
            "oppTrialScore": 0,
            "playerTotalScore": -1666,
            "oppTotalScore": 361,
            "waitTime": 5300.364329999502,
            "responseTime": 1682390552808,
            "catchQuestion": "How many <b class=\"r\">red<\/b> marbles did your opponent report drawing? ",
            "catchKey": -1,
            "catchResponse": -1,
            "catchTime": 1682390525489,
            "trialTime": 0
        },
        {
            "exptPart": "trial",
            "trialNumber": 99,
            "roleCurrent": "receiver",
            "marblesSampled": 100,
            "probRed": 0.5,
            "practiceLambda": 5,
            "trialLambda": 21.9,
            "instructedLambda": "honest",
            "sd": 8.1,
            "drawnRed": 39,
            "reportedRed": 69,
            "inferredRed": 12,
            "playerTrialScore": -27,
            "oppTrialScore": 0,
            "playerTotalScore": -1693,
            "oppTotalScore": 361,
            "waitTime": 6803.9989060587195,
            "responseTime": 1682390562894,
            "catchQuestion": "How many <b class=\"r\">red<\/b> marbles did your opponent report drawing? ",
            "catchKey": -1,
            "catchResponse": -1,
            "catchTime": 1682390525489,
            "trialTime": 0
        },
        {
            "exptPart": "trial",
            "trialNumber": 100,
            "roleCurrent": "receiver",
            "marblesSampled": 100,
            "probRed": 0.5,
            "practiceLambda": 5,
            "trialLambda": 21.9,
            "instructedLambda": "honest",
            "sd": 8.1,
            "drawnRed": 43,
            "reportedRed": 51,
            "inferredRed": 34,
            "playerTrialScore": -9,
            "oppTrialScore": 0,
            "playerTotalScore": -1702,
            "oppTotalScore": 361,
            "waitTime": 6104.179439639536,
            "responseTime": 1682390573104,
            "catchQuestion": "How many <b class=\"r\">red<\/b> marbles did your opponent report drawing? ",
            "catchKey": -1,
            "catchResponse": -1,
            "catchTime": 1682390573105,
            "trialTime": 0
        }
    ]
}