{
    "client": {
        "type": "sona",
        "experiment_id": 2228,
        "credit_token": "b315147ae43241ea9c65086cb510cfb7",
        "survey_code": "41913",
        "sid": "sona-41913",
        "window": {
            "width": 1366,
            "height": 617
        },
        "screen": {
            "width": 1366,
            "height": 768
        },
        "userAgent": "Mozilla\/5.0 (X11; CrOS x86_64 13904.97.0) AppleWebKit\/537.36 (KHTML, like Gecko) Chrome\/91.0.4472.167 Safari\/537.36",
        "score": 0,
        "bonus": 0
    },
    "expt": {
        "saveURL": "submit.simple.php",
        "trials": 100,
        "practiceTrials": 2,
        "marblesSampled": 100,
        "probRed": 0.5,
        "practiceLambdaAI": 5,
        "lambdaAI": 8.1,
        "sd": 8.1,
        "roles": [
            "sender",
            "receiver"
        ],
        "cost": "unif",
        "goal": "over",
        "oppDishonesty": "honest",
        "catchTrials": [
            22,
            85,
            56,
            87,
            86,
            80,
            50,
            92,
            0,
            31
        ],
        "scoreTotal": {
            "player": -1123,
            "opp": 992
        },
        "sona": {
            "experiment_id": 2228,
            "credit_token": "b315147ae43241ea9c65086cb510cfb7"
        },
        "pilot": false,
        "debug": false
    },
    "trials": [
        {
            "exptPart": "practice",
            "trialNumber": 1,
            "roleCurrent": "sender",
            "marblesSampled": 100,
            "probRed": 0.5,
            "practiceLambda": 5,
            "trialLambda": 8.1,
            "instructedLambda": "honest",
            "sd": 8.1,
            "drawnRed": 76,
            "reportedRed": 76,
            "inferredRed": 76,
            "playerTrialScore": 0,
            "oppTrialScore": 0,
            "playerTotalScore": 0,
            "oppTotalScore": 0,
            "waitTime": 2967.933319330482,
            "responseTime": 1682374249338,
            "catchQuestion": "How many <b class=\"r\">red<\/b> marbles did you actually draw (before any changes)? ",
            "catchKey": 76,
            "catchResponse": 76,
            "catchTime": 1682374249339,
            "trialTime": 0
        },
        {
            "exptPart": "practice",
            "trialNumber": 2,
            "roleCurrent": "receiver",
            "marblesSampled": 100,
            "probRed": 0.5,
            "practiceLambda": 5,
            "trialLambda": 8.1,
            "instructedLambda": "honest",
            "sd": 8.1,
            "drawnRed": 74,
            "reportedRed": 80,
            "inferredRed": 50,
            "playerTrialScore": -24,
            "oppTrialScore": 0,
            "playerTotalScore": -24,
            "oppTotalScore": 0,
            "waitTime": 5365.454051159692,
            "responseTime": 1682374450921,
            "catchQuestion": "How many <b class=\"r\">red<\/b> marbles did your opponent report drawing? ",
            "catchKey": 80,
            "catchResponse": 80,
            "catchTime": 1682374450921,
            "trialTime": 0
        },
        {
            "exptPart": "trial",
            "trialNumber": 1,
            "roleCurrent": "receiver",
            "marblesSampled": 100,
            "probRed": 0.5,
            "practiceLambda": 5,
            "trialLambda": 8.1,
            "instructedLambda": "honest",
            "sd": 8.1,
            "drawnRed": 44,
            "reportedRed": 47,
            "inferredRed": 30,
            "playerTrialScore": -14,
            "oppTrialScore": 0,
            "playerTotalScore": -14,
            "oppTotalScore": 0,
            "waitTime": 6902.953268667157,
            "responseTime": 1682374530510,
            "catchQuestion": "How many <b class=\"r\">red<\/b> marbles did your opponent report drawing? ",
            "catchKey": 47,
            "catchResponse": 47,
            "catchTime": 1682374530510,
            "trialTime": 0
        },
        {
            "exptPart": "trial",
            "trialNumber": 2,
            "roleCurrent": "receiver",
            "marblesSampled": 100,
            "probRed": 0.5,
            "practiceLambda": 5,
            "trialLambda": 8.1,
            "instructedLambda": "honest",
            "sd": 8.1,
            "drawnRed": 92,
            "reportedRed": 92,
            "inferredRed": 90,
            "playerTrialScore": -2,
            "oppTrialScore": 0,
            "playerTotalScore": -16,
            "oppTotalScore": 0,
            "waitTime": 6838.042647458857,
            "responseTime": 1682374555413,
            "catchQuestion": "How many <b class=\"r\">red<\/b> marbles did your opponent report drawing? ",
            "catchKey": -1,
            "catchResponse": -1,
            "catchTime": 1682374530510,
            "trialTime": 0
        },
        {
            "exptPart": "trial",
            "trialNumber": 3,
            "roleCurrent": "receiver",
            "marblesSampled": 100,
            "probRed": 0.5,
            "practiceLambda": 5,
            "trialLambda": 8.1,
            "instructedLambda": "honest",
            "sd": 8.1,
            "drawnRed": 76,
            "reportedRed": 80,
            "inferredRed": 82,
            "playerTrialScore": -6,
            "oppTrialScore": 6,
            "playerTotalScore": -22,
            "oppTotalScore": 6,
            "waitTime": 6188.17488497315,
            "responseTime": 1682374651256,
            "catchQuestion": "How many <b class=\"r\">red<\/b> marbles did your opponent report drawing? ",
            "catchKey": -1,
            "catchResponse": -1,
            "catchTime": 1682374530510,
            "trialTime": 0
        },
        {
            "exptPart": "trial",
            "trialNumber": 4,
            "roleCurrent": "receiver",
            "marblesSampled": 100,
            "probRed": 0.5,
            "practiceLambda": 5,
            "trialLambda": 8.1,
            "instructedLambda": "honest",
            "sd": 8.1,
            "drawnRed": 62,
            "reportedRed": 76,
            "inferredRed": 75,
            "playerTrialScore": -13,
            "oppTrialScore": 13,
            "playerTotalScore": -35,
            "oppTotalScore": 19,
            "waitTime": 7276.622169830927,
            "responseTime": 1682374742865,
            "catchQuestion": "How many <b class=\"r\">red<\/b> marbles did your opponent report drawing? ",
            "catchKey": -1,
            "catchResponse": -1,
            "catchTime": 1682374530510,
            "trialTime": 0
        },
        {
            "exptPart": "trial",
            "trialNumber": 5,
            "roleCurrent": "receiver",
            "marblesSampled": 100,
            "probRed": 0.5,
            "practiceLambda": 5,
            "trialLambda": 8.1,
            "instructedLambda": "honest",
            "sd": 8.1,
            "drawnRed": 43,
            "reportedRed": 43,
            "inferredRed": 35,
            "playerTrialScore": -8,
            "oppTrialScore": 0,
            "playerTotalScore": -43,
            "oppTotalScore": 19,
            "waitTime": 6596.279753195734,
            "responseTime": 1682374758036,
            "catchQuestion": "How many <b class=\"r\">red<\/b> marbles did your opponent report drawing? ",
            "catchKey": -1,
            "catchResponse": -1,
            "catchTime": 1682374530510,
            "trialTime": 0
        },
        {
            "exptPart": "trial",
            "trialNumber": 6,
            "roleCurrent": "receiver",
            "marblesSampled": 100,
            "probRed": 0.5,
            "practiceLambda": 5,
            "trialLambda": 8.1,
            "instructedLambda": "honest",
            "sd": 8.1,
            "drawnRed": 13,
            "reportedRed": 20,
            "inferredRed": 16,
            "playerTrialScore": -3,
            "oppTrialScore": 3,
            "playerTotalScore": -46,
            "oppTotalScore": 22,
            "waitTime": 7457.375810807026,
            "responseTime": 1682374781650,
            "catchQuestion": "How many <b class=\"r\">red<\/b> marbles did your opponent report drawing? ",
            "catchKey": -1,
            "catchResponse": -1,
            "catchTime": 1682374530510,
            "trialTime": 0
        },
        {
            "exptPart": "trial",
            "trialNumber": 7,
            "roleCurrent": "receiver",
            "marblesSampled": 100,
            "probRed": 0.5,
            "practiceLambda": 5,
            "trialLambda": 8.1,
            "instructedLambda": "honest",
            "sd": 8.1,
            "drawnRed": 89,
            "reportedRed": 100,
            "inferredRed": 100,
            "playerTrialScore": -11,
            "oppTrialScore": 11,
            "playerTotalScore": -57,
            "oppTotalScore": 33,
            "waitTime": 5879.361549469842,
            "responseTime": 1682374883173,
            "catchQuestion": "How many <b class=\"r\">red<\/b> marbles did your opponent report drawing? ",
            "catchKey": -1,
            "catchResponse": -1,
            "catchTime": 1682374530510,
            "trialTime": 0
        },
        {
            "exptPart": "trial",
            "trialNumber": 8,
            "roleCurrent": "receiver",
            "marblesSampled": 100,
            "probRed": 0.5,
            "practiceLambda": 5,
            "trialLambda": 8.1,
            "instructedLambda": "honest",
            "sd": 8.1,
            "drawnRed": 35,
            "reportedRed": 51,
            "inferredRed": 55,
            "playerTrialScore": -20,
            "oppTrialScore": 20,
            "playerTotalScore": -77,
            "oppTotalScore": 53,
            "waitTime": 7001.756283717657,
            "responseTime": 1682374928814,
            "catchQuestion": "How many <b class=\"r\">red<\/b> marbles did your opponent report drawing? ",
            "catchKey": -1,
            "catchResponse": -1,
            "catchTime": 1682374530510,
            "trialTime": 0
        },
        {
            "exptPart": "trial",
            "trialNumber": 9,
            "roleCurrent": "receiver",
            "marblesSampled": 100,
            "probRed": 0.5,
            "practiceLambda": 5,
            "trialLambda": 8.1,
            "instructedLambda": "honest",
            "sd": 8.1,
            "drawnRed": 34,
            "reportedRed": 43,
            "inferredRed": 45,
            "playerTrialScore": -11,
            "oppTrialScore": 11,
            "playerTotalScore": -88,
            "oppTotalScore": 64,
            "waitTime": 7173.681474467211,
            "responseTime": 1682375023108,
            "catchQuestion": "How many <b class=\"r\">red<\/b> marbles did your opponent report drawing? ",
            "catchKey": -1,
            "catchResponse": -1,
            "catchTime": 1682374530510,
            "trialTime": 0
        },
        {
            "exptPart": "trial",
            "trialNumber": 10,
            "roleCurrent": "receiver",
            "marblesSampled": 100,
            "probRed": 0.5,
            "practiceLambda": 5,
            "trialLambda": 8.1,
            "instructedLambda": "honest",
            "sd": 8.1,
            "drawnRed": 51,
            "reportedRed": 69,
            "inferredRed": 60,
            "playerTrialScore": -9,
            "oppTrialScore": 9,
            "playerTotalScore": -97,
            "oppTotalScore": 73,
            "waitTime": 5967.286666273894,
            "responseTime": 1682375090437,
            "catchQuestion": "How many <b class=\"r\">red<\/b> marbles did your opponent report drawing? ",
            "catchKey": -1,
            "catchResponse": -1,
            "catchTime": 1682375090438,
            "trialTime": 0
        },
        {
            "exptPart": "trial",
            "trialNumber": 11,
            "roleCurrent": "receiver",
            "marblesSampled": 100,
            "probRed": 0.5,
            "practiceLambda": 5,
            "trialLambda": 8.1,
            "instructedLambda": "honest",
            "sd": 8.1,
            "drawnRed": 72,
            "reportedRed": 73,
            "inferredRed": 80,
            "playerTrialScore": -8,
            "oppTrialScore": 8,
            "playerTotalScore": -105,
            "oppTotalScore": 81,
            "waitTime": 5948.288341348797,
            "responseTime": 1682375223849,
            "catchQuestion": "How many <b class=\"r\">red<\/b> marbles did your opponent report drawing? ",
            "catchKey": -1,
            "catchResponse": -1,
            "catchTime": 1682375090438,
            "trialTime": 0
        },
        {
            "exptPart": "trial",
            "trialNumber": 12,
            "roleCurrent": "receiver",
            "marblesSampled": 100,
            "probRed": 0.5,
            "practiceLambda": 5,
            "trialLambda": 8.1,
            "instructedLambda": "honest",
            "sd": 8.1,
            "drawnRed": 27,
            "reportedRed": 27,
            "inferredRed": 20,
            "playerTrialScore": -7,
            "oppTrialScore": 0,
            "playerTotalScore": -112,
            "oppTotalScore": 81,
            "waitTime": 5698.953197085896,
            "responseTime": 1682375241657,
            "catchQuestion": "How many <b class=\"r\">red<\/b> marbles did your opponent report drawing? ",
            "catchKey": -1,
            "catchResponse": -1,
            "catchTime": 1682375090438,
            "trialTime": 0
        },
        {
            "exptPart": "trial",
            "trialNumber": 13,
            "roleCurrent": "receiver",
            "marblesSampled": 100,
            "probRed": 0.5,
            "practiceLambda": 5,
            "trialLambda": 8.1,
            "instructedLambda": "honest",
            "sd": 8.1,
            "drawnRed": 29,
            "reportedRed": 45,
            "inferredRed": 50,
            "playerTrialScore": -21,
            "oppTrialScore": 21,
            "playerTotalScore": -133,
            "oppTotalScore": 102,
            "waitTime": 6840.875170957333,
            "responseTime": 1682375480972,
            "catchQuestion": "How many <b class=\"r\">red<\/b> marbles did your opponent report drawing? ",
            "catchKey": -1,
            "catchResponse": -1,
            "catchTime": 1682375090438,
            "trialTime": 0
        },
        {
            "exptPart": "trial",
            "trialNumber": 14,
            "roleCurrent": "receiver",
            "marblesSampled": 100,
            "probRed": 0.5,
            "practiceLambda": 5,
            "trialLambda": 8.1,
            "instructedLambda": "honest",
            "sd": 8.1,
            "drawnRed": 40,
            "reportedRed": 59,
            "inferredRed": 60,
            "playerTrialScore": -20,
            "oppTrialScore": 20,
            "playerTotalScore": -153,
            "oppTotalScore": 122,
            "waitTime": 7213.616884033539,
            "responseTime": 1682375614246,
            "catchQuestion": "How many <b class=\"r\">red<\/b> marbles did your opponent report drawing? ",
            "catchKey": -1,
            "catchResponse": -1,
            "catchTime": 1682375090438,
            "trialTime": 0
        },
        {
            "exptPart": "trial",
            "trialNumber": 15,
            "roleCurrent": "receiver",
            "marblesSampled": 100,
            "probRed": 0.5,
            "practiceLambda": 5,
            "trialLambda": 8.1,
            "instructedLambda": "honest",
            "sd": 8.1,
            "drawnRed": 26,
            "reportedRed": 25,
            "inferredRed": 20,
            "playerTrialScore": -6,
            "oppTrialScore": 0,
            "playerTotalScore": -159,
            "oppTotalScore": 122,
            "waitTime": 5571.211290819636,
            "responseTime": 1682375634788,
            "catchQuestion": "How many <b class=\"r\">red<\/b> marbles did your opponent report drawing? ",
            "catchKey": -1,
            "catchResponse": -1,
            "catchTime": 1682375090438,
            "trialTime": 0
        },
        {
            "exptPart": "trial",
            "trialNumber": 16,
            "roleCurrent": "receiver",
            "marblesSampled": 100,
            "probRed": 0.5,
            "practiceLambda": 5,
            "trialLambda": 8.1,
            "instructedLambda": "honest",
            "sd": 8.1,
            "drawnRed": 19,
            "reportedRed": 19,
            "inferredRed": 18,
            "playerTrialScore": -1,
            "oppTrialScore": 0,
            "playerTotalScore": -160,
            "oppTotalScore": 122,
            "waitTime": 5195.514456709914,
            "responseTime": 1682375661158,
            "catchQuestion": "How many <b class=\"r\">red<\/b> marbles did your opponent report drawing? ",
            "catchKey": -1,
            "catchResponse": -1,
            "catchTime": 1682375090438,
            "trialTime": 0
        },
        {
            "exptPart": "trial",
            "trialNumber": 17,
            "roleCurrent": "receiver",
            "marblesSampled": 100,
            "probRed": 0.5,
            "practiceLambda": 5,
            "trialLambda": 8.1,
            "instructedLambda": "honest",
            "sd": 8.1,
            "drawnRed": 35,
            "reportedRed": 39,
            "inferredRed": 35,
            "playerTrialScore": 0,
            "oppTrialScore": 0,
            "playerTotalScore": -160,
            "oppTotalScore": 122,
            "waitTime": 6336.236409220388,
            "responseTime": 1682375879921,
            "catchQuestion": "How many <b class=\"r\">red<\/b> marbles did your opponent report drawing? ",
            "catchKey": -1,
            "catchResponse": -1,
            "catchTime": 1682375090438,
            "trialTime": 0
        },
        {
            "exptPart": "trial",
            "trialNumber": 18,
            "roleCurrent": "receiver",
            "marblesSampled": 100,
            "probRed": 0.5,
            "practiceLambda": 5,
            "trialLambda": 8.1,
            "instructedLambda": "honest",
            "sd": 8.1,
            "drawnRed": 50,
            "reportedRed": 50,
            "inferredRed": 50,
            "playerTrialScore": 0,
            "oppTrialScore": 0,
            "playerTotalScore": -160,
            "oppTotalScore": 122,
            "waitTime": 6635.941440320721,
            "responseTime": 1682375916844,
            "catchQuestion": "How many <b class=\"r\">red<\/b> marbles did your opponent report drawing? ",
            "catchKey": -1,
            "catchResponse": -1,
            "catchTime": 1682375090438,
            "trialTime": 0
        },
        {
            "exptPart": "trial",
            "trialNumber": 19,
            "roleCurrent": "receiver",
            "marblesSampled": 100,
            "probRed": 0.5,
            "practiceLambda": 5,
            "trialLambda": 8.1,
            "instructedLambda": "honest",
            "sd": 8.1,
            "drawnRed": 49,
            "reportedRed": 61,
            "inferredRed": 60,
            "playerTrialScore": -11,
            "oppTrialScore": 11,
            "playerTotalScore": -171,
            "oppTotalScore": 133,
            "waitTime": 5251.50370567747,
            "responseTime": 1682376075527,
            "catchQuestion": "How many <b class=\"r\">red<\/b> marbles did your opponent report drawing? ",
            "catchKey": -1,
            "catchResponse": -1,
            "catchTime": 1682375090438,
            "trialTime": 0
        },
        {
            "exptPart": "trial",
            "trialNumber": 20,
            "roleCurrent": "receiver",
            "marblesSampled": 100,
            "probRed": 0.5,
            "practiceLambda": 5,
            "trialLambda": 8.1,
            "instructedLambda": "honest",
            "sd": 8.1,
            "drawnRed": 25,
            "reportedRed": 28,
            "inferredRed": 25,
            "playerTrialScore": 0,
            "oppTrialScore": 0,
            "playerTotalScore": -171,
            "oppTotalScore": 133,
            "waitTime": 6297.918082257281,
            "responseTime": 1682376481431,
            "catchQuestion": "How many <b class=\"r\">red<\/b> marbles did your opponent report drawing? ",
            "catchKey": -1,
            "catchResponse": -1,
            "catchTime": 1682376481431,
            "trialTime": 0
        },
        {
            "exptPart": "trial",
            "trialNumber": 21,
            "roleCurrent": "receiver",
            "marblesSampled": 100,
            "probRed": 0.5,
            "practiceLambda": 5,
            "trialLambda": 8.1,
            "instructedLambda": "honest",
            "sd": 8.1,
            "drawnRed": 31,
            "reportedRed": 40,
            "inferredRed": 50,
            "playerTrialScore": -19,
            "oppTrialScore": 19,
            "playerTotalScore": -190,
            "oppTotalScore": 152,
            "waitTime": 5135.263264106479,
            "responseTime": 1682376553362,
            "catchQuestion": "How many <b class=\"r\">red<\/b> marbles did your opponent report drawing? ",
            "catchKey": -1,
            "catchResponse": -1,
            "catchTime": 1682376481431,
            "trialTime": 0
        },
        {
            "exptPart": "trial",
            "trialNumber": 22,
            "roleCurrent": "receiver",
            "marblesSampled": 100,
            "probRed": 0.5,
            "practiceLambda": 5,
            "trialLambda": 8.1,
            "instructedLambda": "honest",
            "sd": 8.1,
            "drawnRed": 51,
            "reportedRed": 49,
            "inferredRed": 50,
            "playerTrialScore": -1,
            "oppTrialScore": 0,
            "playerTotalScore": -191,
            "oppTotalScore": 152,
            "waitTime": 5255.562541405927,
            "responseTime": 1682376568701,
            "catchQuestion": "How many <b class=\"r\">red<\/b> marbles did your opponent report drawing? ",
            "catchKey": -1,
            "catchResponse": -1,
            "catchTime": 1682376481431,
            "trialTime": 0
        },
        {
            "exptPart": "trial",
            "trialNumber": 23,
            "roleCurrent": "receiver",
            "marblesSampled": 100,
            "probRed": 0.5,
            "practiceLambda": 5,
            "trialLambda": 8.1,
            "instructedLambda": "honest",
            "sd": 8.1,
            "drawnRed": 91,
            "reportedRed": 100,
            "inferredRed": 100,
            "playerTrialScore": -9,
            "oppTrialScore": 9,
            "playerTotalScore": -200,
            "oppTotalScore": 161,
            "waitTime": 6619.069041781922,
            "responseTime": 1682376603408,
            "catchQuestion": "How many <b class=\"r\">red<\/b> marbles did your opponent report drawing? ",
            "catchKey": 100,
            "catchResponse": 100,
            "catchTime": 1682376603409,
            "trialTime": 0
        },
        {
            "exptPart": "trial",
            "trialNumber": 24,
            "roleCurrent": "receiver",
            "marblesSampled": 100,
            "probRed": 0.5,
            "practiceLambda": 5,
            "trialLambda": 8.1,
            "instructedLambda": "honest",
            "sd": 8.1,
            "drawnRed": 85,
            "reportedRed": 79,
            "inferredRed": 85,
            "playerTrialScore": 0,
            "oppTrialScore": 0,
            "playerTotalScore": -200,
            "oppTotalScore": 161,
            "waitTime": 5872.32911421459,
            "responseTime": 1682376767957,
            "catchQuestion": "How many <b class=\"r\">red<\/b> marbles did your opponent report drawing? ",
            "catchKey": -1,
            "catchResponse": -1,
            "catchTime": 1682376603409,
            "trialTime": 0
        },
        {
            "exptPart": "trial",
            "trialNumber": 25,
            "roleCurrent": "receiver",
            "marblesSampled": 100,
            "probRed": 0.5,
            "practiceLambda": 5,
            "trialLambda": 8.1,
            "instructedLambda": "honest",
            "sd": 8.1,
            "drawnRed": 56,
            "reportedRed": 83,
            "inferredRed": 85,
            "playerTrialScore": -29,
            "oppTrialScore": 29,
            "playerTotalScore": -229,
            "oppTotalScore": 190,
            "waitTime": 5177.378298212225,
            "responseTime": 1682376823107,
            "catchQuestion": "How many <b class=\"r\">red<\/b> marbles did your opponent report drawing? ",
            "catchKey": -1,
            "catchResponse": -1,
            "catchTime": 1682376603409,
            "trialTime": 0
        },
        {
            "exptPart": "trial",
            "trialNumber": 26,
            "roleCurrent": "receiver",
            "marblesSampled": 100,
            "probRed": 0.5,
            "practiceLambda": 5,
            "trialLambda": 8.1,
            "instructedLambda": "honest",
            "sd": 8.1,
            "drawnRed": 29,
            "reportedRed": 21,
            "inferredRed": 25,
            "playerTrialScore": -4,
            "oppTrialScore": 0,
            "playerTotalScore": -233,
            "oppTotalScore": 190,
            "waitTime": 5366.451018630518,
            "responseTime": 1682377014746,
            "catchQuestion": "How many <b class=\"r\">red<\/b> marbles did your opponent report drawing? ",
            "catchKey": -1,
            "catchResponse": -1,
            "catchTime": 1682376603409,
            "trialTime": 0
        },
        {
            "exptPart": "trial",
            "trialNumber": 27,
            "roleCurrent": "receiver",
            "marblesSampled": 100,
            "probRed": 0.5,
            "practiceLambda": 5,
            "trialLambda": 8.1,
            "instructedLambda": "honest",
            "sd": 8.1,
            "drawnRed": 34,
            "reportedRed": 28,
            "inferredRed": 35,
            "playerTrialScore": -1,
            "oppTrialScore": 1,
            "playerTotalScore": -234,
            "oppTotalScore": 191,
            "waitTime": 5507.916966749926,
            "responseTime": 1682377265117,
            "catchQuestion": "How many <b class=\"r\">red<\/b> marbles did your opponent report drawing? ",
            "catchKey": -1,
            "catchResponse": -1,
            "catchTime": 1682376603409,
            "trialTime": 0
        },
        {
            "exptPart": "trial",
            "trialNumber": 28,
            "roleCurrent": "receiver",
            "marblesSampled": 100,
            "probRed": 0.5,
            "practiceLambda": 5,
            "trialLambda": 8.1,
            "instructedLambda": "honest",
            "sd": 8.1,
            "drawnRed": 34,
            "reportedRed": 43,
            "inferredRed": 50,
            "playerTrialScore": -16,
            "oppTrialScore": 16,
            "playerTotalScore": -250,
            "oppTotalScore": 207,
            "waitTime": 5226.355029218856,
            "responseTime": 1682377288198,
            "catchQuestion": "How many <b class=\"r\">red<\/b> marbles did your opponent report drawing? ",
            "catchKey": -1,
            "catchResponse": -1,
            "catchTime": 1682376603409,
            "trialTime": 0
        },
        {
            "exptPart": "trial",
            "trialNumber": 29,
            "roleCurrent": "receiver",
            "marblesSampled": 100,
            "probRed": 0.5,
            "practiceLambda": 5,
            "trialLambda": 8.1,
            "instructedLambda": "honest",
            "sd": 8.1,
            "drawnRed": 46,
            "reportedRed": 56,
            "inferredRed": 60,
            "playerTrialScore": -14,
            "oppTrialScore": 14,
            "playerTotalScore": -264,
            "oppTotalScore": 221,
            "waitTime": 5138.899960268109,
            "responseTime": 1682377471456,
            "catchQuestion": "How many <b class=\"r\">red<\/b> marbles did your opponent report drawing? ",
            "catchKey": -1,
            "catchResponse": -1,
            "catchTime": 1682376603409,
            "trialTime": 0
        },
        {
            "exptPart": "trial",
            "trialNumber": 30,
            "roleCurrent": "receiver",
            "marblesSampled": 100,
            "probRed": 0.5,
            "practiceLambda": 5,
            "trialLambda": 8.1,
            "instructedLambda": "honest",
            "sd": 8.1,
            "drawnRed": 45,
            "reportedRed": 51,
            "inferredRed": 55,
            "playerTrialScore": -10,
            "oppTrialScore": 10,
            "playerTotalScore": -274,
            "oppTotalScore": 231,
            "waitTime": 5950.9877930767725,
            "responseTime": 1682377580329,
            "catchQuestion": "How many <b class=\"r\">red<\/b> marbles did your opponent report drawing? ",
            "catchKey": -1,
            "catchResponse": -1,
            "catchTime": 1682377580329,
            "trialTime": 0
        },
        {
            "exptPart": "trial",
            "trialNumber": 31,
            "roleCurrent": "receiver",
            "marblesSampled": 100,
            "probRed": 0.5,
            "practiceLambda": 5,
            "trialLambda": 8.1,
            "instructedLambda": "honest",
            "sd": 8.1,
            "drawnRed": 76,
            "reportedRed": 70,
            "inferredRed": 80,
            "playerTrialScore": -4,
            "oppTrialScore": 4,
            "playerTotalScore": -278,
            "oppTotalScore": 235,
            "waitTime": 5657.583667261029,
            "responseTime": 1682377691168,
            "catchQuestion": "How many <b class=\"r\">red<\/b> marbles did your opponent report drawing? ",
            "catchKey": -1,
            "catchResponse": -1,
            "catchTime": 1682377580329,
            "trialTime": 0
        },
        {
            "exptPart": "trial",
            "trialNumber": 32,
            "roleCurrent": "receiver",
            "marblesSampled": 100,
            "probRed": 0.5,
            "practiceLambda": 5,
            "trialLambda": 8.1,
            "instructedLambda": "honest",
            "sd": 8.1,
            "drawnRed": 58,
            "reportedRed": 71,
            "inferredRed": 85,
            "playerTrialScore": -27,
            "oppTrialScore": 27,
            "playerTotalScore": -305,
            "oppTotalScore": 262,
            "waitTime": 5260.486029494075,
            "responseTime": 1682377811679,
            "catchQuestion": "How many <b class=\"r\">red<\/b> marbles did your opponent report drawing? ",
            "catchKey": 71,
            "catchResponse": 73,
            "catchTime": 1682377811679,
            "trialTime": 0
        },
        {
            "exptPart": "trial",
            "trialNumber": 33,
            "roleCurrent": "receiver",
            "marblesSampled": 100,
            "probRed": 0.5,
            "practiceLambda": 5,
            "trialLambda": 8.1,
            "instructedLambda": "honest",
            "sd": 8.1,
            "drawnRed": 68,
            "reportedRed": 89,
            "inferredRed": 90,
            "playerTrialScore": -22,
            "oppTrialScore": 22,
            "playerTotalScore": -327,
            "oppTotalScore": 284,
            "waitTime": 5946.252623914006,
            "responseTime": 1682377883625,
            "catchQuestion": "How many <b class=\"r\">red<\/b> marbles did your opponent report drawing? ",
            "catchKey": -1,
            "catchResponse": -1,
            "catchTime": 1682377811679,
            "trialTime": 0
        },
        {
            "exptPart": "trial",
            "trialNumber": 34,
            "roleCurrent": "receiver",
            "marblesSampled": 100,
            "probRed": 0.5,
            "practiceLambda": 5,
            "trialLambda": 8.1,
            "instructedLambda": "honest",
            "sd": 8.1,
            "drawnRed": 60,
            "reportedRed": 75,
            "inferredRed": 80,
            "playerTrialScore": -20,
            "oppTrialScore": 20,
            "playerTotalScore": -347,
            "oppTotalScore": 304,
            "waitTime": 6422.703928584106,
            "responseTime": 1682378036458,
            "catchQuestion": "How many <b class=\"r\">red<\/b> marbles did your opponent report drawing? ",
            "catchKey": -1,
            "catchResponse": -1,
            "catchTime": 1682377811679,
            "trialTime": 0
        },
        {
            "exptPart": "trial",
            "trialNumber": 35,
            "roleCurrent": "receiver",
            "marblesSampled": 100,
            "probRed": 0.5,
            "practiceLambda": 5,
            "trialLambda": 8.1,
            "instructedLambda": "honest",
            "sd": 8.1,
            "drawnRed": 65,
            "reportedRed": 72,
            "inferredRed": 83,
            "playerTrialScore": -18,
            "oppTrialScore": 18,
            "playerTotalScore": -365,
            "oppTotalScore": 322,
            "waitTime": 5700.927839482834,
            "responseTime": 1682378183680,
            "catchQuestion": "How many <b class=\"r\">red<\/b> marbles did your opponent report drawing? ",
            "catchKey": -1,
            "catchResponse": -1,
            "catchTime": 1682377811679,
            "trialTime": 0
        },
        {
            "exptPart": "trial",
            "trialNumber": 36,
            "roleCurrent": "receiver",
            "marblesSampled": 100,
            "probRed": 0.5,
            "practiceLambda": 5,
            "trialLambda": 8.1,
            "instructedLambda": "honest",
            "sd": 8.1,
            "drawnRed": 80,
            "reportedRed": 87,
            "inferredRed": 88,
            "playerTrialScore": -8,
            "oppTrialScore": 8,
            "playerTotalScore": -373,
            "oppTotalScore": 330,
            "waitTime": 5283.627162901745,
            "responseTime": 1682378288781,
            "catchQuestion": "How many <b class=\"r\">red<\/b> marbles did your opponent report drawing? ",
            "catchKey": -1,
            "catchResponse": -1,
            "catchTime": 1682377811679,
            "trialTime": 0
        },
        {
            "exptPart": "trial",
            "trialNumber": 37,
            "roleCurrent": "receiver",
            "marblesSampled": 100,
            "probRed": 0.5,
            "practiceLambda": 5,
            "trialLambda": 8.1,
            "instructedLambda": "honest",
            "sd": 8.1,
            "drawnRed": 68,
            "reportedRed": 81,
            "inferredRed": 85,
            "playerTrialScore": -17,
            "oppTrialScore": 17,
            "playerTotalScore": -390,
            "oppTotalScore": 347,
            "waitTime": 6253.856648992121,
            "responseTime": 1682378309245,
            "catchQuestion": "How many <b class=\"r\">red<\/b> marbles did your opponent report drawing? ",
            "catchKey": -1,
            "catchResponse": -1,
            "catchTime": 1682377811679,
            "trialTime": 0
        },
        {
            "exptPart": "trial",
            "trialNumber": 38,
            "roleCurrent": "receiver",
            "marblesSampled": 100,
            "probRed": 0.5,
            "practiceLambda": 5,
            "trialLambda": 8.1,
            "instructedLambda": "honest",
            "sd": 8.1,
            "drawnRed": 26,
            "reportedRed": 26,
            "inferredRed": 20,
            "playerTrialScore": -6,
            "oppTrialScore": 0,
            "playerTotalScore": -396,
            "oppTotalScore": 347,
            "waitTime": 7411.570486768399,
            "responseTime": 1682378341429,
            "catchQuestion": "How many <b class=\"r\">red<\/b> marbles did your opponent report drawing? ",
            "catchKey": -1,
            "catchResponse": -1,
            "catchTime": 1682377811679,
            "trialTime": 0
        },
        {
            "exptPart": "trial",
            "trialNumber": 39,
            "roleCurrent": "receiver",
            "marblesSampled": 100,
            "probRed": 0.5,
            "practiceLambda": 5,
            "trialLambda": 8.1,
            "instructedLambda": "honest",
            "sd": 8.1,
            "drawnRed": 22,
            "reportedRed": 40,
            "inferredRed": 45,
            "playerTrialScore": -23,
            "oppTrialScore": 23,
            "playerTotalScore": -419,
            "oppTotalScore": 370,
            "waitTime": 5793.406046906039,
            "responseTime": 1682378365230,
            "catchQuestion": "How many <b class=\"r\">red<\/b> marbles did your opponent report drawing? ",
            "catchKey": -1,
            "catchResponse": -1,
            "catchTime": 1682377811679,
            "trialTime": 0
        },
        {
            "exptPart": "trial",
            "trialNumber": 40,
            "roleCurrent": "receiver",
            "marblesSampled": 100,
            "probRed": 0.5,
            "practiceLambda": 5,
            "trialLambda": 8.1,
            "instructedLambda": "honest",
            "sd": 8.1,
            "drawnRed": 72,
            "reportedRed": 83,
            "inferredRed": 84,
            "playerTrialScore": -12,
            "oppTrialScore": 12,
            "playerTotalScore": -431,
            "oppTotalScore": 382,
            "waitTime": 5663.585522524197,
            "responseTime": 1682378495139,
            "catchQuestion": "How many <b class=\"r\">red<\/b> marbles did your opponent report drawing? ",
            "catchKey": -1,
            "catchResponse": -1,
            "catchTime": 1682378495139,
            "trialTime": 0
        },
        {
            "exptPart": "trial",
            "trialNumber": 41,
            "roleCurrent": "receiver",
            "marblesSampled": 100,
            "probRed": 0.5,
            "practiceLambda": 5,
            "trialLambda": 8.1,
            "instructedLambda": "honest",
            "sd": 8.1,
            "drawnRed": 59,
            "reportedRed": 90,
            "inferredRed": 10,
            "playerTrialScore": -49,
            "oppTrialScore": 0,
            "playerTotalScore": -480,
            "oppTotalScore": 382,
            "waitTime": 5139.013909763815,
            "responseTime": 1682378588134,
            "catchQuestion": "How many <b class=\"r\">red<\/b> marbles did your opponent report drawing? ",
            "catchKey": -1,
            "catchResponse": -1,
            "catchTime": 1682378495139,
            "trialTime": 0
        },
        {
            "exptPart": "trial",
            "trialNumber": 42,
            "roleCurrent": "receiver",
            "marblesSampled": 100,
            "probRed": 0.5,
            "practiceLambda": 5,
            "trialLambda": 8.1,
            "instructedLambda": "honest",
            "sd": 8.1,
            "drawnRed": 18,
            "reportedRed": 21,
            "inferredRed": 20,
            "playerTrialScore": -2,
            "oppTrialScore": 2,
            "playerTotalScore": -482,
            "oppTotalScore": 384,
            "waitTime": 5224.290035228995,
            "responseTime": 1682378625618,
            "catchQuestion": "How many <b class=\"r\">red<\/b> marbles did your opponent report drawing? ",
            "catchKey": -1,
            "catchResponse": -1,
            "catchTime": 1682378495139,
            "trialTime": 0
        },
        {
            "exptPart": "trial",
            "trialNumber": 43,
            "roleCurrent": "receiver",
            "marblesSampled": 100,
            "probRed": 0.5,
            "practiceLambda": 5,
            "trialLambda": 8.1,
            "instructedLambda": "honest",
            "sd": 8.1,
            "drawnRed": 72,
            "reportedRed": 85,
            "inferredRed": 85,
            "playerTrialScore": -13,
            "oppTrialScore": 13,
            "playerTotalScore": -495,
            "oppTotalScore": 397,
            "waitTime": 5695.7901380747935,
            "responseTime": 1682378667604,
            "catchQuestion": "How many <b class=\"r\">red<\/b> marbles did your opponent report drawing? ",
            "catchKey": -1,
            "catchResponse": -1,
            "catchTime": 1682378495139,
            "trialTime": 0
        },
        {
            "exptPart": "trial",
            "trialNumber": 44,
            "roleCurrent": "receiver",
            "marblesSampled": 100,
            "probRed": 0.5,
            "practiceLambda": 5,
            "trialLambda": 8.1,
            "instructedLambda": "honest",
            "sd": 8.1,
            "drawnRed": 33,
            "reportedRed": 44,
            "inferredRed": 35,
            "playerTrialScore": -2,
            "oppTrialScore": 2,
            "playerTotalScore": -497,
            "oppTotalScore": 399,
            "waitTime": 5885.839518789277,
            "responseTime": 1682378709623,
            "catchQuestion": "How many <b class=\"r\">red<\/b> marbles did your opponent report drawing? ",
            "catchKey": -1,
            "catchResponse": -1,
            "catchTime": 1682378495139,
            "trialTime": 0
        },
        {
            "exptPart": "trial",
            "trialNumber": 45,
            "roleCurrent": "receiver",
            "marblesSampled": 100,
            "probRed": 0.5,
            "practiceLambda": 5,
            "trialLambda": 8.1,
            "instructedLambda": "honest",
            "sd": 8.1,
            "drawnRed": 43,
            "reportedRed": 45,
            "inferredRed": 25,
            "playerTrialScore": -18,
            "oppTrialScore": 0,
            "playerTotalScore": -515,
            "oppTotalScore": 399,
            "waitTime": 7039.3283163067645,
            "responseTime": 1682378811967,
            "catchQuestion": "How many <b class=\"r\">red<\/b> marbles did your opponent report drawing? ",
            "catchKey": -1,
            "catchResponse": -1,
            "catchTime": 1682378495139,
            "trialTime": 0
        },
        {
            "exptPart": "trial",
            "trialNumber": 46,
            "roleCurrent": "receiver",
            "marblesSampled": 100,
            "probRed": 0.5,
            "practiceLambda": 5,
            "trialLambda": 8.1,
            "instructedLambda": "honest",
            "sd": 8.1,
            "drawnRed": 59,
            "reportedRed": 79,
            "inferredRed": 80,
            "playerTrialScore": -21,
            "oppTrialScore": 21,
            "playerTotalScore": -536,
            "oppTotalScore": 420,
            "waitTime": 6345.035457948895,
            "responseTime": 1682379117138,
            "catchQuestion": "How many <b class=\"r\">red<\/b> marbles did your opponent report drawing? ",
            "catchKey": -1,
            "catchResponse": -1,
            "catchTime": 1682378495139,
            "trialTime": 0
        },
        {
            "exptPart": "trial",
            "trialNumber": 47,
            "roleCurrent": "receiver",
            "marblesSampled": 100,
            "probRed": 0.5,
            "practiceLambda": 5,
            "trialLambda": 8.1,
            "instructedLambda": "honest",
            "sd": 8.1,
            "drawnRed": 68,
            "reportedRed": 71,
            "inferredRed": 83,
            "playerTrialScore": -15,
            "oppTrialScore": 15,
            "playerTotalScore": -551,
            "oppTotalScore": 435,
            "waitTime": 6643.159246794629,
            "responseTime": 1682379158759,
            "catchQuestion": "How many <b class=\"r\">red<\/b> marbles did your opponent report drawing? ",
            "catchKey": -1,
            "catchResponse": -1,
            "catchTime": 1682378495139,
            "trialTime": 0
        },
        {
            "exptPart": "trial",
            "trialNumber": 48,
            "roleCurrent": "receiver",
            "marblesSampled": 100,
            "probRed": 0.5,
            "practiceLambda": 5,
            "trialLambda": 8.1,
            "instructedLambda": "honest",
            "sd": 8.1,
            "drawnRed": 43,
            "reportedRed": 49,
            "inferredRed": 53,
            "playerTrialScore": -10,
            "oppTrialScore": 10,
            "playerTotalScore": -561,
            "oppTotalScore": 445,
            "waitTime": 6160.675219714181,
            "responseTime": 1682379193416,
            "catchQuestion": "How many <b class=\"r\">red<\/b> marbles did your opponent report drawing? ",
            "catchKey": -1,
            "catchResponse": -1,
            "catchTime": 1682378495139,
            "trialTime": 0
        },
        {
            "exptPart": "trial",
            "trialNumber": 49,
            "roleCurrent": "receiver",
            "marblesSampled": 100,
            "probRed": 0.5,
            "practiceLambda": 5,
            "trialLambda": 8.1,
            "instructedLambda": "honest",
            "sd": 8.1,
            "drawnRed": 75,
            "reportedRed": 81,
            "inferredRed": 84,
            "playerTrialScore": -9,
            "oppTrialScore": 9,
            "playerTotalScore": -570,
            "oppTotalScore": 454,
            "waitTime": 5681.728219029044,
            "responseTime": 1682379211106,
            "catchQuestion": "How many <b class=\"r\">red<\/b> marbles did your opponent report drawing? ",
            "catchKey": -1,
            "catchResponse": -1,
            "catchTime": 1682378495139,
            "trialTime": 0
        },
        {
            "exptPart": "trial",
            "trialNumber": 50,
            "roleCurrent": "receiver",
            "marblesSampled": 100,
            "probRed": 0.5,
            "practiceLambda": 5,
            "trialLambda": 8.1,
            "instructedLambda": "honest",
            "sd": 8.1,
            "drawnRed": 52,
            "reportedRed": 47,
            "inferredRed": 55,
            "playerTrialScore": -3,
            "oppTrialScore": 3,
            "playerTotalScore": -573,
            "oppTotalScore": 457,
            "waitTime": 6369.167857732083,
            "responseTime": 1682379933689,
            "catchQuestion": "How many <b class=\"r\">red<\/b> marbles did your opponent report drawing? ",
            "catchKey": -1,
            "catchResponse": -1,
            "catchTime": 1682379933690,
            "trialTime": 0
        },
        {
            "exptPart": "trial",
            "trialNumber": 51,
            "roleCurrent": "receiver",
            "marblesSampled": 100,
            "probRed": 0.5,
            "practiceLambda": 5,
            "trialLambda": 8.1,
            "instructedLambda": "honest",
            "sd": 8.1,
            "drawnRed": 64,
            "reportedRed": 74,
            "inferredRed": 76,
            "playerTrialScore": -12,
            "oppTrialScore": 12,
            "playerTotalScore": -585,
            "oppTotalScore": 469,
            "waitTime": 7341.727070935593,
            "responseTime": 1682379984094,
            "catchQuestion": "How many <b class=\"r\">red<\/b> marbles did your opponent report drawing? ",
            "catchKey": 74,
            "catchResponse": 74,
            "catchTime": 1682379984094,
            "trialTime": 0
        },
        {
            "exptPart": "trial",
            "trialNumber": 52,
            "roleCurrent": "receiver",
            "marblesSampled": 100,
            "probRed": 0.5,
            "practiceLambda": 5,
            "trialLambda": 8.1,
            "instructedLambda": "honest",
            "sd": 8.1,
            "drawnRed": 39,
            "reportedRed": 48,
            "inferredRed": 55,
            "playerTrialScore": -16,
            "oppTrialScore": 16,
            "playerTotalScore": -601,
            "oppTotalScore": 485,
            "waitTime": 6760.82271012721,
            "responseTime": 1682380154079,
            "catchQuestion": "How many <b class=\"r\">red<\/b> marbles did your opponent report drawing? ",
            "catchKey": -1,
            "catchResponse": -1,
            "catchTime": 1682379984094,
            "trialTime": 0
        },
        {
            "exptPart": "trial",
            "trialNumber": 53,
            "roleCurrent": "receiver",
            "marblesSampled": 100,
            "probRed": 0.5,
            "practiceLambda": 5,
            "trialLambda": 8.1,
            "instructedLambda": "honest",
            "sd": 8.1,
            "drawnRed": 33,
            "reportedRed": 50,
            "inferredRed": 50,
            "playerTrialScore": -17,
            "oppTrialScore": 17,
            "playerTotalScore": -618,
            "oppTotalScore": 502,
            "waitTime": 5417.215847536041,
            "responseTime": 1682380175641,
            "catchQuestion": "How many <b class=\"r\">red<\/b> marbles did your opponent report drawing? ",
            "catchKey": -1,
            "catchResponse": -1,
            "catchTime": 1682379984094,
            "trialTime": 0
        },
        {
            "exptPart": "trial",
            "trialNumber": 54,
            "roleCurrent": "receiver",
            "marblesSampled": 100,
            "probRed": 0.5,
            "practiceLambda": 5,
            "trialLambda": 8.1,
            "instructedLambda": "honest",
            "sd": 8.1,
            "drawnRed": 78,
            "reportedRed": 70,
            "inferredRed": 73,
            "playerTrialScore": -5,
            "oppTrialScore": 0,
            "playerTotalScore": -623,
            "oppTotalScore": 502,
            "waitTime": 5772.945408903648,
            "responseTime": 1682380194144,
            "catchQuestion": "How many <b class=\"r\">red<\/b> marbles did your opponent report drawing? ",
            "catchKey": -1,
            "catchResponse": -1,
            "catchTime": 1682379984094,
            "trialTime": 0
        },
        {
            "exptPart": "trial",
            "trialNumber": 55,
            "roleCurrent": "receiver",
            "marblesSampled": 100,
            "probRed": 0.5,
            "practiceLambda": 5,
            "trialLambda": 8.1,
            "instructedLambda": "honest",
            "sd": 8.1,
            "drawnRed": 75,
            "reportedRed": 83,
            "inferredRed": 87,
            "playerTrialScore": -12,
            "oppTrialScore": 12,
            "playerTotalScore": -635,
            "oppTotalScore": 514,
            "waitTime": 5920.375661384128,
            "responseTime": 1682380429455,
            "catchQuestion": "How many <b class=\"r\">red<\/b> marbles did your opponent report drawing? ",
            "catchKey": -1,
            "catchResponse": -1,
            "catchTime": 1682379984094,
            "trialTime": 0
        },
        {
            "exptPart": "trial",
            "trialNumber": 56,
            "roleCurrent": "receiver",
            "marblesSampled": 100,
            "probRed": 0.5,
            "practiceLambda": 5,
            "trialLambda": 8.1,
            "instructedLambda": "honest",
            "sd": 8.1,
            "drawnRed": 23,
            "reportedRed": 23,
            "inferredRed": 20,
            "playerTrialScore": -3,
            "oppTrialScore": 0,
            "playerTotalScore": -638,
            "oppTotalScore": 514,
            "waitTime": 5958.578166917629,
            "responseTime": 1682380446612,
            "catchQuestion": "How many <b class=\"r\">red<\/b> marbles did your opponent report drawing? ",
            "catchKey": -1,
            "catchResponse": -1,
            "catchTime": 1682379984094,
            "trialTime": 0
        },
        {
            "exptPart": "trial",
            "trialNumber": 57,
            "roleCurrent": "receiver",
            "marblesSampled": 100,
            "probRed": 0.5,
            "practiceLambda": 5,
            "trialLambda": 8.1,
            "instructedLambda": "honest",
            "sd": 8.1,
            "drawnRed": 27,
            "reportedRed": 46,
            "inferredRed": 28,
            "playerTrialScore": -1,
            "oppTrialScore": 1,
            "playerTotalScore": -639,
            "oppTotalScore": 515,
            "waitTime": 6360.586000362475,
            "responseTime": 1682380474520,
            "catchQuestion": "How many <b class=\"r\">red<\/b> marbles did your opponent report drawing? ",
            "catchKey": 46,
            "catchResponse": 47,
            "catchTime": 1682380474520,
            "trialTime": 0
        },
        {
            "exptPart": "trial",
            "trialNumber": 58,
            "roleCurrent": "receiver",
            "marblesSampled": 100,
            "probRed": 0.5,
            "practiceLambda": 5,
            "trialLambda": 8.1,
            "instructedLambda": "honest",
            "sd": 8.1,
            "drawnRed": 14,
            "reportedRed": 20,
            "inferredRed": 20,
            "playerTrialScore": -6,
            "oppTrialScore": 6,
            "playerTotalScore": -645,
            "oppTotalScore": 521,
            "waitTime": 6996.143622731217,
            "responseTime": 1682380556272,
            "catchQuestion": "How many <b class=\"r\">red<\/b> marbles did your opponent report drawing? ",
            "catchKey": -1,
            "catchResponse": -1,
            "catchTime": 1682380474520,
            "trialTime": 0
        },
        {
            "exptPart": "trial",
            "trialNumber": 59,
            "roleCurrent": "receiver",
            "marblesSampled": 100,
            "probRed": 0.5,
            "practiceLambda": 5,
            "trialLambda": 8.1,
            "instructedLambda": "honest",
            "sd": 8.1,
            "drawnRed": 49,
            "reportedRed": 62,
            "inferredRed": 73,
            "playerTrialScore": -24,
            "oppTrialScore": 24,
            "playerTotalScore": -669,
            "oppTotalScore": 545,
            "waitTime": 6412.8260850548995,
            "responseTime": 1682380721561,
            "catchQuestion": "How many <b class=\"r\">red<\/b> marbles did your opponent report drawing? ",
            "catchKey": -1,
            "catchResponse": -1,
            "catchTime": 1682380474520,
            "trialTime": 0
        },
        {
            "exptPart": "trial",
            "trialNumber": 60,
            "roleCurrent": "receiver",
            "marblesSampled": 100,
            "probRed": 0.5,
            "practiceLambda": 5,
            "trialLambda": 8.1,
            "instructedLambda": "honest",
            "sd": 8.1,
            "drawnRed": 16,
            "reportedRed": 27,
            "inferredRed": 21,
            "playerTrialScore": -5,
            "oppTrialScore": 5,
            "playerTotalScore": -674,
            "oppTotalScore": 550,
            "waitTime": 5510.921999323238,
            "responseTime": 1682380804372,
            "catchQuestion": "How many <b class=\"r\">red<\/b> marbles did your opponent report drawing? ",
            "catchKey": -1,
            "catchResponse": -1,
            "catchTime": 1682380804372,
            "trialTime": 0
        },
        {
            "exptPart": "trial",
            "trialNumber": 61,
            "roleCurrent": "receiver",
            "marblesSampled": 100,
            "probRed": 0.5,
            "practiceLambda": 5,
            "trialLambda": 8.1,
            "instructedLambda": "honest",
            "sd": 8.1,
            "drawnRed": 47,
            "reportedRed": 54,
            "inferredRed": 60,
            "playerTrialScore": -13,
            "oppTrialScore": 13,
            "playerTotalScore": -687,
            "oppTotalScore": 563,
            "waitTime": 5450.954580232692,
            "responseTime": 1682380860457,
            "catchQuestion": "How many <b class=\"r\">red<\/b> marbles did your opponent report drawing? ",
            "catchKey": -1,
            "catchResponse": -1,
            "catchTime": 1682380804372,
            "trialTime": 0
        },
        {
            "exptPart": "trial",
            "trialNumber": 62,
            "roleCurrent": "receiver",
            "marblesSampled": 100,
            "probRed": 0.5,
            "practiceLambda": 5,
            "trialLambda": 8.1,
            "instructedLambda": "honest",
            "sd": 8.1,
            "drawnRed": 24,
            "reportedRed": 33,
            "inferredRed": 40,
            "playerTrialScore": -16,
            "oppTrialScore": 16,
            "playerTotalScore": -703,
            "oppTotalScore": 579,
            "waitTime": 6081.273721858002,
            "responseTime": 1682380873476,
            "catchQuestion": "How many <b class=\"r\">red<\/b> marbles did your opponent report drawing? ",
            "catchKey": -1,
            "catchResponse": -1,
            "catchTime": 1682380804372,
            "trialTime": 0
        },
        {
            "exptPart": "trial",
            "trialNumber": 63,
            "roleCurrent": "receiver",
            "marblesSampled": 100,
            "probRed": 0.5,
            "practiceLambda": 5,
            "trialLambda": 8.1,
            "instructedLambda": "honest",
            "sd": 8.1,
            "drawnRed": 58,
            "reportedRed": 78,
            "inferredRed": 85,
            "playerTrialScore": -27,
            "oppTrialScore": 27,
            "playerTotalScore": -730,
            "oppTotalScore": 606,
            "waitTime": 5674.791547132302,
            "responseTime": 1682380958700,
            "catchQuestion": "How many <b class=\"r\">red<\/b> marbles did your opponent report drawing? ",
            "catchKey": -1,
            "catchResponse": -1,
            "catchTime": 1682380804372,
            "trialTime": 0
        },
        {
            "exptPart": "trial",
            "trialNumber": 64,
            "roleCurrent": "receiver",
            "marblesSampled": 100,
            "probRed": 0.5,
            "practiceLambda": 5,
            "trialLambda": 8.1,
            "instructedLambda": "honest",
            "sd": 8.1,
            "drawnRed": 84,
            "reportedRed": 90,
            "inferredRed": 90,
            "playerTrialScore": -6,
            "oppTrialScore": 6,
            "playerTotalScore": -736,
            "oppTotalScore": 612,
            "waitTime": 5620.256141627015,
            "responseTime": 1682380977431,
            "catchQuestion": "How many <b class=\"r\">red<\/b> marbles did your opponent report drawing? ",
            "catchKey": -1,
            "catchResponse": -1,
            "catchTime": 1682380804372,
            "trialTime": 0
        },
        {
            "exptPart": "trial",
            "trialNumber": 65,
            "roleCurrent": "receiver",
            "marblesSampled": 100,
            "probRed": 0.5,
            "practiceLambda": 5,
            "trialLambda": 8.1,
            "instructedLambda": "honest",
            "sd": 8.1,
            "drawnRed": 73,
            "reportedRed": 83,
            "inferredRed": 82,
            "playerTrialScore": -9,
            "oppTrialScore": 9,
            "playerTotalScore": -745,
            "oppTotalScore": 621,
            "waitTime": 5858.7644819870875,
            "responseTime": 1682381060988,
            "catchQuestion": "How many <b class=\"r\">red<\/b> marbles did your opponent report drawing? ",
            "catchKey": -1,
            "catchResponse": -1,
            "catchTime": 1682380804372,
            "trialTime": 0
        },
        {
            "exptPart": "trial",
            "trialNumber": 66,
            "roleCurrent": "receiver",
            "marblesSampled": 100,
            "probRed": 0.5,
            "practiceLambda": 5,
            "trialLambda": 8.1,
            "instructedLambda": "honest",
            "sd": 8.1,
            "drawnRed": 75,
            "reportedRed": 96,
            "inferredRed": 96,
            "playerTrialScore": -21,
            "oppTrialScore": 21,
            "playerTotalScore": -766,
            "oppTotalScore": 642,
            "waitTime": 6361.490036247233,
            "responseTime": 1682381077339,
            "catchQuestion": "How many <b class=\"r\">red<\/b> marbles did your opponent report drawing? ",
            "catchKey": -1,
            "catchResponse": -1,
            "catchTime": 1682380804372,
            "trialTime": 0
        },
        {
            "exptPart": "trial",
            "trialNumber": 67,
            "roleCurrent": "receiver",
            "marblesSampled": 100,
            "probRed": 0.5,
            "practiceLambda": 5,
            "trialLambda": 8.1,
            "instructedLambda": "honest",
            "sd": 8.1,
            "drawnRed": 53,
            "reportedRed": 63,
            "inferredRed": 65,
            "playerTrialScore": -12,
            "oppTrialScore": 12,
            "playerTotalScore": -778,
            "oppTotalScore": 654,
            "waitTime": 7430.260824519422,
            "responseTime": 1682381188157,
            "catchQuestion": "How many <b class=\"r\">red<\/b> marbles did your opponent report drawing? ",
            "catchKey": -1,
            "catchResponse": -1,
            "catchTime": 1682380804372,
            "trialTime": 0
        },
        {
            "exptPart": "trial",
            "trialNumber": 68,
            "roleCurrent": "receiver",
            "marblesSampled": 100,
            "probRed": 0.5,
            "practiceLambda": 5,
            "trialLambda": 8.1,
            "instructedLambda": "honest",
            "sd": 8.1,
            "drawnRed": 62,
            "reportedRed": 74,
            "inferredRed": 85,
            "playerTrialScore": -23,
            "oppTrialScore": 23,
            "playerTotalScore": -801,
            "oppTotalScore": 677,
            "waitTime": 6208.010021411846,
            "responseTime": 1682381202374,
            "catchQuestion": "How many <b class=\"r\">red<\/b> marbles did your opponent report drawing? ",
            "catchKey": -1,
            "catchResponse": -1,
            "catchTime": 1682380804372,
            "trialTime": 0
        },
        {
            "exptPart": "trial",
            "trialNumber": 69,
            "roleCurrent": "receiver",
            "marblesSampled": 100,
            "probRed": 0.5,
            "practiceLambda": 5,
            "trialLambda": 8.1,
            "instructedLambda": "honest",
            "sd": 8.1,
            "drawnRed": 79,
            "reportedRed": 74,
            "inferredRed": 76,
            "playerTrialScore": -3,
            "oppTrialScore": 0,
            "playerTotalScore": -804,
            "oppTotalScore": 677,
            "waitTime": 6627.714105514006,
            "responseTime": 1682381242010,
            "catchQuestion": "How many <b class=\"r\">red<\/b> marbles did your opponent report drawing? ",
            "catchKey": -1,
            "catchResponse": -1,
            "catchTime": 1682380804372,
            "trialTime": 0
        },
        {
            "exptPart": "trial",
            "trialNumber": 70,
            "roleCurrent": "receiver",
            "marblesSampled": 100,
            "probRed": 0.5,
            "practiceLambda": 5,
            "trialLambda": 8.1,
            "instructedLambda": "honest",
            "sd": 8.1,
            "drawnRed": 18,
            "reportedRed": 31,
            "inferredRed": 35,
            "playerTrialScore": -17,
            "oppTrialScore": 17,
            "playerTotalScore": -821,
            "oppTotalScore": 694,
            "waitTime": 6525.15238022499,
            "responseTime": 1682381582410,
            "catchQuestion": "How many <b class=\"r\">red<\/b> marbles did your opponent report drawing? ",
            "catchKey": -1,
            "catchResponse": -1,
            "catchTime": 1682381582410,
            "trialTime": 0
        },
        {
            "exptPart": "trial",
            "trialNumber": 71,
            "roleCurrent": "receiver",
            "marblesSampled": 100,
            "probRed": 0.5,
            "practiceLambda": 5,
            "trialLambda": 8.1,
            "instructedLambda": "honest",
            "sd": 8.1,
            "drawnRed": 44,
            "reportedRed": 62,
            "inferredRed": 65,
            "playerTrialScore": -21,
            "oppTrialScore": 21,
            "playerTotalScore": -842,
            "oppTotalScore": 715,
            "waitTime": 6472.935099978577,
            "responseTime": 1682381713615,
            "catchQuestion": "How many <b class=\"r\">red<\/b> marbles did your opponent report drawing? ",
            "catchKey": -1,
            "catchResponse": -1,
            "catchTime": 1682381582410,
            "trialTime": 0
        },
        {
            "exptPart": "trial",
            "trialNumber": 72,
            "roleCurrent": "receiver",
            "marblesSampled": 100,
            "probRed": 0.5,
            "practiceLambda": 5,
            "trialLambda": 8.1,
            "instructedLambda": "honest",
            "sd": 8.1,
            "drawnRed": 17,
            "reportedRed": 21,
            "inferredRed": 20,
            "playerTrialScore": -3,
            "oppTrialScore": 3,
            "playerTotalScore": -845,
            "oppTotalScore": 718,
            "waitTime": 6426.551215001944,
            "responseTime": 1682381730382,
            "catchQuestion": "How many <b class=\"r\">red<\/b> marbles did your opponent report drawing? ",
            "catchKey": -1,
            "catchResponse": -1,
            "catchTime": 1682381582410,
            "trialTime": 0
        },
        {
            "exptPart": "trial",
            "trialNumber": 73,
            "roleCurrent": "receiver",
            "marblesSampled": 100,
            "probRed": 0.5,
            "practiceLambda": 5,
            "trialLambda": 8.1,
            "instructedLambda": "honest",
            "sd": 8.1,
            "drawnRed": 60,
            "reportedRed": 67,
            "inferredRed": 68,
            "playerTrialScore": -8,
            "oppTrialScore": 8,
            "playerTotalScore": -853,
            "oppTotalScore": 726,
            "waitTime": 5284.08440593703,
            "responseTime": 1682381810271,
            "catchQuestion": "How many <b class=\"r\">red<\/b> marbles did your opponent report drawing? ",
            "catchKey": -1,
            "catchResponse": -1,
            "catchTime": 1682381582410,
            "trialTime": 0
        },
        {
            "exptPart": "trial",
            "trialNumber": 74,
            "roleCurrent": "receiver",
            "marblesSampled": 100,
            "probRed": 0.5,
            "practiceLambda": 5,
            "trialLambda": 8.1,
            "instructedLambda": "honest",
            "sd": 8.1,
            "drawnRed": 37,
            "reportedRed": 44,
            "inferredRed": 50,
            "playerTrialScore": -13,
            "oppTrialScore": 13,
            "playerTotalScore": -866,
            "oppTotalScore": 739,
            "waitTime": 5771.661168237122,
            "responseTime": 1682382105738,
            "catchQuestion": "How many <b class=\"r\">red<\/b> marbles did your opponent report drawing? ",
            "catchKey": -1,
            "catchResponse": -1,
            "catchTime": 1682381582410,
            "trialTime": 0
        },
        {
            "exptPart": "trial",
            "trialNumber": 75,
            "roleCurrent": "receiver",
            "marblesSampled": 100,
            "probRed": 0.5,
            "practiceLambda": 5,
            "trialLambda": 8.1,
            "instructedLambda": "honest",
            "sd": 8.1,
            "drawnRed": 80,
            "reportedRed": 100,
            "inferredRed": 100,
            "playerTrialScore": -20,
            "oppTrialScore": 20,
            "playerTotalScore": -886,
            "oppTotalScore": 759,
            "waitTime": 5395.73349916294,
            "responseTime": 1682382303835,
            "catchQuestion": "How many <b class=\"r\">red<\/b> marbles did your opponent report drawing? ",
            "catchKey": -1,
            "catchResponse": -1,
            "catchTime": 1682381582410,
            "trialTime": 0
        },
        {
            "exptPart": "trial",
            "trialNumber": 76,
            "roleCurrent": "receiver",
            "marblesSampled": 100,
            "probRed": 0.5,
            "practiceLambda": 5,
            "trialLambda": 8.1,
            "instructedLambda": "honest",
            "sd": 8.1,
            "drawnRed": 41,
            "reportedRed": 64,
            "inferredRed": 67,
            "playerTrialScore": -26,
            "oppTrialScore": 26,
            "playerTotalScore": -912,
            "oppTotalScore": 785,
            "waitTime": 6936.822915450024,
            "responseTime": 1682382925980,
            "catchQuestion": "How many <b class=\"r\">red<\/b> marbles did your opponent report drawing? ",
            "catchKey": -1,
            "catchResponse": -1,
            "catchTime": 1682381582410,
            "trialTime": 0
        },
        {
            "exptPart": "trial",
            "trialNumber": 77,
            "roleCurrent": "receiver",
            "marblesSampled": 100,
            "probRed": 0.5,
            "practiceLambda": 5,
            "trialLambda": 8.1,
            "instructedLambda": "honest",
            "sd": 8.1,
            "drawnRed": 85,
            "reportedRed": 83,
            "inferredRed": 84,
            "playerTrialScore": -1,
            "oppTrialScore": 0,
            "playerTotalScore": -913,
            "oppTotalScore": 785,
            "waitTime": 5902.754212714828,
            "responseTime": 1682382968005,
            "catchQuestion": "How many <b class=\"r\">red<\/b> marbles did your opponent report drawing? ",
            "catchKey": -1,
            "catchResponse": -1,
            "catchTime": 1682381582410,
            "trialTime": 0
        },
        {
            "exptPart": "trial",
            "trialNumber": 78,
            "roleCurrent": "receiver",
            "marblesSampled": 100,
            "probRed": 0.5,
            "practiceLambda": 5,
            "trialLambda": 8.1,
            "instructedLambda": "honest",
            "sd": 8.1,
            "drawnRed": 39,
            "reportedRed": 43,
            "inferredRed": 50,
            "playerTrialScore": -11,
            "oppTrialScore": 11,
            "playerTotalScore": -924,
            "oppTotalScore": 796,
            "waitTime": 5880.122511372121,
            "responseTime": 1682383536289,
            "catchQuestion": "How many <b class=\"r\">red<\/b> marbles did your opponent report drawing? ",
            "catchKey": -1,
            "catchResponse": -1,
            "catchTime": 1682381582410,
            "trialTime": 0
        },
        {
            "exptPart": "trial",
            "trialNumber": 79,
            "roleCurrent": "receiver",
            "marblesSampled": 100,
            "probRed": 0.5,
            "practiceLambda": 5,
            "trialLambda": 8.1,
            "instructedLambda": "honest",
            "sd": 8.1,
            "drawnRed": 53,
            "reportedRed": 49,
            "inferredRed": 50,
            "playerTrialScore": -3,
            "oppTrialScore": 0,
            "playerTotalScore": -927,
            "oppTotalScore": 796,
            "waitTime": 6952.934329934662,
            "responseTime": 1682383546894,
            "catchQuestion": "How many <b class=\"r\">red<\/b> marbles did your opponent report drawing? ",
            "catchKey": -1,
            "catchResponse": -1,
            "catchTime": 1682381582410,
            "trialTime": 0
        },
        {
            "exptPart": "trial",
            "trialNumber": 80,
            "roleCurrent": "receiver",
            "marblesSampled": 100,
            "probRed": 0.5,
            "practiceLambda": 5,
            "trialLambda": 8.1,
            "instructedLambda": "honest",
            "sd": 8.1,
            "drawnRed": 67,
            "reportedRed": 72,
            "inferredRed": 75,
            "playerTrialScore": -8,
            "oppTrialScore": 8,
            "playerTotalScore": -935,
            "oppTotalScore": 804,
            "waitTime": 6561.287278899232,
            "responseTime": 1682383572165,
            "catchQuestion": "How many <b class=\"r\">red<\/b> marbles did your opponent report drawing? ",
            "catchKey": -1,
            "catchResponse": -1,
            "catchTime": 1682383572165,
            "trialTime": 0
        },
        {
            "exptPart": "trial",
            "trialNumber": 81,
            "roleCurrent": "receiver",
            "marblesSampled": 100,
            "probRed": 0.5,
            "practiceLambda": 5,
            "trialLambda": 8.1,
            "instructedLambda": "honest",
            "sd": 8.1,
            "drawnRed": 47,
            "reportedRed": 55,
            "inferredRed": 53,
            "playerTrialScore": -6,
            "oppTrialScore": 6,
            "playerTotalScore": -941,
            "oppTotalScore": 810,
            "waitTime": 5659.755612654968,
            "responseTime": 1682383585466,
            "catchQuestion": "How many <b class=\"r\">red<\/b> marbles did your opponent report drawing? ",
            "catchKey": 55,
            "catchResponse": 55,
            "catchTime": 1682383585467,
            "trialTime": 0
        },
        {
            "exptPart": "trial",
            "trialNumber": 82,
            "roleCurrent": "receiver",
            "marblesSampled": 100,
            "probRed": 0.5,
            "practiceLambda": 5,
            "trialLambda": 8.1,
            "instructedLambda": "honest",
            "sd": 8.1,
            "drawnRed": 53,
            "reportedRed": 62,
            "inferredRed": 65,
            "playerTrialScore": -12,
            "oppTrialScore": 12,
            "playerTotalScore": -953,
            "oppTotalScore": 822,
            "waitTime": 6266.677708947987,
            "responseTime": 1682384683813,
            "catchQuestion": "How many <b class=\"r\">red<\/b> marbles did your opponent report drawing? ",
            "catchKey": -1,
            "catchResponse": -1,
            "catchTime": 1682383585467,
            "trialTime": 0
        },
        {
            "exptPart": "trial",
            "trialNumber": 83,
            "roleCurrent": "receiver",
            "marblesSampled": 100,
            "probRed": 0.5,
            "practiceLambda": 5,
            "trialLambda": 8.1,
            "instructedLambda": "honest",
            "sd": 8.1,
            "drawnRed": 42,
            "reportedRed": 49,
            "inferredRed": 50,
            "playerTrialScore": -8,
            "oppTrialScore": 8,
            "playerTotalScore": -961,
            "oppTotalScore": 830,
            "waitTime": 6301.845011132013,
            "responseTime": 1682384701939,
            "catchQuestion": "How many <b class=\"r\">red<\/b> marbles did your opponent report drawing? ",
            "catchKey": -1,
            "catchResponse": -1,
            "catchTime": 1682383585467,
            "trialTime": 0
        },
        {
            "exptPart": "trial",
            "trialNumber": 84,
            "roleCurrent": "receiver",
            "marblesSampled": 100,
            "probRed": 0.5,
            "practiceLambda": 5,
            "trialLambda": 8.1,
            "instructedLambda": "honest",
            "sd": 8.1,
            "drawnRed": 50,
            "reportedRed": 48,
            "inferredRed": 51,
            "playerTrialScore": -1,
            "oppTrialScore": 1,
            "playerTotalScore": -962,
            "oppTotalScore": 831,
            "waitTime": 5631.051492810002,
            "responseTime": 1682384712684,
            "catchQuestion": "How many <b class=\"r\">red<\/b> marbles did your opponent report drawing? ",
            "catchKey": -1,
            "catchResponse": -1,
            "catchTime": 1682383585467,
            "trialTime": 0
        },
        {
            "exptPart": "trial",
            "trialNumber": 85,
            "roleCurrent": "receiver",
            "marblesSampled": 100,
            "probRed": 0.5,
            "practiceLambda": 5,
            "trialLambda": 8.1,
            "instructedLambda": "honest",
            "sd": 8.1,
            "drawnRed": 49,
            "reportedRed": 45,
            "inferredRed": 50,
            "playerTrialScore": -1,
            "oppTrialScore": 1,
            "playerTotalScore": -963,
            "oppTotalScore": 832,
            "waitTime": 6928.7127705863095,
            "responseTime": 1682384736228,
            "catchQuestion": "How many <b class=\"r\">red<\/b> marbles did your opponent report drawing? ",
            "catchKey": -1,
            "catchResponse": -1,
            "catchTime": 1682383585467,
            "trialTime": 0
        },
        {
            "exptPart": "trial",
            "trialNumber": 86,
            "roleCurrent": "receiver",
            "marblesSampled": 100,
            "probRed": 0.5,
            "practiceLambda": 5,
            "trialLambda": 8.1,
            "instructedLambda": "honest",
            "sd": 8.1,
            "drawnRed": 67,
            "reportedRed": 78,
            "inferredRed": 85,
            "playerTrialScore": -18,
            "oppTrialScore": 18,
            "playerTotalScore": -981,
            "oppTotalScore": 850,
            "waitTime": 5929.164182306071,
            "responseTime": 1682384775778,
            "catchQuestion": "How many <b class=\"r\">red<\/b> marbles did your opponent report drawing? ",
            "catchKey": 78,
            "catchResponse": 76,
            "catchTime": 1682384775778,
            "trialTime": 0
        },
        {
            "exptPart": "trial",
            "trialNumber": 87,
            "roleCurrent": "receiver",
            "marblesSampled": 100,
            "probRed": 0.5,
            "practiceLambda": 5,
            "trialLambda": 8.1,
            "instructedLambda": "honest",
            "sd": 8.1,
            "drawnRed": 85,
            "reportedRed": 85,
            "inferredRed": 86,
            "playerTrialScore": -1,
            "oppTrialScore": 1,
            "playerTotalScore": -982,
            "oppTotalScore": 851,
            "waitTime": 6916.083432924714,
            "responseTime": 1682384815237,
            "catchQuestion": "How many <b class=\"r\">red<\/b> marbles did your opponent report drawing? ",
            "catchKey": 85,
            "catchResponse": 85,
            "catchTime": 1682384815237,
            "trialTime": 0
        },
        {
            "exptPart": "trial",
            "trialNumber": 88,
            "roleCurrent": "receiver",
            "marblesSampled": 100,
            "probRed": 0.5,
            "practiceLambda": 5,
            "trialLambda": 8.1,
            "instructedLambda": "honest",
            "sd": 8.1,
            "drawnRed": 38,
            "reportedRed": 50,
            "inferredRed": 51,
            "playerTrialScore": -13,
            "oppTrialScore": 13,
            "playerTotalScore": -995,
            "oppTotalScore": 864,
            "waitTime": 5143.0888646905205,
            "responseTime": 1682384840307,
            "catchQuestion": "How many <b class=\"r\">red<\/b> marbles did your opponent report drawing? ",
            "catchKey": 50,
            "catchResponse": 50,
            "catchTime": 1682384840308,
            "trialTime": 0
        },
        {
            "exptPart": "trial",
            "trialNumber": 89,
            "roleCurrent": "receiver",
            "marblesSampled": 100,
            "probRed": 0.5,
            "practiceLambda": 5,
            "trialLambda": 8.1,
            "instructedLambda": "honest",
            "sd": 8.1,
            "drawnRed": 25,
            "reportedRed": 33,
            "inferredRed": 35,
            "playerTrialScore": -10,
            "oppTrialScore": 10,
            "playerTotalScore": -1005,
            "oppTotalScore": 874,
            "waitTime": 6918.488894896954,
            "responseTime": 1682385230277,
            "catchQuestion": "How many <b class=\"r\">red<\/b> marbles did your opponent report drawing? ",
            "catchKey": -1,
            "catchResponse": -1,
            "catchTime": 1682384840308,
            "trialTime": 0
        },
        {
            "exptPart": "trial",
            "trialNumber": 90,
            "roleCurrent": "receiver",
            "marblesSampled": 100,
            "probRed": 0.5,
            "practiceLambda": 5,
            "trialLambda": 8.1,
            "instructedLambda": "honest",
            "sd": 8.1,
            "drawnRed": 32,
            "reportedRed": 46,
            "inferredRed": 50,
            "playerTrialScore": -18,
            "oppTrialScore": 18,
            "playerTotalScore": -1023,
            "oppTotalScore": 892,
            "waitTime": 6559.3540242428935,
            "responseTime": 1682385260574,
            "catchQuestion": "How many <b class=\"r\">red<\/b> marbles did your opponent report drawing? ",
            "catchKey": -1,
            "catchResponse": -1,
            "catchTime": 1682385260574,
            "trialTime": 0
        },
        {
            "exptPart": "trial",
            "trialNumber": 91,
            "roleCurrent": "receiver",
            "marblesSampled": 100,
            "probRed": 0.5,
            "practiceLambda": 5,
            "trialLambda": 8.1,
            "instructedLambda": "honest",
            "sd": 8.1,
            "drawnRed": 43,
            "reportedRed": 48,
            "inferredRed": 50,
            "playerTrialScore": -7,
            "oppTrialScore": 7,
            "playerTotalScore": -1030,
            "oppTotalScore": 899,
            "waitTime": 5431.100285611465,
            "responseTime": 1682385278114,
            "catchQuestion": "How many <b class=\"r\">red<\/b> marbles did your opponent report drawing? ",
            "catchKey": -1,
            "catchResponse": -1,
            "catchTime": 1682385260574,
            "trialTime": 0
        },
        {
            "exptPart": "trial",
            "trialNumber": 92,
            "roleCurrent": "receiver",
            "marblesSampled": 100,
            "probRed": 0.5,
            "practiceLambda": 5,
            "trialLambda": 8.1,
            "instructedLambda": "honest",
            "sd": 8.1,
            "drawnRed": 58,
            "reportedRed": 61,
            "inferredRed": 60,
            "playerTrialScore": -2,
            "oppTrialScore": 2,
            "playerTotalScore": -1032,
            "oppTotalScore": 901,
            "waitTime": 6083.213138797056,
            "responseTime": 1682385289292,
            "catchQuestion": "How many <b class=\"r\">red<\/b> marbles did your opponent report drawing? ",
            "catchKey": -1,
            "catchResponse": -1,
            "catchTime": 1682385260574,
            "trialTime": 0
        },
        {
            "exptPart": "trial",
            "trialNumber": 93,
            "roleCurrent": "receiver",
            "marblesSampled": 100,
            "probRed": 0.5,
            "practiceLambda": 5,
            "trialLambda": 8.1,
            "instructedLambda": "honest",
            "sd": 8.1,
            "drawnRed": 49,
            "reportedRed": 54,
            "inferredRed": 55,
            "playerTrialScore": -6,
            "oppTrialScore": 6,
            "playerTotalScore": -1038,
            "oppTotalScore": 907,
            "waitTime": 5968.463359074565,
            "responseTime": 1682385309537,
            "catchQuestion": "How many <b class=\"r\">red<\/b> marbles did your opponent report drawing? ",
            "catchKey": 54,
            "catchResponse": 54,
            "catchTime": 1682385309537,
            "trialTime": 0
        },
        {
            "exptPart": "trial",
            "trialNumber": 94,
            "roleCurrent": "receiver",
            "marblesSampled": 100,
            "probRed": 0.5,
            "practiceLambda": 5,
            "trialLambda": 8.1,
            "instructedLambda": "honest",
            "sd": 8.1,
            "drawnRed": 22,
            "reportedRed": 37,
            "inferredRed": 40,
            "playerTrialScore": -18,
            "oppTrialScore": 18,
            "playerTotalScore": -1056,
            "oppTotalScore": 925,
            "waitTime": 6925.344161471434,
            "responseTime": 1682385333026,
            "catchQuestion": "How many <b class=\"r\">red<\/b> marbles did your opponent report drawing? ",
            "catchKey": -1,
            "catchResponse": -1,
            "catchTime": 1682385309537,
            "trialTime": 0
        },
        {
            "exptPart": "trial",
            "trialNumber": 95,
            "roleCurrent": "receiver",
            "marblesSampled": 100,
            "probRed": 0.5,
            "practiceLambda": 5,
            "trialLambda": 8.1,
            "instructedLambda": "honest",
            "sd": 8.1,
            "drawnRed": 48,
            "reportedRed": 52,
            "inferredRed": 50,
            "playerTrialScore": -2,
            "oppTrialScore": 2,
            "playerTotalScore": -1058,
            "oppTotalScore": 927,
            "waitTime": 6397.306851477275,
            "responseTime": 1682385344167,
            "catchQuestion": "How many <b class=\"r\">red<\/b> marbles did your opponent report drawing? ",
            "catchKey": -1,
            "catchResponse": -1,
            "catchTime": 1682385309537,
            "trialTime": 0
        },
        {
            "exptPart": "trial",
            "trialNumber": 96,
            "roleCurrent": "receiver",
            "marblesSampled": 100,
            "probRed": 0.5,
            "practiceLambda": 5,
            "trialLambda": 8.1,
            "instructedLambda": "honest",
            "sd": 8.1,
            "drawnRed": 87,
            "reportedRed": 99,
            "inferredRed": 99,
            "playerTrialScore": -12,
            "oppTrialScore": 12,
            "playerTotalScore": -1070,
            "oppTotalScore": 939,
            "waitTime": 5396.285733162077,
            "responseTime": 1682385355366,
            "catchQuestion": "How many <b class=\"r\">red<\/b> marbles did your opponent report drawing? ",
            "catchKey": -1,
            "catchResponse": -1,
            "catchTime": 1682385309537,
            "trialTime": 0
        },
        {
            "exptPart": "trial",
            "trialNumber": 97,
            "roleCurrent": "receiver",
            "marblesSampled": 100,
            "probRed": 0.5,
            "practiceLambda": 5,
            "trialLambda": 8.1,
            "instructedLambda": "honest",
            "sd": 8.1,
            "drawnRed": 21,
            "reportedRed": 20,
            "inferredRed": 25,
            "playerTrialScore": -4,
            "oppTrialScore": 4,
            "playerTotalScore": -1074,
            "oppTotalScore": 943,
            "waitTime": 6122.115375574222,
            "responseTime": 1682385366192,
            "catchQuestion": "How many <b class=\"r\">red<\/b> marbles did your opponent report drawing? ",
            "catchKey": -1,
            "catchResponse": -1,
            "catchTime": 1682385309537,
            "trialTime": 0
        },
        {
            "exptPart": "trial",
            "trialNumber": 98,
            "roleCurrent": "receiver",
            "marblesSampled": 100,
            "probRed": 0.5,
            "practiceLambda": 5,
            "trialLambda": 8.1,
            "instructedLambda": "honest",
            "sd": 8.1,
            "drawnRed": 33,
            "reportedRed": 43,
            "inferredRed": 44,
            "playerTrialScore": -11,
            "oppTrialScore": 11,
            "playerTotalScore": -1085,
            "oppTotalScore": 954,
            "waitTime": 5454.668162389375,
            "responseTime": 1682385375873,
            "catchQuestion": "How many <b class=\"r\">red<\/b> marbles did your opponent report drawing? ",
            "catchKey": -1,
            "catchResponse": -1,
            "catchTime": 1682385309537,
            "trialTime": 0
        },
        {
            "exptPart": "trial",
            "trialNumber": 99,
            "roleCurrent": "receiver",
            "marblesSampled": 100,
            "probRed": 0.5,
            "practiceLambda": 5,
            "trialLambda": 8.1,
            "instructedLambda": "honest",
            "sd": 8.1,
            "drawnRed": 40,
            "reportedRed": 62,
            "inferredRed": 62,
            "playerTrialScore": -22,
            "oppTrialScore": 22,
            "playerTotalScore": -1107,
            "oppTotalScore": 976,
            "waitTime": 5912.324096841201,
            "responseTime": 1682385391673,
            "catchQuestion": "How many <b class=\"r\">red<\/b> marbles did your opponent report drawing? ",
            "catchKey": -1,
            "catchResponse": -1,
            "catchTime": 1682385309537,
            "trialTime": 0
        },
        {
            "exptPart": "trial",
            "trialNumber": 100,
            "roleCurrent": "receiver",
            "marblesSampled": 100,
            "probRed": 0.5,
            "practiceLambda": 5,
            "trialLambda": 8.1,
            "instructedLambda": "honest",
            "sd": 8.1,
            "drawnRed": 64,
            "reportedRed": 81,
            "inferredRed": 80,
            "playerTrialScore": -16,
            "oppTrialScore": 16,
            "playerTotalScore": -1123,
            "oppTotalScore": 992,
            "waitTime": 7264.062648651177,
            "responseTime": 1682385403547,
            "catchQuestion": "How many <b class=\"r\">red<\/b> marbles did your opponent report drawing? ",
            "catchKey": -1,
            "catchResponse": -1,
            "catchTime": 1682385403547,
            "trialTime": 0
        }
    ]
}