{
    "client": {
        "type": "sona",
        "experiment_id": 2228,
        "credit_token": "b315147ae43241ea9c65086cb510cfb7",
        "survey_code": "47467",
        "sid": "sona-47467",
        "window": {
            "width": 1536,
            "height": 714
        },
        "screen": {
            "width": 1536,
            "height": 864
        },
        "userAgent": "Mozilla\/5.0 (Windows NT 10.0; Win64; x64) AppleWebKit\/537.36 (KHTML, like Gecko) Chrome\/112.0.0.0 Safari\/537.36",
        "score": 0,
        "bonus": 0
    },
    "expt": {
        "saveURL": "submit.simple.php",
        "trials": 100,
        "practiceTrials": 2,
        "marblesSampled": 100,
        "probRed": 0.5,
        "practiceLambdaAI": 5,
        "lambdaAI": 21.9,
        "sd": 8.1,
        "roles": [
            "sender",
            "receiver"
        ],
        "cost": "unif",
        "goal": "over",
        "oppDishonesty": "dishonest_small",
        "catchTrials": [
            27,
            78,
            62,
            66,
            64,
            5,
            98,
            77,
            22,
            73
        ],
        "scoreTotal": {
            "player": -2140,
            "opp": 1191
        },
        "sona": {
            "experiment_id": 2228,
            "credit_token": "b315147ae43241ea9c65086cb510cfb7"
        },
        "pilot": false,
        "debug": false
    },
    "trials": [
        {
            "exptPart": "practice",
            "trialNumber": 1,
            "roleCurrent": "sender",
            "marblesSampled": 100,
            "probRed": 0.5,
            "practiceLambda": 5,
            "trialLambda": 21.9,
            "instructedLambda": "dishonest_small",
            "sd": 8.1,
            "drawnRed": 62,
            "reportedRed": 56,
            "inferredRed": 41,
            "playerTrialScore": 0,
            "oppTrialScore": -21,
            "playerTotalScore": 0,
            "oppTotalScore": -21,
            "waitTime": 2760.0041159912935,
            "responseTime": 1682297740995,
            "catchQuestion": "How many <b class=\"r\">red<\/b> marbles did you actually draw (before any changes)? ",
            "catchKey": 62,
            "catchResponse": 61,
            "catchTime": 1682297740996,
            "trialTime": 0
        },
        {
            "exptPart": "practice",
            "trialNumber": 2,
            "roleCurrent": "receiver",
            "marblesSampled": 100,
            "probRed": 0.5,
            "practiceLambda": 5,
            "trialLambda": 21.9,
            "instructedLambda": "dishonest_small",
            "sd": 8.1,
            "drawnRed": 35,
            "reportedRed": 41,
            "inferredRed": 37,
            "playerTrialScore": -2,
            "oppTrialScore": 2,
            "playerTotalScore": -2,
            "oppTotalScore": -19,
            "waitTime": 5649.5569735738,
            "responseTime": 1682297781057,
            "catchQuestion": "How many <b class=\"r\">red<\/b> marbles did your opponent report drawing? ",
            "catchKey": 41,
            "catchResponse": 41,
            "catchTime": 1682297781057,
            "trialTime": 0
        },
        {
            "exptPart": "trial",
            "trialNumber": 1,
            "roleCurrent": "receiver",
            "marblesSampled": 100,
            "probRed": 0.5,
            "practiceLambda": 5,
            "trialLambda": 21.9,
            "instructedLambda": "dishonest_small",
            "sd": 8.1,
            "drawnRed": 29,
            "reportedRed": 63,
            "inferredRed": 42,
            "playerTrialScore": -13,
            "oppTrialScore": 13,
            "playerTotalScore": -13,
            "oppTotalScore": 13,
            "waitTime": 6963.156787783861,
            "responseTime": 1682297838602,
            "catchQuestion": "How many <b class=\"r\">red<\/b> marbles did your opponent report drawing? ",
            "catchKey": -1,
            "catchResponse": -1,
            "catchTime": 1682297781057,
            "trialTime": 0
        },
        {
            "exptPart": "trial",
            "trialNumber": 2,
            "roleCurrent": "receiver",
            "marblesSampled": 100,
            "probRed": 0.5,
            "practiceLambda": 5,
            "trialLambda": 21.9,
            "instructedLambda": "dishonest_small",
            "sd": 8.1,
            "drawnRed": 49,
            "reportedRed": 61,
            "inferredRed": 53,
            "playerTrialScore": -4,
            "oppTrialScore": 4,
            "playerTotalScore": -17,
            "oppTotalScore": 17,
            "waitTime": 6981.959478505751,
            "responseTime": 1682297852917,
            "catchQuestion": "How many <b class=\"r\">red<\/b> marbles did your opponent report drawing? ",
            "catchKey": -1,
            "catchResponse": -1,
            "catchTime": 1682297781057,
            "trialTime": 0
        },
        {
            "exptPart": "trial",
            "trialNumber": 3,
            "roleCurrent": "receiver",
            "marblesSampled": 100,
            "probRed": 0.5,
            "practiceLambda": 5,
            "trialLambda": 21.9,
            "instructedLambda": "dishonest_small",
            "sd": 8.1,
            "drawnRed": 75,
            "reportedRed": 99,
            "inferredRed": 51,
            "playerTrialScore": -24,
            "oppTrialScore": 0,
            "playerTotalScore": -41,
            "oppTotalScore": 17,
            "waitTime": 5333.868864693299,
            "responseTime": 1682297873709,
            "catchQuestion": "How many <b class=\"r\">red<\/b> marbles did your opponent report drawing? ",
            "catchKey": -1,
            "catchResponse": -1,
            "catchTime": 1682297781057,
            "trialTime": 0
        },
        {
            "exptPart": "trial",
            "trialNumber": 4,
            "roleCurrent": "receiver",
            "marblesSampled": 100,
            "probRed": 0.5,
            "practiceLambda": 5,
            "trialLambda": 21.9,
            "instructedLambda": "dishonest_small",
            "sd": 8.1,
            "drawnRed": 52,
            "reportedRed": 65,
            "inferredRed": 30,
            "playerTrialScore": -22,
            "oppTrialScore": 0,
            "playerTotalScore": -63,
            "oppTotalScore": 17,
            "waitTime": 5252.000609879795,
            "responseTime": 1682297885758,
            "catchQuestion": "How many <b class=\"r\">red<\/b> marbles did your opponent report drawing? ",
            "catchKey": -1,
            "catchResponse": -1,
            "catchTime": 1682297781057,
            "trialTime": 0
        },
        {
            "exptPart": "trial",
            "trialNumber": 5,
            "roleCurrent": "receiver",
            "marblesSampled": 100,
            "probRed": 0.5,
            "practiceLambda": 5,
            "trialLambda": 21.9,
            "instructedLambda": "dishonest_small",
            "sd": 8.1,
            "drawnRed": 59,
            "reportedRed": 84,
            "inferredRed": 60,
            "playerTrialScore": -1,
            "oppTrialScore": 1,
            "playerTotalScore": -64,
            "oppTotalScore": 18,
            "waitTime": 6147.268631599806,
            "responseTime": 1682297896974,
            "catchQuestion": "How many <b class=\"r\">red<\/b> marbles did your opponent report drawing? ",
            "catchKey": -1,
            "catchResponse": -1,
            "catchTime": 1682297781057,
            "trialTime": 0
        },
        {
            "exptPart": "trial",
            "trialNumber": 6,
            "roleCurrent": "receiver",
            "marblesSampled": 100,
            "probRed": 0.5,
            "practiceLambda": 5,
            "trialLambda": 21.9,
            "instructedLambda": "dishonest_small",
            "sd": 8.1,
            "drawnRed": 93,
            "reportedRed": 100,
            "inferredRed": 39,
            "playerTrialScore": -54,
            "oppTrialScore": 0,
            "playerTotalScore": -118,
            "oppTotalScore": 18,
            "waitTime": 7290.714611339612,
            "responseTime": 1682297911831,
            "catchQuestion": "How many <b class=\"r\">red<\/b> marbles did your opponent report drawing? ",
            "catchKey": 100,
            "catchResponse": 100,
            "catchTime": 1682297911831,
            "trialTime": 0
        },
        {
            "exptPart": "trial",
            "trialNumber": 7,
            "roleCurrent": "receiver",
            "marblesSampled": 100,
            "probRed": 0.5,
            "practiceLambda": 5,
            "trialLambda": 21.9,
            "instructedLambda": "dishonest_small",
            "sd": 8.1,
            "drawnRed": 42,
            "reportedRed": 60,
            "inferredRed": 45,
            "playerTrialScore": -3,
            "oppTrialScore": 3,
            "playerTotalScore": -121,
            "oppTotalScore": 21,
            "waitTime": 7316.1441868703605,
            "responseTime": 1682297929368,
            "catchQuestion": "How many <b class=\"r\">red<\/b> marbles did your opponent report drawing? ",
            "catchKey": -1,
            "catchResponse": -1,
            "catchTime": 1682297911831,
            "trialTime": 0
        },
        {
            "exptPart": "trial",
            "trialNumber": 8,
            "roleCurrent": "receiver",
            "marblesSampled": 100,
            "probRed": 0.5,
            "practiceLambda": 5,
            "trialLambda": 21.9,
            "instructedLambda": "dishonest_small",
            "sd": 8.1,
            "drawnRed": 63,
            "reportedRed": 91,
            "inferredRed": 70,
            "playerTrialScore": -7,
            "oppTrialScore": 7,
            "playerTotalScore": -128,
            "oppTotalScore": 28,
            "waitTime": 7255.7043544731705,
            "responseTime": 1682297940078,
            "catchQuestion": "How many <b class=\"r\">red<\/b> marbles did your opponent report drawing? ",
            "catchKey": -1,
            "catchResponse": -1,
            "catchTime": 1682297911831,
            "trialTime": 0
        },
        {
            "exptPart": "trial",
            "trialNumber": 9,
            "roleCurrent": "receiver",
            "marblesSampled": 100,
            "probRed": 0.5,
            "practiceLambda": 5,
            "trialLambda": 21.9,
            "instructedLambda": "dishonest_small",
            "sd": 8.1,
            "drawnRed": 75,
            "reportedRed": 100,
            "inferredRed": 30,
            "playerTrialScore": -45,
            "oppTrialScore": 0,
            "playerTotalScore": -173,
            "oppTotalScore": 28,
            "waitTime": 7293.219055243053,
            "responseTime": 1682297953804,
            "catchQuestion": "How many <b class=\"r\">red<\/b> marbles did your opponent report drawing? ",
            "catchKey": -1,
            "catchResponse": -1,
            "catchTime": 1682297911831,
            "trialTime": 0
        },
        {
            "exptPart": "trial",
            "trialNumber": 10,
            "roleCurrent": "receiver",
            "marblesSampled": 100,
            "probRed": 0.5,
            "practiceLambda": 5,
            "trialLambda": 21.9,
            "instructedLambda": "dishonest_small",
            "sd": 8.1,
            "drawnRed": 49,
            "reportedRed": 63,
            "inferredRed": 41,
            "playerTrialScore": -8,
            "oppTrialScore": 0,
            "playerTotalScore": -181,
            "oppTotalScore": 28,
            "waitTime": 7201.224416874159,
            "responseTime": 1682297967386,
            "catchQuestion": "How many <b class=\"r\">red<\/b> marbles did your opponent report drawing? ",
            "catchKey": -1,
            "catchResponse": -1,
            "catchTime": 1682297967386,
            "trialTime": 0
        },
        {
            "exptPart": "trial",
            "trialNumber": 11,
            "roleCurrent": "receiver",
            "marblesSampled": 100,
            "probRed": 0.5,
            "practiceLambda": 5,
            "trialLambda": 21.9,
            "instructedLambda": "dishonest_small",
            "sd": 8.1,
            "drawnRed": 36,
            "reportedRed": 62,
            "inferredRed": 63,
            "playerTrialScore": -27,
            "oppTrialScore": 27,
            "playerTotalScore": -208,
            "oppTotalScore": 55,
            "waitTime": 5996.623890418086,
            "responseTime": 1682297989511,
            "catchQuestion": "How many <b class=\"r\">red<\/b> marbles did your opponent report drawing? ",
            "catchKey": -1,
            "catchResponse": -1,
            "catchTime": 1682297967386,
            "trialTime": 0
        },
        {
            "exptPart": "trial",
            "trialNumber": 12,
            "roleCurrent": "receiver",
            "marblesSampled": 100,
            "probRed": 0.5,
            "practiceLambda": 5,
            "trialLambda": 21.9,
            "instructedLambda": "dishonest_small",
            "sd": 8.1,
            "drawnRed": 68,
            "reportedRed": 85,
            "inferredRed": 90,
            "playerTrialScore": -22,
            "oppTrialScore": 22,
            "playerTotalScore": -230,
            "oppTotalScore": 77,
            "waitTime": 6648.621105681466,
            "responseTime": 1682298009564,
            "catchQuestion": "How many <b class=\"r\">red<\/b> marbles did your opponent report drawing? ",
            "catchKey": -1,
            "catchResponse": -1,
            "catchTime": 1682297967386,
            "trialTime": 0
        },
        {
            "exptPart": "trial",
            "trialNumber": 13,
            "roleCurrent": "receiver",
            "marblesSampled": 100,
            "probRed": 0.5,
            "practiceLambda": 5,
            "trialLambda": 21.9,
            "instructedLambda": "dishonest_small",
            "sd": 8.1,
            "drawnRed": 48,
            "reportedRed": 77,
            "inferredRed": 77,
            "playerTrialScore": -29,
            "oppTrialScore": 29,
            "playerTotalScore": -259,
            "oppTotalScore": 106,
            "waitTime": 7058.275054617603,
            "responseTime": 1682298021298,
            "catchQuestion": "How many <b class=\"r\">red<\/b> marbles did your opponent report drawing? ",
            "catchKey": -1,
            "catchResponse": -1,
            "catchTime": 1682297967386,
            "trialTime": 0
        },
        {
            "exptPart": "trial",
            "trialNumber": 14,
            "roleCurrent": "receiver",
            "marblesSampled": 100,
            "probRed": 0.5,
            "practiceLambda": 5,
            "trialLambda": 21.9,
            "instructedLambda": "dishonest_small",
            "sd": 8.1,
            "drawnRed": 29,
            "reportedRed": 64,
            "inferredRed": 54,
            "playerTrialScore": -25,
            "oppTrialScore": 25,
            "playerTotalScore": -284,
            "oppTotalScore": 131,
            "waitTime": 5784.232210660847,
            "responseTime": 1682298032370,
            "catchQuestion": "How many <b class=\"r\">red<\/b> marbles did your opponent report drawing? ",
            "catchKey": -1,
            "catchResponse": -1,
            "catchTime": 1682297967386,
            "trialTime": 0
        },
        {
            "exptPart": "trial",
            "trialNumber": 15,
            "roleCurrent": "receiver",
            "marblesSampled": 100,
            "probRed": 0.5,
            "practiceLambda": 5,
            "trialLambda": 21.9,
            "instructedLambda": "dishonest_small",
            "sd": 8.1,
            "drawnRed": 35,
            "reportedRed": 50,
            "inferredRed": 60,
            "playerTrialScore": -25,
            "oppTrialScore": 25,
            "playerTotalScore": -309,
            "oppTotalScore": 156,
            "waitTime": 5900.696110712293,
            "responseTime": 1682298042297,
            "catchQuestion": "How many <b class=\"r\">red<\/b> marbles did your opponent report drawing? ",
            "catchKey": -1,
            "catchResponse": -1,
            "catchTime": 1682297967386,
            "trialTime": 0
        },
        {
            "exptPart": "trial",
            "trialNumber": 16,
            "roleCurrent": "receiver",
            "marblesSampled": 100,
            "probRed": 0.5,
            "practiceLambda": 5,
            "trialLambda": 21.9,
            "instructedLambda": "dishonest_small",
            "sd": 8.1,
            "drawnRed": 64,
            "reportedRed": 78,
            "inferredRed": 83,
            "playerTrialScore": -19,
            "oppTrialScore": 19,
            "playerTotalScore": -328,
            "oppTotalScore": 175,
            "waitTime": 7474.360987438789,
            "responseTime": 1682298055655,
            "catchQuestion": "How many <b class=\"r\">red<\/b> marbles did your opponent report drawing? ",
            "catchKey": -1,
            "catchResponse": -1,
            "catchTime": 1682297967386,
            "trialTime": 0
        },
        {
            "exptPart": "trial",
            "trialNumber": 17,
            "roleCurrent": "receiver",
            "marblesSampled": 100,
            "probRed": 0.5,
            "practiceLambda": 5,
            "trialLambda": 21.9,
            "instructedLambda": "dishonest_small",
            "sd": 8.1,
            "drawnRed": 78,
            "reportedRed": 92,
            "inferredRed": 85,
            "playerTrialScore": -7,
            "oppTrialScore": 7,
            "playerTotalScore": -335,
            "oppTotalScore": 182,
            "waitTime": 6021.028531545198,
            "responseTime": 1682298099325,
            "catchQuestion": "How many <b class=\"r\">red<\/b> marbles did your opponent report drawing? ",
            "catchKey": -1,
            "catchResponse": -1,
            "catchTime": 1682297967386,
            "trialTime": 0
        },
        {
            "exptPart": "trial",
            "trialNumber": 18,
            "roleCurrent": "receiver",
            "marblesSampled": 100,
            "probRed": 0.5,
            "practiceLambda": 5,
            "trialLambda": 21.9,
            "instructedLambda": "dishonest_small",
            "sd": 8.1,
            "drawnRed": 27,
            "reportedRed": 51,
            "inferredRed": 56,
            "playerTrialScore": -29,
            "oppTrialScore": 29,
            "playerTotalScore": -364,
            "oppTotalScore": 211,
            "waitTime": 7242.269899121244,
            "responseTime": 1682298111160,
            "catchQuestion": "How many <b class=\"r\">red<\/b> marbles did your opponent report drawing? ",
            "catchKey": -1,
            "catchResponse": -1,
            "catchTime": 1682297967386,
            "trialTime": 0
        },
        {
            "exptPart": "trial",
            "trialNumber": 19,
            "roleCurrent": "receiver",
            "marblesSampled": 100,
            "probRed": 0.5,
            "practiceLambda": 5,
            "trialLambda": 21.9,
            "instructedLambda": "dishonest_small",
            "sd": 8.1,
            "drawnRed": 49,
            "reportedRed": 57,
            "inferredRed": 60,
            "playerTrialScore": -11,
            "oppTrialScore": 11,
            "playerTotalScore": -375,
            "oppTotalScore": 222,
            "waitTime": 6138.266226858318,
            "responseTime": 1682298123438,
            "catchQuestion": "How many <b class=\"r\">red<\/b> marbles did your opponent report drawing? ",
            "catchKey": -1,
            "catchResponse": -1,
            "catchTime": 1682297967386,
            "trialTime": 0
        },
        {
            "exptPart": "trial",
            "trialNumber": 20,
            "roleCurrent": "receiver",
            "marblesSampled": 100,
            "probRed": 0.5,
            "practiceLambda": 5,
            "trialLambda": 21.9,
            "instructedLambda": "dishonest_small",
            "sd": 8.1,
            "drawnRed": 74,
            "reportedRed": 82,
            "inferredRed": 70,
            "playerTrialScore": -4,
            "oppTrialScore": 0,
            "playerTotalScore": -379,
            "oppTotalScore": 222,
            "waitTime": 5414.282202274647,
            "responseTime": 1682298136635,
            "catchQuestion": "How many <b class=\"r\">red<\/b> marbles did your opponent report drawing? ",
            "catchKey": -1,
            "catchResponse": -1,
            "catchTime": 1682298136635,
            "trialTime": 0
        },
        {
            "exptPart": "trial",
            "trialNumber": 21,
            "roleCurrent": "receiver",
            "marblesSampled": 100,
            "probRed": 0.5,
            "practiceLambda": 5,
            "trialLambda": 21.9,
            "instructedLambda": "dishonest_small",
            "sd": 8.1,
            "drawnRed": 20,
            "reportedRed": 49,
            "inferredRed": 50,
            "playerTrialScore": -30,
            "oppTrialScore": 30,
            "playerTotalScore": -409,
            "oppTotalScore": 252,
            "waitTime": 5369.439302687668,
            "responseTime": 1682298155552,
            "catchQuestion": "How many <b class=\"r\">red<\/b> marbles did your opponent report drawing? ",
            "catchKey": -1,
            "catchResponse": -1,
            "catchTime": 1682298136635,
            "trialTime": 0
        },
        {
            "exptPart": "trial",
            "trialNumber": 22,
            "roleCurrent": "receiver",
            "marblesSampled": 100,
            "probRed": 0.5,
            "practiceLambda": 5,
            "trialLambda": 21.9,
            "instructedLambda": "dishonest_small",
            "sd": 8.1,
            "drawnRed": 66,
            "reportedRed": 89,
            "inferredRed": 70,
            "playerTrialScore": -4,
            "oppTrialScore": 4,
            "playerTotalScore": -413,
            "oppTotalScore": 256,
            "waitTime": 7179.6143007973005,
            "responseTime": 1682298170023,
            "catchQuestion": "How many <b class=\"r\">red<\/b> marbles did your opponent report drawing? ",
            "catchKey": -1,
            "catchResponse": -1,
            "catchTime": 1682298136635,
            "trialTime": 0
        },
        {
            "exptPart": "trial",
            "trialNumber": 23,
            "roleCurrent": "receiver",
            "marblesSampled": 100,
            "probRed": 0.5,
            "practiceLambda": 5,
            "trialLambda": 21.9,
            "instructedLambda": "dishonest_small",
            "sd": 8.1,
            "drawnRed": 38,
            "reportedRed": 54,
            "inferredRed": 45,
            "playerTrialScore": -7,
            "oppTrialScore": 7,
            "playerTotalScore": -420,
            "oppTotalScore": 263,
            "waitTime": 5645.2930048825,
            "responseTime": 1682298181354,
            "catchQuestion": "How many <b class=\"r\">red<\/b> marbles did your opponent report drawing? ",
            "catchKey": 54,
            "catchResponse": 54,
            "catchTime": 1682298181354,
            "trialTime": 0
        },
        {
            "exptPart": "trial",
            "trialNumber": 24,
            "roleCurrent": "receiver",
            "marblesSampled": 100,
            "probRed": 0.5,
            "practiceLambda": 5,
            "trialLambda": 21.9,
            "instructedLambda": "dishonest_small",
            "sd": 8.1,
            "drawnRed": 2,
            "reportedRed": 15,
            "inferredRed": 37,
            "playerTrialScore": -35,
            "oppTrialScore": 35,
            "playerTotalScore": -455,
            "oppTotalScore": 298,
            "waitTime": 6661.366942514311,
            "responseTime": 1682298202578,
            "catchQuestion": "How many <b class=\"r\">red<\/b> marbles did your opponent report drawing? ",
            "catchKey": -1,
            "catchResponse": -1,
            "catchTime": 1682298181354,
            "trialTime": 0
        },
        {
            "exptPart": "trial",
            "trialNumber": 25,
            "roleCurrent": "receiver",
            "marblesSampled": 100,
            "probRed": 0.5,
            "practiceLambda": 5,
            "trialLambda": 21.9,
            "instructedLambda": "dishonest_small",
            "sd": 8.1,
            "drawnRed": 35,
            "reportedRed": 60,
            "inferredRed": 50,
            "playerTrialScore": -15,
            "oppTrialScore": 15,
            "playerTotalScore": -470,
            "oppTotalScore": 313,
            "waitTime": 5395.11569595115,
            "responseTime": 1682298214880,
            "catchQuestion": "How many <b class=\"r\">red<\/b> marbles did your opponent report drawing? ",
            "catchKey": -1,
            "catchResponse": -1,
            "catchTime": 1682298181354,
            "trialTime": 0
        },
        {
            "exptPart": "trial",
            "trialNumber": 26,
            "roleCurrent": "receiver",
            "marblesSampled": 100,
            "probRed": 0.5,
            "practiceLambda": 5,
            "trialLambda": 21.9,
            "instructedLambda": "dishonest_small",
            "sd": 8.1,
            "drawnRed": 56,
            "reportedRed": 67,
            "inferredRed": 77,
            "playerTrialScore": -21,
            "oppTrialScore": 21,
            "playerTotalScore": -491,
            "oppTotalScore": 334,
            "waitTime": 6068.407337782266,
            "responseTime": 1682298229664,
            "catchQuestion": "How many <b class=\"r\">red<\/b> marbles did your opponent report drawing? ",
            "catchKey": -1,
            "catchResponse": -1,
            "catchTime": 1682298181354,
            "trialTime": 0
        },
        {
            "exptPart": "trial",
            "trialNumber": 27,
            "roleCurrent": "receiver",
            "marblesSampled": 100,
            "probRed": 0.5,
            "practiceLambda": 5,
            "trialLambda": 21.9,
            "instructedLambda": "dishonest_small",
            "sd": 8.1,
            "drawnRed": 66,
            "reportedRed": 90,
            "inferredRed": 46,
            "playerTrialScore": -20,
            "oppTrialScore": 0,
            "playerTotalScore": -511,
            "oppTotalScore": 334,
            "waitTime": 7022.72755012049,
            "responseTime": 1682298242688,
            "catchQuestion": "How many <b class=\"r\">red<\/b> marbles did your opponent report drawing? ",
            "catchKey": -1,
            "catchResponse": -1,
            "catchTime": 1682298181354,
            "trialTime": 0
        },
        {
            "exptPart": "trial",
            "trialNumber": 28,
            "roleCurrent": "receiver",
            "marblesSampled": 100,
            "probRed": 0.5,
            "practiceLambda": 5,
            "trialLambda": 21.9,
            "instructedLambda": "dishonest_small",
            "sd": 8.1,
            "drawnRed": 15,
            "reportedRed": 47,
            "inferredRed": 52,
            "playerTrialScore": -37,
            "oppTrialScore": 37,
            "playerTotalScore": -548,
            "oppTotalScore": 371,
            "waitTime": 5761.430868415851,
            "responseTime": 1682298253090,
            "catchQuestion": "How many <b class=\"r\">red<\/b> marbles did your opponent report drawing? ",
            "catchKey": 47,
            "catchResponse": 47,
            "catchTime": 1682298253090,
            "trialTime": 0
        },
        {
            "exptPart": "trial",
            "trialNumber": 29,
            "roleCurrent": "receiver",
            "marblesSampled": 100,
            "probRed": 0.5,
            "practiceLambda": 5,
            "trialLambda": 21.9,
            "instructedLambda": "dishonest_small",
            "sd": 8.1,
            "drawnRed": 63,
            "reportedRed": 89,
            "inferredRed": 70,
            "playerTrialScore": -7,
            "oppTrialScore": 7,
            "playerTotalScore": -555,
            "oppTotalScore": 378,
            "waitTime": 5436.618254368177,
            "responseTime": 1682298267152,
            "catchQuestion": "How many <b class=\"r\">red<\/b> marbles did your opponent report drawing? ",
            "catchKey": -1,
            "catchResponse": -1,
            "catchTime": 1682298253090,
            "trialTime": 0
        },
        {
            "exptPart": "trial",
            "trialNumber": 30,
            "roleCurrent": "receiver",
            "marblesSampled": 100,
            "probRed": 0.5,
            "practiceLambda": 5,
            "trialLambda": 21.9,
            "instructedLambda": "dishonest_small",
            "sd": 8.1,
            "drawnRed": 55,
            "reportedRed": 60,
            "inferredRed": 62,
            "playerTrialScore": -7,
            "oppTrialScore": 7,
            "playerTotalScore": -562,
            "oppTotalScore": 385,
            "waitTime": 5191.512877367075,
            "responseTime": 1682298286229,
            "catchQuestion": "How many <b class=\"r\">red<\/b> marbles did your opponent report drawing? ",
            "catchKey": -1,
            "catchResponse": -1,
            "catchTime": 1682298286230,
            "trialTime": 0
        },
        {
            "exptPart": "trial",
            "trialNumber": 31,
            "roleCurrent": "receiver",
            "marblesSampled": 100,
            "probRed": 0.5,
            "practiceLambda": 5,
            "trialLambda": 21.9,
            "instructedLambda": "dishonest_small",
            "sd": 8.1,
            "drawnRed": 35,
            "reportedRed": 57,
            "inferredRed": 57,
            "playerTrialScore": -22,
            "oppTrialScore": 22,
            "playerTotalScore": -584,
            "oppTotalScore": 407,
            "waitTime": 5290.354071974833,
            "responseTime": 1682298328812,
            "catchQuestion": "How many <b class=\"r\">red<\/b> marbles did your opponent report drawing? ",
            "catchKey": -1,
            "catchResponse": -1,
            "catchTime": 1682298286230,
            "trialTime": 0
        },
        {
            "exptPart": "trial",
            "trialNumber": 32,
            "roleCurrent": "receiver",
            "marblesSampled": 100,
            "probRed": 0.5,
            "practiceLambda": 5,
            "trialLambda": 21.9,
            "instructedLambda": "dishonest_small",
            "sd": 8.1,
            "drawnRed": 49,
            "reportedRed": 80,
            "inferredRed": 80,
            "playerTrialScore": -31,
            "oppTrialScore": 31,
            "playerTotalScore": -615,
            "oppTotalScore": 438,
            "waitTime": 7408.088120855305,
            "responseTime": 1682298339812,
            "catchQuestion": "How many <b class=\"r\">red<\/b> marbles did your opponent report drawing? ",
            "catchKey": -1,
            "catchResponse": -1,
            "catchTime": 1682298286230,
            "trialTime": 0
        },
        {
            "exptPart": "trial",
            "trialNumber": 33,
            "roleCurrent": "receiver",
            "marblesSampled": 100,
            "probRed": 0.5,
            "practiceLambda": 5,
            "trialLambda": 21.9,
            "instructedLambda": "dishonest_small",
            "sd": 8.1,
            "drawnRed": 25,
            "reportedRed": 46,
            "inferredRed": 46,
            "playerTrialScore": -21,
            "oppTrialScore": 21,
            "playerTotalScore": -636,
            "oppTotalScore": 459,
            "waitTime": 6391.6255302544605,
            "responseTime": 1682298349854,
            "catchQuestion": "How many <b class=\"r\">red<\/b> marbles did your opponent report drawing? ",
            "catchKey": -1,
            "catchResponse": -1,
            "catchTime": 1682298286230,
            "trialTime": 0
        },
        {
            "exptPart": "trial",
            "trialNumber": 34,
            "roleCurrent": "receiver",
            "marblesSampled": 100,
            "probRed": 0.5,
            "practiceLambda": 5,
            "trialLambda": 21.9,
            "instructedLambda": "dishonest_small",
            "sd": 8.1,
            "drawnRed": 24,
            "reportedRed": 49,
            "inferredRed": 47,
            "playerTrialScore": -23,
            "oppTrialScore": 23,
            "playerTotalScore": -659,
            "oppTotalScore": 482,
            "waitTime": 5366.3818610164835,
            "responseTime": 1682298361335,
            "catchQuestion": "How many <b class=\"r\">red<\/b> marbles did your opponent report drawing? ",
            "catchKey": -1,
            "catchResponse": -1,
            "catchTime": 1682298286230,
            "trialTime": 0
        },
        {
            "exptPart": "trial",
            "trialNumber": 35,
            "roleCurrent": "receiver",
            "marblesSampled": 100,
            "probRed": 0.5,
            "practiceLambda": 5,
            "trialLambda": 21.9,
            "instructedLambda": "dishonest_small",
            "sd": 8.1,
            "drawnRed": 40,
            "reportedRed": 66,
            "inferredRed": 3,
            "playerTrialScore": -37,
            "oppTrialScore": 0,
            "playerTotalScore": -696,
            "oppTotalScore": 482,
            "waitTime": 6994.46940236497,
            "responseTime": 1682298373435,
            "catchQuestion": "How many <b class=\"r\">red<\/b> marbles did your opponent report drawing? ",
            "catchKey": -1,
            "catchResponse": -1,
            "catchTime": 1682298286230,
            "trialTime": 0
        },
        {
            "exptPart": "trial",
            "trialNumber": 36,
            "roleCurrent": "receiver",
            "marblesSampled": 100,
            "probRed": 0.5,
            "practiceLambda": 5,
            "trialLambda": 21.9,
            "instructedLambda": "dishonest_small",
            "sd": 8.1,
            "drawnRed": 63,
            "reportedRed": 76,
            "inferredRed": 14,
            "playerTrialScore": -49,
            "oppTrialScore": 0,
            "playerTotalScore": -745,
            "oppTotalScore": 482,
            "waitTime": 5871.819767821904,
            "responseTime": 1682298384434,
            "catchQuestion": "How many <b class=\"r\">red<\/b> marbles did your opponent report drawing? ",
            "catchKey": -1,
            "catchResponse": -1,
            "catchTime": 1682298286230,
            "trialTime": 0
        },
        {
            "exptPart": "trial",
            "trialNumber": 37,
            "roleCurrent": "receiver",
            "marblesSampled": 100,
            "probRed": 0.5,
            "practiceLambda": 5,
            "trialLambda": 21.9,
            "instructedLambda": "dishonest_small",
            "sd": 8.1,
            "drawnRed": 29,
            "reportedRed": 63,
            "inferredRed": 40,
            "playerTrialScore": -11,
            "oppTrialScore": 11,
            "playerTotalScore": -756,
            "oppTotalScore": 493,
            "waitTime": 5597.456240658695,
            "responseTime": 1682298393690,
            "catchQuestion": "How many <b class=\"r\">red<\/b> marbles did your opponent report drawing? ",
            "catchKey": -1,
            "catchResponse": -1,
            "catchTime": 1682298286230,
            "trialTime": 0
        },
        {
            "exptPart": "trial",
            "trialNumber": 38,
            "roleCurrent": "receiver",
            "marblesSampled": 100,
            "probRed": 0.5,
            "practiceLambda": 5,
            "trialLambda": 21.9,
            "instructedLambda": "dishonest_small",
            "sd": 8.1,
            "drawnRed": 41,
            "reportedRed": 55,
            "inferredRed": 30,
            "playerTrialScore": -11,
            "oppTrialScore": 0,
            "playerTotalScore": -767,
            "oppTotalScore": 493,
            "waitTime": 7375.042344651462,
            "responseTime": 1682298404739,
            "catchQuestion": "How many <b class=\"r\">red<\/b> marbles did your opponent report drawing? ",
            "catchKey": -1,
            "catchResponse": -1,
            "catchTime": 1682298286230,
            "trialTime": 0
        },
        {
            "exptPart": "trial",
            "trialNumber": 39,
            "roleCurrent": "receiver",
            "marblesSampled": 100,
            "probRed": 0.5,
            "practiceLambda": 5,
            "trialLambda": 21.9,
            "instructedLambda": "dishonest_small",
            "sd": 8.1,
            "drawnRed": 49,
            "reportedRed": 71,
            "inferredRed": 70,
            "playerTrialScore": -21,
            "oppTrialScore": 21,
            "playerTotalScore": -788,
            "oppTotalScore": 514,
            "waitTime": 6537.972946861437,
            "responseTime": 1682298416426,
            "catchQuestion": "How many <b class=\"r\">red<\/b> marbles did your opponent report drawing? ",
            "catchKey": -1,
            "catchResponse": -1,
            "catchTime": 1682298286230,
            "trialTime": 0
        },
        {
            "exptPart": "trial",
            "trialNumber": 40,
            "roleCurrent": "receiver",
            "marblesSampled": 100,
            "probRed": 0.5,
            "practiceLambda": 5,
            "trialLambda": 21.9,
            "instructedLambda": "dishonest_small",
            "sd": 8.1,
            "drawnRed": 89,
            "reportedRed": 100,
            "inferredRed": 50,
            "playerTrialScore": -39,
            "oppTrialScore": 0,
            "playerTotalScore": -827,
            "oppTotalScore": 514,
            "waitTime": 5219.6214911194675,
            "responseTime": 1682298438224,
            "catchQuestion": "How many <b class=\"r\">red<\/b> marbles did your opponent report drawing? ",
            "catchKey": -1,
            "catchResponse": -1,
            "catchTime": 1682298438224,
            "trialTime": 0
        },
        {
            "exptPart": "trial",
            "trialNumber": 41,
            "roleCurrent": "receiver",
            "marblesSampled": 100,
            "probRed": 0.5,
            "practiceLambda": 5,
            "trialLambda": 21.9,
            "instructedLambda": "dishonest_small",
            "sd": 8.1,
            "drawnRed": 43,
            "reportedRed": 67,
            "inferredRed": 50,
            "playerTrialScore": -7,
            "oppTrialScore": 7,
            "playerTotalScore": -834,
            "oppTotalScore": 521,
            "waitTime": 6972.455504738453,
            "responseTime": 1682298452293,
            "catchQuestion": "How many <b class=\"r\">red<\/b> marbles did your opponent report drawing? ",
            "catchKey": -1,
            "catchResponse": -1,
            "catchTime": 1682298438224,
            "trialTime": 0
        },
        {
            "exptPart": "trial",
            "trialNumber": 42,
            "roleCurrent": "receiver",
            "marblesSampled": 100,
            "probRed": 0.5,
            "practiceLambda": 5,
            "trialLambda": 21.9,
            "instructedLambda": "dishonest_small",
            "sd": 8.1,
            "drawnRed": 54,
            "reportedRed": 81,
            "inferredRed": 43,
            "playerTrialScore": -11,
            "oppTrialScore": 0,
            "playerTotalScore": -845,
            "oppTotalScore": 521,
            "waitTime": 7091.451726884412,
            "responseTime": 1682298464072,
            "catchQuestion": "How many <b class=\"r\">red<\/b> marbles did your opponent report drawing? ",
            "catchKey": -1,
            "catchResponse": -1,
            "catchTime": 1682298438224,
            "trialTime": 0
        },
        {
            "exptPart": "trial",
            "trialNumber": 43,
            "roleCurrent": "receiver",
            "marblesSampled": 100,
            "probRed": 0.5,
            "practiceLambda": 5,
            "trialLambda": 21.9,
            "instructedLambda": "dishonest_small",
            "sd": 8.1,
            "drawnRed": 31,
            "reportedRed": 43,
            "inferredRed": 50,
            "playerTrialScore": -19,
            "oppTrialScore": 19,
            "playerTotalScore": -864,
            "oppTotalScore": 540,
            "waitTime": 5769.416998042761,
            "responseTime": 1682298481905,
            "catchQuestion": "How many <b class=\"r\">red<\/b> marbles did your opponent report drawing? ",
            "catchKey": -1,
            "catchResponse": -1,
            "catchTime": 1682298438224,
            "trialTime": 0
        },
        {
            "exptPart": "trial",
            "trialNumber": 44,
            "roleCurrent": "receiver",
            "marblesSampled": 100,
            "probRed": 0.5,
            "practiceLambda": 5,
            "trialLambda": 21.9,
            "instructedLambda": "dishonest_small",
            "sd": 8.1,
            "drawnRed": 41,
            "reportedRed": 80,
            "inferredRed": 60,
            "playerTrialScore": -19,
            "oppTrialScore": 19,
            "playerTotalScore": -883,
            "oppTotalScore": 559,
            "waitTime": 7472.933367500153,
            "responseTime": 1682298498767,
            "catchQuestion": "How many <b class=\"r\">red<\/b> marbles did your opponent report drawing? ",
            "catchKey": -1,
            "catchResponse": -1,
            "catchTime": 1682298438224,
            "trialTime": 0
        },
        {
            "exptPart": "trial",
            "trialNumber": 45,
            "roleCurrent": "receiver",
            "marblesSampled": 100,
            "probRed": 0.5,
            "practiceLambda": 5,
            "trialLambda": 21.9,
            "instructedLambda": "dishonest_small",
            "sd": 8.1,
            "drawnRed": 45,
            "reportedRed": 76,
            "inferredRed": 56,
            "playerTrialScore": -11,
            "oppTrialScore": 11,
            "playerTotalScore": -894,
            "oppTotalScore": 570,
            "waitTime": 6628.924960025783,
            "responseTime": 1682298528466,
            "catchQuestion": "How many <b class=\"r\">red<\/b> marbles did your opponent report drawing? ",
            "catchKey": -1,
            "catchResponse": -1,
            "catchTime": 1682298438224,
            "trialTime": 0
        },
        {
            "exptPart": "trial",
            "trialNumber": 46,
            "roleCurrent": "receiver",
            "marblesSampled": 100,
            "probRed": 0.5,
            "practiceLambda": 5,
            "trialLambda": 21.9,
            "instructedLambda": "dishonest_small",
            "sd": 8.1,
            "drawnRed": 70,
            "reportedRed": 97,
            "inferredRed": 3,
            "playerTrialScore": -67,
            "oppTrialScore": 0,
            "playerTotalScore": -961,
            "oppTotalScore": 570,
            "waitTime": 5270.126204852407,
            "responseTime": 1682298539144,
            "catchQuestion": "How many <b class=\"r\">red<\/b> marbles did your opponent report drawing? ",
            "catchKey": -1,
            "catchResponse": -1,
            "catchTime": 1682298438224,
            "trialTime": 0
        },
        {
            "exptPart": "trial",
            "trialNumber": 47,
            "roleCurrent": "receiver",
            "marblesSampled": 100,
            "probRed": 0.5,
            "practiceLambda": 5,
            "trialLambda": 21.9,
            "instructedLambda": "dishonest_small",
            "sd": 8.1,
            "drawnRed": 62,
            "reportedRed": 83,
            "inferredRed": 56,
            "playerTrialScore": -6,
            "oppTrialScore": 0,
            "playerTotalScore": -967,
            "oppTotalScore": 570,
            "waitTime": 6969.757909745689,
            "responseTime": 1682298560293,
            "catchQuestion": "How many <b class=\"r\">red<\/b> marbles did your opponent report drawing? ",
            "catchKey": -1,
            "catchResponse": -1,
            "catchTime": 1682298438224,
            "trialTime": 0
        },
        {
            "exptPart": "trial",
            "trialNumber": 48,
            "roleCurrent": "receiver",
            "marblesSampled": 100,
            "probRed": 0.5,
            "practiceLambda": 5,
            "trialLambda": 21.9,
            "instructedLambda": "dishonest_small",
            "sd": 8.1,
            "drawnRed": 76,
            "reportedRed": 94,
            "inferredRed": 6,
            "playerTrialScore": -70,
            "oppTrialScore": 0,
            "playerTotalScore": -1037,
            "oppTotalScore": 570,
            "waitTime": 5174.492167452771,
            "responseTime": 1682298578354,
            "catchQuestion": "How many <b class=\"r\">red<\/b> marbles did your opponent report drawing? ",
            "catchKey": -1,
            "catchResponse": -1,
            "catchTime": 1682298438224,
            "trialTime": 0
        },
        {
            "exptPart": "trial",
            "trialNumber": 49,
            "roleCurrent": "receiver",
            "marblesSampled": 100,
            "probRed": 0.5,
            "practiceLambda": 5,
            "trialLambda": 21.9,
            "instructedLambda": "dishonest_small",
            "sd": 8.1,
            "drawnRed": 64,
            "reportedRed": 99,
            "inferredRed": 1,
            "playerTrialScore": -63,
            "oppTrialScore": 0,
            "playerTotalScore": -1100,
            "oppTotalScore": 570,
            "waitTime": 5217.701765594609,
            "responseTime": 1682298587371,
            "catchQuestion": "How many <b class=\"r\">red<\/b> marbles did your opponent report drawing? ",
            "catchKey": -1,
            "catchResponse": -1,
            "catchTime": 1682298438224,
            "trialTime": 0
        },
        {
            "exptPart": "trial",
            "trialNumber": 50,
            "roleCurrent": "receiver",
            "marblesSampled": 100,
            "probRed": 0.5,
            "practiceLambda": 5,
            "trialLambda": 21.9,
            "instructedLambda": "dishonest_small",
            "sd": 8.1,
            "drawnRed": 31,
            "reportedRed": 39,
            "inferredRed": 30,
            "playerTrialScore": -1,
            "oppTrialScore": 0,
            "playerTotalScore": -1101,
            "oppTotalScore": 570,
            "waitTime": 5693.843784029821,
            "responseTime": 1682298600932,
            "catchQuestion": "How many <b class=\"r\">red<\/b> marbles did your opponent report drawing? ",
            "catchKey": -1,
            "catchResponse": -1,
            "catchTime": 1682298600932,
            "trialTime": 0
        },
        {
            "exptPart": "trial",
            "trialNumber": 51,
            "roleCurrent": "receiver",
            "marblesSampled": 100,
            "probRed": 0.5,
            "practiceLambda": 5,
            "trialLambda": 21.9,
            "instructedLambda": "dishonest_small",
            "sd": 8.1,
            "drawnRed": 58,
            "reportedRed": 84,
            "inferredRed": 69,
            "playerTrialScore": -11,
            "oppTrialScore": 11,
            "playerTotalScore": -1112,
            "oppTotalScore": 581,
            "waitTime": 7154.919397662174,
            "responseTime": 1682298616251,
            "catchQuestion": "How many <b class=\"r\">red<\/b> marbles did your opponent report drawing? ",
            "catchKey": -1,
            "catchResponse": -1,
            "catchTime": 1682298600932,
            "trialTime": 0
        },
        {
            "exptPart": "trial",
            "trialNumber": 52,
            "roleCurrent": "receiver",
            "marblesSampled": 100,
            "probRed": 0.5,
            "practiceLambda": 5,
            "trialLambda": 21.9,
            "instructedLambda": "dishonest_small",
            "sd": 8.1,
            "drawnRed": 72,
            "reportedRed": 99,
            "inferredRed": 1,
            "playerTrialScore": -71,
            "oppTrialScore": 0,
            "playerTotalScore": -1183,
            "oppTotalScore": 581,
            "waitTime": 5573.654108615091,
            "responseTime": 1682298626770,
            "catchQuestion": "How many <b class=\"r\">red<\/b> marbles did your opponent report drawing? ",
            "catchKey": -1,
            "catchResponse": -1,
            "catchTime": 1682298600932,
            "trialTime": 0
        },
        {
            "exptPart": "trial",
            "trialNumber": 53,
            "roleCurrent": "receiver",
            "marblesSampled": 100,
            "probRed": 0.5,
            "practiceLambda": 5,
            "trialLambda": 21.9,
            "instructedLambda": "dishonest_small",
            "sd": 8.1,
            "drawnRed": 47,
            "reportedRed": 72,
            "inferredRed": 28,
            "playerTrialScore": -19,
            "oppTrialScore": 0,
            "playerTotalScore": -1202,
            "oppTotalScore": 581,
            "waitTime": 5587.141084376522,
            "responseTime": 1682298639006,
            "catchQuestion": "How many <b class=\"r\">red<\/b> marbles did your opponent report drawing? ",
            "catchKey": -1,
            "catchResponse": -1,
            "catchTime": 1682298600932,
            "trialTime": 0
        },
        {
            "exptPart": "trial",
            "trialNumber": 54,
            "roleCurrent": "receiver",
            "marblesSampled": 100,
            "probRed": 0.5,
            "practiceLambda": 5,
            "trialLambda": 21.9,
            "instructedLambda": "dishonest_small",
            "sd": 8.1,
            "drawnRed": 52,
            "reportedRed": 73,
            "inferredRed": 70,
            "playerTrialScore": -18,
            "oppTrialScore": 18,
            "playerTotalScore": -1220,
            "oppTotalScore": 599,
            "waitTime": 5576.728362673959,
            "responseTime": 1682298674474,
            "catchQuestion": "How many <b class=\"r\">red<\/b> marbles did your opponent report drawing? ",
            "catchKey": -1,
            "catchResponse": -1,
            "catchTime": 1682298600932,
            "trialTime": 0
        },
        {
            "exptPart": "trial",
            "trialNumber": 55,
            "roleCurrent": "receiver",
            "marblesSampled": 100,
            "probRed": 0.5,
            "practiceLambda": 5,
            "trialLambda": 21.9,
            "instructedLambda": "dishonest_small",
            "sd": 8.1,
            "drawnRed": 45,
            "reportedRed": 74,
            "inferredRed": 80,
            "playerTrialScore": -35,
            "oppTrialScore": 35,
            "playerTotalScore": -1255,
            "oppTotalScore": 634,
            "waitTime": 6280.777076040284,
            "responseTime": 1682298685020,
            "catchQuestion": "How many <b class=\"r\">red<\/b> marbles did your opponent report drawing? ",
            "catchKey": -1,
            "catchResponse": -1,
            "catchTime": 1682298600932,
            "trialTime": 0
        },
        {
            "exptPart": "trial",
            "trialNumber": 56,
            "roleCurrent": "receiver",
            "marblesSampled": 100,
            "probRed": 0.5,
            "practiceLambda": 5,
            "trialLambda": 21.9,
            "instructedLambda": "dishonest_small",
            "sd": 8.1,
            "drawnRed": 25,
            "reportedRed": 41,
            "inferredRed": 56,
            "playerTrialScore": -31,
            "oppTrialScore": 31,
            "playerTotalScore": -1286,
            "oppTotalScore": 665,
            "waitTime": 6313.971323769954,
            "responseTime": 1682298695570,
            "catchQuestion": "How many <b class=\"r\">red<\/b> marbles did your opponent report drawing? ",
            "catchKey": -1,
            "catchResponse": -1,
            "catchTime": 1682298600932,
            "trialTime": 0
        },
        {
            "exptPart": "trial",
            "trialNumber": 57,
            "roleCurrent": "receiver",
            "marblesSampled": 100,
            "probRed": 0.5,
            "practiceLambda": 5,
            "trialLambda": 21.9,
            "instructedLambda": "dishonest_small",
            "sd": 8.1,
            "drawnRed": 40,
            "reportedRed": 63,
            "inferredRed": 70,
            "playerTrialScore": -30,
            "oppTrialScore": 30,
            "playerTotalScore": -1316,
            "oppTotalScore": 695,
            "waitTime": 5427.3781593694,
            "responseTime": 1682298705366,
            "catchQuestion": "How many <b class=\"r\">red<\/b> marbles did your opponent report drawing? ",
            "catchKey": -1,
            "catchResponse": -1,
            "catchTime": 1682298600932,
            "trialTime": 0
        },
        {
            "exptPart": "trial",
            "trialNumber": 58,
            "roleCurrent": "receiver",
            "marblesSampled": 100,
            "probRed": 0.5,
            "practiceLambda": 5,
            "trialLambda": 21.9,
            "instructedLambda": "dishonest_small",
            "sd": 8.1,
            "drawnRed": 46,
            "reportedRed": 57,
            "inferredRed": 69,
            "playerTrialScore": -23,
            "oppTrialScore": 23,
            "playerTotalScore": -1339,
            "oppTotalScore": 718,
            "waitTime": 5778.945174940827,
            "responseTime": 1682298715421,
            "catchQuestion": "How many <b class=\"r\">red<\/b> marbles did your opponent report drawing? ",
            "catchKey": -1,
            "catchResponse": -1,
            "catchTime": 1682298600932,
            "trialTime": 0
        },
        {
            "exptPart": "trial",
            "trialNumber": 59,
            "roleCurrent": "receiver",
            "marblesSampled": 100,
            "probRed": 0.5,
            "practiceLambda": 5,
            "trialLambda": 21.9,
            "instructedLambda": "dishonest_small",
            "sd": 8.1,
            "drawnRed": 71,
            "reportedRed": 95,
            "inferredRed": 97,
            "playerTrialScore": -26,
            "oppTrialScore": 26,
            "playerTotalScore": -1365,
            "oppTotalScore": 744,
            "waitTime": 5673.814810389391,
            "responseTime": 1682298724107,
            "catchQuestion": "How many <b class=\"r\">red<\/b> marbles did your opponent report drawing? ",
            "catchKey": -1,
            "catchResponse": -1,
            "catchTime": 1682298600932,
            "trialTime": 0
        },
        {
            "exptPart": "trial",
            "trialNumber": 60,
            "roleCurrent": "receiver",
            "marblesSampled": 100,
            "probRed": 0.5,
            "practiceLambda": 5,
            "trialLambda": 21.9,
            "instructedLambda": "dishonest_small",
            "sd": 8.1,
            "drawnRed": 55,
            "reportedRed": 76,
            "inferredRed": 82,
            "playerTrialScore": -27,
            "oppTrialScore": 27,
            "playerTotalScore": -1392,
            "oppTotalScore": 771,
            "waitTime": 5653.752634249953,
            "responseTime": 1682298734598,
            "catchQuestion": "How many <b class=\"r\">red<\/b> marbles did your opponent report drawing? ",
            "catchKey": -1,
            "catchResponse": -1,
            "catchTime": 1682298734598,
            "trialTime": 0
        },
        {
            "exptPart": "trial",
            "trialNumber": 61,
            "roleCurrent": "receiver",
            "marblesSampled": 100,
            "probRed": 0.5,
            "practiceLambda": 5,
            "trialLambda": 21.9,
            "instructedLambda": "dishonest_small",
            "sd": 8.1,
            "drawnRed": 86,
            "reportedRed": 100,
            "inferredRed": 50,
            "playerTrialScore": -36,
            "oppTrialScore": 0,
            "playerTotalScore": -1428,
            "oppTotalScore": 771,
            "waitTime": 5746.6831862967865,
            "responseTime": 1682298753831,
            "catchQuestion": "How many <b class=\"r\">red<\/b> marbles did your opponent report drawing? ",
            "catchKey": -1,
            "catchResponse": -1,
            "catchTime": 1682298734598,
            "trialTime": 0
        },
        {
            "exptPart": "trial",
            "trialNumber": 62,
            "roleCurrent": "receiver",
            "marblesSampled": 100,
            "probRed": 0.5,
            "practiceLambda": 5,
            "trialLambda": 21.9,
            "instructedLambda": "dishonest_small",
            "sd": 8.1,
            "drawnRed": 76,
            "reportedRed": 95,
            "inferredRed": 90,
            "playerTrialScore": -14,
            "oppTrialScore": 14,
            "playerTotalScore": -1442,
            "oppTotalScore": 785,
            "waitTime": 5477.881631583807,
            "responseTime": 1682298764899,
            "catchQuestion": "How many <b class=\"r\">red<\/b> marbles did your opponent report drawing? ",
            "catchKey": -1,
            "catchResponse": -1,
            "catchTime": 1682298734598,
            "trialTime": 0
        },
        {
            "exptPart": "trial",
            "trialNumber": 63,
            "roleCurrent": "receiver",
            "marblesSampled": 100,
            "probRed": 0.5,
            "practiceLambda": 5,
            "trialLambda": 21.9,
            "instructedLambda": "dishonest_small",
            "sd": 8.1,
            "drawnRed": 36,
            "reportedRed": 60,
            "inferredRed": 30,
            "playerTrialScore": -6,
            "oppTrialScore": 0,
            "playerTotalScore": -1448,
            "oppTotalScore": 785,
            "waitTime": 5514.737975334284,
            "responseTime": 1682298773530,
            "catchQuestion": "How many <b class=\"r\">red<\/b> marbles did your opponent report drawing? ",
            "catchKey": 60,
            "catchResponse": 60,
            "catchTime": 1682298773530,
            "trialTime": 0
        },
        {
            "exptPart": "trial",
            "trialNumber": 64,
            "roleCurrent": "receiver",
            "marblesSampled": 100,
            "probRed": 0.5,
            "practiceLambda": 5,
            "trialLambda": 21.9,
            "instructedLambda": "dishonest_small",
            "sd": 8.1,
            "drawnRed": 69,
            "reportedRed": 99,
            "inferredRed": 80,
            "playerTrialScore": -11,
            "oppTrialScore": 11,
            "playerTotalScore": -1459,
            "oppTotalScore": 796,
            "waitTime": 7471.728313777897,
            "responseTime": 1682298795481,
            "catchQuestion": "How many <b class=\"r\">red<\/b> marbles did your opponent report drawing? ",
            "catchKey": -1,
            "catchResponse": -1,
            "catchTime": 1682298773530,
            "trialTime": 0
        },
        {
            "exptPart": "trial",
            "trialNumber": 65,
            "roleCurrent": "receiver",
            "marblesSampled": 100,
            "probRed": 0.5,
            "practiceLambda": 5,
            "trialLambda": 21.9,
            "instructedLambda": "dishonest_small",
            "sd": 8.1,
            "drawnRed": 81,
            "reportedRed": 91,
            "inferredRed": 80,
            "playerTrialScore": -1,
            "oppTrialScore": 0,
            "playerTotalScore": -1460,
            "oppTotalScore": 796,
            "waitTime": 5193.94856809126,
            "responseTime": 1682298809178,
            "catchQuestion": "How many <b class=\"r\">red<\/b> marbles did your opponent report drawing? ",
            "catchKey": 91,
            "catchResponse": 91,
            "catchTime": 1682298809179,
            "trialTime": 0
        },
        {
            "exptPart": "trial",
            "trialNumber": 66,
            "roleCurrent": "receiver",
            "marblesSampled": 100,
            "probRed": 0.5,
            "practiceLambda": 5,
            "trialLambda": 21.9,
            "instructedLambda": "dishonest_small",
            "sd": 8.1,
            "drawnRed": 38,
            "reportedRed": 63,
            "inferredRed": 70,
            "playerTrialScore": -32,
            "oppTrialScore": 32,
            "playerTotalScore": -1492,
            "oppTotalScore": 828,
            "waitTime": 5194.464118782182,
            "responseTime": 1682298823662,
            "catchQuestion": "How many <b class=\"r\">red<\/b> marbles did your opponent report drawing? ",
            "catchKey": -1,
            "catchResponse": -1,
            "catchTime": 1682298809179,
            "trialTime": 0
        },
        {
            "exptPart": "trial",
            "trialNumber": 67,
            "roleCurrent": "receiver",
            "marblesSampled": 100,
            "probRed": 0.5,
            "practiceLambda": 5,
            "trialLambda": 21.9,
            "instructedLambda": "dishonest_small",
            "sd": 8.1,
            "drawnRed": 7,
            "reportedRed": 17,
            "inferredRed": 30,
            "playerTrialScore": -23,
            "oppTrialScore": 23,
            "playerTotalScore": -1515,
            "oppTotalScore": 851,
            "waitTime": 5893.038146848296,
            "responseTime": 1682298833136,
            "catchQuestion": "How many <b class=\"r\">red<\/b> marbles did your opponent report drawing? ",
            "catchKey": 17,
            "catchResponse": 17,
            "catchTime": 1682298833136,
            "trialTime": 0
        },
        {
            "exptPart": "trial",
            "trialNumber": 68,
            "roleCurrent": "receiver",
            "marblesSampled": 100,
            "probRed": 0.5,
            "practiceLambda": 5,
            "trialLambda": 21.9,
            "instructedLambda": "dishonest_small",
            "sd": 8.1,
            "drawnRed": 36,
            "reportedRed": 67,
            "inferredRed": 69,
            "playerTrialScore": -33,
            "oppTrialScore": 33,
            "playerTotalScore": -1548,
            "oppTotalScore": 884,
            "waitTime": 5489.524699123951,
            "responseTime": 1682298845623,
            "catchQuestion": "How many <b class=\"r\">red<\/b> marbles did your opponent report drawing? ",
            "catchKey": -1,
            "catchResponse": -1,
            "catchTime": 1682298833136,
            "trialTime": 0
        },
        {
            "exptPart": "trial",
            "trialNumber": 69,
            "roleCurrent": "receiver",
            "marblesSampled": 100,
            "probRed": 0.5,
            "practiceLambda": 5,
            "trialLambda": 21.9,
            "instructedLambda": "dishonest_small",
            "sd": 8.1,
            "drawnRed": 76,
            "reportedRed": 87,
            "inferredRed": 90,
            "playerTrialScore": -14,
            "oppTrialScore": 14,
            "playerTotalScore": -1562,
            "oppTotalScore": 898,
            "waitTime": 7403.940609521991,
            "responseTime": 1682298856879,
            "catchQuestion": "How many <b class=\"r\">red<\/b> marbles did your opponent report drawing? ",
            "catchKey": -1,
            "catchResponse": -1,
            "catchTime": 1682298833136,
            "trialTime": 0
        },
        {
            "exptPart": "trial",
            "trialNumber": 70,
            "roleCurrent": "receiver",
            "marblesSampled": 100,
            "probRed": 0.5,
            "practiceLambda": 5,
            "trialLambda": 21.9,
            "instructedLambda": "dishonest_small",
            "sd": 8.1,
            "drawnRed": 55,
            "reportedRed": 87,
            "inferredRed": 93,
            "playerTrialScore": -38,
            "oppTrialScore": 38,
            "playerTotalScore": -1600,
            "oppTotalScore": 936,
            "waitTime": 6170.244464437915,
            "responseTime": 1682298867130,
            "catchQuestion": "How many <b class=\"r\">red<\/b> marbles did your opponent report drawing? ",
            "catchKey": -1,
            "catchResponse": -1,
            "catchTime": 1682298867130,
            "trialTime": 0
        },
        {
            "exptPart": "trial",
            "trialNumber": 71,
            "roleCurrent": "receiver",
            "marblesSampled": 100,
            "probRed": 0.5,
            "practiceLambda": 5,
            "trialLambda": 21.9,
            "instructedLambda": "dishonest_small",
            "sd": 8.1,
            "drawnRed": 74,
            "reportedRed": 93,
            "inferredRed": 60,
            "playerTrialScore": -14,
            "oppTrialScore": 0,
            "playerTotalScore": -1614,
            "oppTotalScore": 936,
            "waitTime": 6435.691964740456,
            "responseTime": 1682298878157,
            "catchQuestion": "How many <b class=\"r\">red<\/b> marbles did your opponent report drawing? ",
            "catchKey": -1,
            "catchResponse": -1,
            "catchTime": 1682298867130,
            "trialTime": 0
        },
        {
            "exptPart": "trial",
            "trialNumber": 72,
            "roleCurrent": "receiver",
            "marblesSampled": 100,
            "probRed": 0.5,
            "practiceLambda": 5,
            "trialLambda": 21.9,
            "instructedLambda": "dishonest_small",
            "sd": 8.1,
            "drawnRed": 30,
            "reportedRed": 49,
            "inferredRed": 40,
            "playerTrialScore": -10,
            "oppTrialScore": 10,
            "playerTotalScore": -1624,
            "oppTotalScore": 946,
            "waitTime": 5384.212998676878,
            "responseTime": 1682298886095,
            "catchQuestion": "How many <b class=\"r\">red<\/b> marbles did your opponent report drawing? ",
            "catchKey": -1,
            "catchResponse": -1,
            "catchTime": 1682298867130,
            "trialTime": 0
        },
        {
            "exptPart": "trial",
            "trialNumber": 73,
            "roleCurrent": "receiver",
            "marblesSampled": 100,
            "probRed": 0.5,
            "practiceLambda": 5,
            "trialLambda": 21.9,
            "instructedLambda": "dishonest_small",
            "sd": 8.1,
            "drawnRed": 63,
            "reportedRed": 94,
            "inferredRed": 6,
            "playerTrialScore": -57,
            "oppTrialScore": 0,
            "playerTotalScore": -1681,
            "oppTotalScore": 946,
            "waitTime": 6373.951771396853,
            "responseTime": 1682298897610,
            "catchQuestion": "How many <b class=\"r\">red<\/b> marbles did your opponent report drawing? ",
            "catchKey": -1,
            "catchResponse": -1,
            "catchTime": 1682298867130,
            "trialTime": 0
        },
        {
            "exptPart": "trial",
            "trialNumber": 74,
            "roleCurrent": "receiver",
            "marblesSampled": 100,
            "probRed": 0.5,
            "practiceLambda": 5,
            "trialLambda": 21.9,
            "instructedLambda": "dishonest_small",
            "sd": 8.1,
            "drawnRed": 67,
            "reportedRed": 84,
            "inferredRed": 60,
            "playerTrialScore": -7,
            "oppTrialScore": 0,
            "playerTotalScore": -1688,
            "oppTotalScore": 946,
            "waitTime": 5327.1621402378405,
            "responseTime": 1682298906410,
            "catchQuestion": "How many <b class=\"r\">red<\/b> marbles did your opponent report drawing? ",
            "catchKey": 84,
            "catchResponse": 84,
            "catchTime": 1682298906410,
            "trialTime": 0
        },
        {
            "exptPart": "trial",
            "trialNumber": 75,
            "roleCurrent": "receiver",
            "marblesSampled": 100,
            "probRed": 0.5,
            "practiceLambda": 5,
            "trialLambda": 21.9,
            "instructedLambda": "dishonest_small",
            "sd": 8.1,
            "drawnRed": 34,
            "reportedRed": 56,
            "inferredRed": 50,
            "playerTrialScore": -16,
            "oppTrialScore": 16,
            "playerTotalScore": -1704,
            "oppTotalScore": 962,
            "waitTime": 6352.644747937367,
            "responseTime": 1682298919562,
            "catchQuestion": "How many <b class=\"r\">red<\/b> marbles did your opponent report drawing? ",
            "catchKey": -1,
            "catchResponse": -1,
            "catchTime": 1682298906410,
            "trialTime": 0
        },
        {
            "exptPart": "trial",
            "trialNumber": 76,
            "roleCurrent": "receiver",
            "marblesSampled": 100,
            "probRed": 0.5,
            "practiceLambda": 5,
            "trialLambda": 21.9,
            "instructedLambda": "dishonest_small",
            "sd": 8.1,
            "drawnRed": 75,
            "reportedRed": 100,
            "inferredRed": 50,
            "playerTrialScore": -25,
            "oppTrialScore": 0,
            "playerTotalScore": -1729,
            "oppTotalScore": 962,
            "waitTime": 5611.326326313174,
            "responseTime": 1682298984758,
            "catchQuestion": "How many <b class=\"r\">red<\/b> marbles did your opponent report drawing? ",
            "catchKey": -1,
            "catchResponse": -1,
            "catchTime": 1682298906410,
            "trialTime": 0
        },
        {
            "exptPart": "trial",
            "trialNumber": 77,
            "roleCurrent": "receiver",
            "marblesSampled": 100,
            "probRed": 0.5,
            "practiceLambda": 5,
            "trialLambda": 21.9,
            "instructedLambda": "dishonest_small",
            "sd": 8.1,
            "drawnRed": 46,
            "reportedRed": 67,
            "inferredRed": 51,
            "playerTrialScore": -5,
            "oppTrialScore": 5,
            "playerTotalScore": -1734,
            "oppTotalScore": 967,
            "waitTime": 5667.572892866977,
            "responseTime": 1682298995753,
            "catchQuestion": "How many <b class=\"r\">red<\/b> marbles did your opponent report drawing? ",
            "catchKey": -1,
            "catchResponse": -1,
            "catchTime": 1682298906410,
            "trialTime": 0
        },
        {
            "exptPart": "trial",
            "trialNumber": 78,
            "roleCurrent": "receiver",
            "marblesSampled": 100,
            "probRed": 0.5,
            "practiceLambda": 5,
            "trialLambda": 21.9,
            "instructedLambda": "dishonest_small",
            "sd": 8.1,
            "drawnRed": 49,
            "reportedRed": 72,
            "inferredRed": 60,
            "playerTrialScore": -11,
            "oppTrialScore": 11,
            "playerTotalScore": -1745,
            "oppTotalScore": 978,
            "waitTime": 6081.993796590479,
            "responseTime": 1682299006537,
            "catchQuestion": "How many <b class=\"r\">red<\/b> marbles did your opponent report drawing? ",
            "catchKey": 72,
            "catchResponse": 72,
            "catchTime": 1682299006537,
            "trialTime": 0
        },
        {
            "exptPart": "trial",
            "trialNumber": 79,
            "roleCurrent": "receiver",
            "marblesSampled": 100,
            "probRed": 0.5,
            "practiceLambda": 5,
            "trialLambda": 21.9,
            "instructedLambda": "dishonest_small",
            "sd": 8.1,
            "drawnRed": 75,
            "reportedRed": 98,
            "inferredRed": 60,
            "playerTrialScore": -15,
            "oppTrialScore": 0,
            "playerTotalScore": -1760,
            "oppTotalScore": 978,
            "waitTime": 6957.749999277624,
            "responseTime": 1682299023650,
            "catchQuestion": "How many <b class=\"r\">red<\/b> marbles did your opponent report drawing? ",
            "catchKey": 98,
            "catchResponse": 98,
            "catchTime": 1682299023650,
            "trialTime": 0
        },
        {
            "exptPart": "trial",
            "trialNumber": 80,
            "roleCurrent": "receiver",
            "marblesSampled": 100,
            "probRed": 0.5,
            "practiceLambda": 5,
            "trialLambda": 21.9,
            "instructedLambda": "dishonest_small",
            "sd": 8.1,
            "drawnRed": 59,
            "reportedRed": 77,
            "inferredRed": 36,
            "playerTrialScore": -23,
            "oppTrialScore": 0,
            "playerTotalScore": -1783,
            "oppTotalScore": 978,
            "waitTime": 5435.066659339005,
            "responseTime": 1682299049866,
            "catchQuestion": "How many <b class=\"r\">red<\/b> marbles did your opponent report drawing? ",
            "catchKey": -1,
            "catchResponse": -1,
            "catchTime": 1682299049866,
            "trialTime": 0
        },
        {
            "exptPart": "trial",
            "trialNumber": 81,
            "roleCurrent": "receiver",
            "marblesSampled": 100,
            "probRed": 0.5,
            "practiceLambda": 5,
            "trialLambda": 21.9,
            "instructedLambda": "dishonest_small",
            "sd": 8.1,
            "drawnRed": 52,
            "reportedRed": 78,
            "inferredRed": 40,
            "playerTrialScore": -12,
            "oppTrialScore": 0,
            "playerTotalScore": -1795,
            "oppTotalScore": 978,
            "waitTime": 5421.756814378796,
            "responseTime": 1682299059777,
            "catchQuestion": "How many <b class=\"r\">red<\/b> marbles did your opponent report drawing? ",
            "catchKey": -1,
            "catchResponse": -1,
            "catchTime": 1682299049866,
            "trialTime": 0
        },
        {
            "exptPart": "trial",
            "trialNumber": 82,
            "roleCurrent": "receiver",
            "marblesSampled": 100,
            "probRed": 0.5,
            "practiceLambda": 5,
            "trialLambda": 21.9,
            "instructedLambda": "dishonest_small",
            "sd": 8.1,
            "drawnRed": 42,
            "reportedRed": 78,
            "inferredRed": 40,
            "playerTrialScore": -2,
            "oppTrialScore": 0,
            "playerTotalScore": -1797,
            "oppTotalScore": 978,
            "waitTime": 6790.278618634107,
            "responseTime": 1682299094200,
            "catchQuestion": "How many <b class=\"r\">red<\/b> marbles did your opponent report drawing? ",
            "catchKey": -1,
            "catchResponse": -1,
            "catchTime": 1682299049866,
            "trialTime": 0
        },
        {
            "exptPart": "trial",
            "trialNumber": 83,
            "roleCurrent": "receiver",
            "marblesSampled": 100,
            "probRed": 0.5,
            "practiceLambda": 5,
            "trialLambda": 21.9,
            "instructedLambda": "dishonest_small",
            "sd": 8.1,
            "drawnRed": 62,
            "reportedRed": 90,
            "inferredRed": 50,
            "playerTrialScore": -12,
            "oppTrialScore": 0,
            "playerTotalScore": -1809,
            "oppTotalScore": 978,
            "waitTime": 6934.888999467328,
            "responseTime": 1682299109396,
            "catchQuestion": "How many <b class=\"r\">red<\/b> marbles did your opponent report drawing? ",
            "catchKey": -1,
            "catchResponse": -1,
            "catchTime": 1682299049866,
            "trialTime": 0
        },
        {
            "exptPart": "trial",
            "trialNumber": 84,
            "roleCurrent": "receiver",
            "marblesSampled": 100,
            "probRed": 0.5,
            "practiceLambda": 5,
            "trialLambda": 21.9,
            "instructedLambda": "dishonest_small",
            "sd": 8.1,
            "drawnRed": 48,
            "reportedRed": 79,
            "inferredRed": 30,
            "playerTrialScore": -18,
            "oppTrialScore": 0,
            "playerTotalScore": -1827,
            "oppTotalScore": 978,
            "waitTime": 6141.628410886249,
            "responseTime": 1682299118427,
            "catchQuestion": "How many <b class=\"r\">red<\/b> marbles did your opponent report drawing? ",
            "catchKey": -1,
            "catchResponse": -1,
            "catchTime": 1682299049866,
            "trialTime": 0
        },
        {
            "exptPart": "trial",
            "trialNumber": 85,
            "roleCurrent": "receiver",
            "marblesSampled": 100,
            "probRed": 0.5,
            "practiceLambda": 5,
            "trialLambda": 21.9,
            "instructedLambda": "dishonest_small",
            "sd": 8.1,
            "drawnRed": 22,
            "reportedRed": 35,
            "inferredRed": 20,
            "playerTrialScore": -2,
            "oppTrialScore": 0,
            "playerTotalScore": -1829,
            "oppTotalScore": 978,
            "waitTime": 6809.7359168560715,
            "responseTime": 1682299133256,
            "catchQuestion": "How many <b class=\"r\">red<\/b> marbles did your opponent report drawing? ",
            "catchKey": -1,
            "catchResponse": -1,
            "catchTime": 1682299049866,
            "trialTime": 0
        },
        {
            "exptPart": "trial",
            "trialNumber": 86,
            "roleCurrent": "receiver",
            "marblesSampled": 100,
            "probRed": 0.5,
            "practiceLambda": 5,
            "trialLambda": 21.9,
            "instructedLambda": "dishonest_small",
            "sd": 8.1,
            "drawnRed": 58,
            "reportedRed": 75,
            "inferredRed": 50,
            "playerTrialScore": -8,
            "oppTrialScore": 0,
            "playerTotalScore": -1837,
            "oppTotalScore": 978,
            "waitTime": 6963.144173536134,
            "responseTime": 1682299142952,
            "catchQuestion": "How many <b class=\"r\">red<\/b> marbles did your opponent report drawing? ",
            "catchKey": -1,
            "catchResponse": -1,
            "catchTime": 1682299049866,
            "trialTime": 0
        },
        {
            "exptPart": "trial",
            "trialNumber": 87,
            "roleCurrent": "receiver",
            "marblesSampled": 100,
            "probRed": 0.5,
            "practiceLambda": 5,
            "trialLambda": 21.9,
            "instructedLambda": "dishonest_small",
            "sd": 8.1,
            "drawnRed": 34,
            "reportedRed": 64,
            "inferredRed": 50,
            "playerTrialScore": -16,
            "oppTrialScore": 16,
            "playerTotalScore": -1853,
            "oppTotalScore": 994,
            "waitTime": 6934.723733338882,
            "responseTime": 1682299152633,
            "catchQuestion": "How many <b class=\"r\">red<\/b> marbles did your opponent report drawing? ",
            "catchKey": -1,
            "catchResponse": -1,
            "catchTime": 1682299049866,
            "trialTime": 0
        },
        {
            "exptPart": "trial",
            "trialNumber": 88,
            "roleCurrent": "receiver",
            "marblesSampled": 100,
            "probRed": 0.5,
            "practiceLambda": 5,
            "trialLambda": 21.9,
            "instructedLambda": "dishonest_small",
            "sd": 8.1,
            "drawnRed": 67,
            "reportedRed": 95,
            "inferredRed": 56,
            "playerTrialScore": -11,
            "oppTrialScore": 0,
            "playerTotalScore": -1864,
            "oppTotalScore": 994,
            "waitTime": 6725.7281729629885,
            "responseTime": 1682299166647,
            "catchQuestion": "How many <b class=\"r\">red<\/b> marbles did your opponent report drawing? ",
            "catchKey": -1,
            "catchResponse": -1,
            "catchTime": 1682299049866,
            "trialTime": 0
        },
        {
            "exptPart": "trial",
            "trialNumber": 89,
            "roleCurrent": "receiver",
            "marblesSampled": 100,
            "probRed": 0.5,
            "practiceLambda": 5,
            "trialLambda": 21.9,
            "instructedLambda": "dishonest_small",
            "sd": 8.1,
            "drawnRed": 54,
            "reportedRed": 78,
            "inferredRed": 60,
            "playerTrialScore": -6,
            "oppTrialScore": 6,
            "playerTotalScore": -1870,
            "oppTotalScore": 1000,
            "waitTime": 6489.424494760773,
            "responseTime": 1682299180371,
            "catchQuestion": "How many <b class=\"r\">red<\/b> marbles did your opponent report drawing? ",
            "catchKey": -1,
            "catchResponse": -1,
            "catchTime": 1682299049866,
            "trialTime": 0
        },
        {
            "exptPart": "trial",
            "trialNumber": 90,
            "roleCurrent": "receiver",
            "marblesSampled": 100,
            "probRed": 0.5,
            "practiceLambda": 5,
            "trialLambda": 21.9,
            "instructedLambda": "dishonest_small",
            "sd": 8.1,
            "drawnRed": 39,
            "reportedRed": 52,
            "inferredRed": 40,
            "playerTrialScore": -1,
            "oppTrialScore": 1,
            "playerTotalScore": -1871,
            "oppTotalScore": 1001,
            "waitTime": 7030.613472126834,
            "responseTime": 1682299199105,
            "catchQuestion": "How many <b class=\"r\">red<\/b> marbles did your opponent report drawing? ",
            "catchKey": -1,
            "catchResponse": -1,
            "catchTime": 1682299199105,
            "trialTime": 0
        },
        {
            "exptPart": "trial",
            "trialNumber": 91,
            "roleCurrent": "receiver",
            "marblesSampled": 100,
            "probRed": 0.5,
            "practiceLambda": 5,
            "trialLambda": 21.9,
            "instructedLambda": "dishonest_small",
            "sd": 8.1,
            "drawnRed": 66,
            "reportedRed": 81,
            "inferredRed": 80,
            "playerTrialScore": -14,
            "oppTrialScore": 14,
            "playerTotalScore": -1885,
            "oppTotalScore": 1015,
            "waitTime": 5701.965359711336,
            "responseTime": 1682299209614,
            "catchQuestion": "How many <b class=\"r\">red<\/b> marbles did your opponent report drawing? ",
            "catchKey": -1,
            "catchResponse": -1,
            "catchTime": 1682299199105,
            "trialTime": 0
        },
        {
            "exptPart": "trial",
            "trialNumber": 92,
            "roleCurrent": "receiver",
            "marblesSampled": 100,
            "probRed": 0.5,
            "practiceLambda": 5,
            "trialLambda": 21.9,
            "instructedLambda": "dishonest_small",
            "sd": 8.1,
            "drawnRed": 57,
            "reportedRed": 98,
            "inferredRed": 94,
            "playerTrialScore": -37,
            "oppTrialScore": 37,
            "playerTotalScore": -1922,
            "oppTotalScore": 1052,
            "waitTime": 6807.563874341757,
            "responseTime": 1682299221301,
            "catchQuestion": "How many <b class=\"r\">red<\/b> marbles did your opponent report drawing? ",
            "catchKey": -1,
            "catchResponse": -1,
            "catchTime": 1682299199105,
            "trialTime": 0
        },
        {
            "exptPart": "trial",
            "trialNumber": 93,
            "roleCurrent": "receiver",
            "marblesSampled": 100,
            "probRed": 0.5,
            "practiceLambda": 5,
            "trialLambda": 21.9,
            "instructedLambda": "dishonest_small",
            "sd": 8.1,
            "drawnRed": 58,
            "reportedRed": 84,
            "inferredRed": 90,
            "playerTrialScore": -32,
            "oppTrialScore": 32,
            "playerTotalScore": -1954,
            "oppTotalScore": 1084,
            "waitTime": 7324.054752685538,
            "responseTime": 1682299231326,
            "catchQuestion": "How many <b class=\"r\">red<\/b> marbles did your opponent report drawing? ",
            "catchKey": -1,
            "catchResponse": -1,
            "catchTime": 1682299199105,
            "trialTime": 0
        },
        {
            "exptPart": "trial",
            "trialNumber": 94,
            "roleCurrent": "receiver",
            "marblesSampled": 100,
            "probRed": 0.5,
            "practiceLambda": 5,
            "trialLambda": 21.9,
            "instructedLambda": "dishonest_small",
            "sd": 8.1,
            "drawnRed": 73,
            "reportedRed": 85,
            "inferredRed": 90,
            "playerTrialScore": -17,
            "oppTrialScore": 17,
            "playerTotalScore": -1971,
            "oppTotalScore": 1101,
            "waitTime": 6080.837761311899,
            "responseTime": 1682299240023,
            "catchQuestion": "How many <b class=\"r\">red<\/b> marbles did your opponent report drawing? ",
            "catchKey": -1,
            "catchResponse": -1,
            "catchTime": 1682299199105,
            "trialTime": 0
        },
        {
            "exptPart": "trial",
            "trialNumber": 95,
            "roleCurrent": "receiver",
            "marblesSampled": 100,
            "probRed": 0.5,
            "practiceLambda": 5,
            "trialLambda": 21.9,
            "instructedLambda": "dishonest_small",
            "sd": 8.1,
            "drawnRed": 28,
            "reportedRed": 45,
            "inferredRed": 50,
            "playerTrialScore": -22,
            "oppTrialScore": 22,
            "playerTotalScore": -1993,
            "oppTotalScore": 1123,
            "waitTime": 5875.818051916458,
            "responseTime": 1682299250747,
            "catchQuestion": "How many <b class=\"r\">red<\/b> marbles did your opponent report drawing? ",
            "catchKey": -1,
            "catchResponse": -1,
            "catchTime": 1682299199105,
            "trialTime": 0
        },
        {
            "exptPart": "trial",
            "trialNumber": 96,
            "roleCurrent": "receiver",
            "marblesSampled": 100,
            "probRed": 0.5,
            "practiceLambda": 5,
            "trialLambda": 21.9,
            "instructedLambda": "dishonest_small",
            "sd": 8.1,
            "drawnRed": 28,
            "reportedRed": 40,
            "inferredRed": 50,
            "playerTrialScore": -22,
            "oppTrialScore": 22,
            "playerTotalScore": -2015,
            "oppTotalScore": 1145,
            "waitTime": 5778.505726002924,
            "responseTime": 1682299261165,
            "catchQuestion": "How many <b class=\"r\">red<\/b> marbles did your opponent report drawing? ",
            "catchKey": -1,
            "catchResponse": -1,
            "catchTime": 1682299199105,
            "trialTime": 0
        },
        {
            "exptPart": "trial",
            "trialNumber": 97,
            "roleCurrent": "receiver",
            "marblesSampled": 100,
            "probRed": 0.5,
            "practiceLambda": 5,
            "trialLambda": 21.9,
            "instructedLambda": "dishonest_small",
            "sd": 8.1,
            "drawnRed": 78,
            "reportedRed": 100,
            "inferredRed": 1,
            "playerTrialScore": -77,
            "oppTrialScore": 0,
            "playerTotalScore": -2092,
            "oppTotalScore": 1145,
            "waitTime": 6935.853076448143,
            "responseTime": 1682299276591,
            "catchQuestion": "How many <b class=\"r\">red<\/b> marbles did your opponent report drawing? ",
            "catchKey": -1,
            "catchResponse": -1,
            "catchTime": 1682299199105,
            "trialTime": 0
        },
        {
            "exptPart": "trial",
            "trialNumber": 98,
            "roleCurrent": "receiver",
            "marblesSampled": 100,
            "probRed": 0.5,
            "practiceLambda": 5,
            "trialLambda": 21.9,
            "instructedLambda": "dishonest_small",
            "sd": 8.1,
            "drawnRed": 52,
            "reportedRed": 83,
            "inferredRed": 83,
            "playerTrialScore": -31,
            "oppTrialScore": 31,
            "playerTotalScore": -2123,
            "oppTotalScore": 1176,
            "waitTime": 6546.572034484913,
            "responseTime": 1682299285923,
            "catchQuestion": "How many <b class=\"r\">red<\/b> marbles did your opponent report drawing? ",
            "catchKey": -1,
            "catchResponse": -1,
            "catchTime": 1682299199105,
            "trialTime": 0
        },
        {
            "exptPart": "trial",
            "trialNumber": 99,
            "roleCurrent": "receiver",
            "marblesSampled": 100,
            "probRed": 0.5,
            "practiceLambda": 5,
            "trialLambda": 21.9,
            "instructedLambda": "dishonest_small",
            "sd": 8.1,
            "drawnRed": 54,
            "reportedRed": 80,
            "inferredRed": 69,
            "playerTrialScore": -15,
            "oppTrialScore": 15,
            "playerTotalScore": -2138,
            "oppTotalScore": 1191,
            "waitTime": 7215.123498660476,
            "responseTime": 1682299298633,
            "catchQuestion": "How many <b class=\"r\">red<\/b> marbles did your opponent report drawing? ",
            "catchKey": 80,
            "catchResponse": 80,
            "catchTime": 1682299298633,
            "trialTime": 0
        },
        {
            "exptPart": "trial",
            "trialNumber": 100,
            "roleCurrent": "receiver",
            "marblesSampled": 100,
            "probRed": 0.5,
            "practiceLambda": 5,
            "trialLambda": 21.9,
            "instructedLambda": "dishonest_small",
            "sd": 8.1,
            "drawnRed": 35,
            "reportedRed": 54,
            "inferredRed": 33,
            "playerTrialScore": -2,
            "oppTrialScore": 0,
            "playerTotalScore": -2140,
            "oppTotalScore": 1191,
            "waitTime": 5528.141065457997,
            "responseTime": 1682299315388,
            "catchQuestion": "How many <b class=\"r\">red<\/b> marbles did your opponent report drawing? ",
            "catchKey": -1,
            "catchResponse": -1,
            "catchTime": 1682299315388,
            "trialTime": 0
        }
    ]
}