{
    "client": {
        "type": "sona",
        "experiment_id": 2228,
        "credit_token": "b315147ae43241ea9c65086cb510cfb7",
        "survey_code": "36287",
        "sid": "sona-36287",
        "window": {
            "width": 1661,
            "height": 936
        },
        "screen": {
            "width": 1792,
            "height": 1120
        },
        "userAgent": "Mozilla\/5.0 (Macintosh; Intel Mac OS X 10_15_7) AppleWebKit\/537.36 (KHTML, like Gecko) Chrome\/112.0.0.0 Safari\/537.36",
        "score": 0,
        "bonus": 0
    },
    "expt": {
        "saveURL": "submit.simple.php",
        "trials": 100,
        "practiceTrials": 2,
        "marblesSampled": 100,
        "probRed": 0.5,
        "practiceLambdaAI": 5,
        "lambdaAI": 0.3,
        "sd": 8.1,
        "roles": [
            "sender",
            "receiver"
        ],
        "cost": "unif",
        "goal": "over",
        "oppDishonesty": "honest",
        "catchTrials": [
            62,
            1,
            71,
            50,
            92,
            58,
            52,
            89,
            75,
            30
        ],
        "scoreTotal": {
            "player": -828,
            "opp": 192
        },
        "sona": {
            "experiment_id": 2228,
            "credit_token": "b315147ae43241ea9c65086cb510cfb7"
        },
        "pilot": false,
        "debug": false
    },
    "trials": [
        {
            "exptPart": "practice",
            "trialNumber": 1,
            "roleCurrent": "sender",
            "marblesSampled": 100,
            "probRed": 0.5,
            "practiceLambda": 5,
            "trialLambda": 0.3,
            "instructedLambda": "honest",
            "sd": 8.1,
            "drawnRed": 43,
            "reportedRed": 46,
            "inferredRed": 40,
            "playerTrialScore": 0,
            "oppTrialScore": -3,
            "playerTotalScore": 0,
            "oppTotalScore": -3,
            "waitTime": 2187.588031529182,
            "responseTime": 1682382047395,
            "catchQuestion": "How many <b class=\"r\">red<\/b> marbles did you actually draw (before any changes)? ",
            "catchKey": 43,
            "catchResponse": 43,
            "catchTime": 1682382047395,
            "trialTime": 0
        },
        {
            "exptPart": "practice",
            "trialNumber": 2,
            "roleCurrent": "receiver",
            "marblesSampled": 100,
            "probRed": 0.5,
            "practiceLambda": 5,
            "trialLambda": 0.3,
            "instructedLambda": "honest",
            "sd": 8.1,
            "drawnRed": 17,
            "reportedRed": 24,
            "inferredRed": 26,
            "playerTrialScore": -9,
            "oppTrialScore": 9,
            "playerTotalScore": -9,
            "oppTotalScore": 6,
            "waitTime": 5907.081656216996,
            "responseTime": 1682382102912,
            "catchQuestion": "How many <b class=\"r\">red<\/b> marbles did your opponent report drawing? ",
            "catchKey": 24,
            "catchResponse": 24,
            "catchTime": 1682382102912,
            "trialTime": 0
        },
        {
            "exptPart": "trial",
            "trialNumber": 1,
            "roleCurrent": "receiver",
            "marblesSampled": 100,
            "probRed": 0.5,
            "practiceLambda": 5,
            "trialLambda": 0.3,
            "instructedLambda": "honest",
            "sd": 8.1,
            "drawnRed": 10,
            "reportedRed": 4,
            "inferredRed": 7,
            "playerTrialScore": -3,
            "oppTrialScore": 0,
            "playerTotalScore": -3,
            "oppTotalScore": 0,
            "waitTime": 7337.420711696733,
            "responseTime": 1682382144363,
            "catchQuestion": "How many <b class=\"r\">red<\/b> marbles did your opponent report drawing? ",
            "catchKey": -1,
            "catchResponse": -1,
            "catchTime": 1682382102912,
            "trialTime": 0
        },
        {
            "exptPart": "trial",
            "trialNumber": 2,
            "roleCurrent": "receiver",
            "marblesSampled": 100,
            "probRed": 0.5,
            "practiceLambda": 5,
            "trialLambda": 0.3,
            "instructedLambda": "honest",
            "sd": 8.1,
            "drawnRed": 49,
            "reportedRed": 51,
            "inferredRed": 44,
            "playerTrialScore": -5,
            "oppTrialScore": 0,
            "playerTotalScore": -8,
            "oppTotalScore": 0,
            "waitTime": 5405.0657545517715,
            "responseTime": 1682382165612,
            "catchQuestion": "How many <b class=\"r\">red<\/b> marbles did your opponent report drawing? ",
            "catchKey": 51,
            "catchResponse": 51,
            "catchTime": 1682382165612,
            "trialTime": 0
        },
        {
            "exptPart": "trial",
            "trialNumber": 3,
            "roleCurrent": "receiver",
            "marblesSampled": 100,
            "probRed": 0.5,
            "practiceLambda": 5,
            "trialLambda": 0.3,
            "instructedLambda": "honest",
            "sd": 8.1,
            "drawnRed": 43,
            "reportedRed": 51,
            "inferredRed": 46,
            "playerTrialScore": -3,
            "oppTrialScore": 3,
            "playerTotalScore": -11,
            "oppTotalScore": 3,
            "waitTime": 5326.165116630704,
            "responseTime": 1682382185379,
            "catchQuestion": "How many <b class=\"r\">red<\/b> marbles did your opponent report drawing? ",
            "catchKey": -1,
            "catchResponse": -1,
            "catchTime": 1682382165612,
            "trialTime": 0
        },
        {
            "exptPart": "trial",
            "trialNumber": 4,
            "roleCurrent": "receiver",
            "marblesSampled": 100,
            "probRed": 0.5,
            "practiceLambda": 5,
            "trialLambda": 0.3,
            "instructedLambda": "honest",
            "sd": 8.1,
            "drawnRed": 18,
            "reportedRed": 14,
            "inferredRed": 7,
            "playerTrialScore": -11,
            "oppTrialScore": 0,
            "playerTotalScore": -22,
            "oppTotalScore": 3,
            "waitTime": 6215.092907198487,
            "responseTime": 1682382202179,
            "catchQuestion": "How many <b class=\"r\">red<\/b> marbles did your opponent report drawing? ",
            "catchKey": -1,
            "catchResponse": -1,
            "catchTime": 1682382165612,
            "trialTime": 0
        },
        {
            "exptPart": "trial",
            "trialNumber": 5,
            "roleCurrent": "receiver",
            "marblesSampled": 100,
            "probRed": 0.5,
            "practiceLambda": 5,
            "trialLambda": 0.3,
            "instructedLambda": "honest",
            "sd": 8.1,
            "drawnRed": 78,
            "reportedRed": 76,
            "inferredRed": 64,
            "playerTrialScore": -14,
            "oppTrialScore": 0,
            "playerTotalScore": -36,
            "oppTotalScore": 3,
            "waitTime": 7135.271666866004,
            "responseTime": 1682382218363,
            "catchQuestion": "How many <b class=\"r\">red<\/b> marbles did your opponent report drawing? ",
            "catchKey": -1,
            "catchResponse": -1,
            "catchTime": 1682382165612,
            "trialTime": 0
        },
        {
            "exptPart": "trial",
            "trialNumber": 6,
            "roleCurrent": "receiver",
            "marblesSampled": 100,
            "probRed": 0.5,
            "practiceLambda": 5,
            "trialLambda": 0.3,
            "instructedLambda": "honest",
            "sd": 8.1,
            "drawnRed": 51,
            "reportedRed": 53,
            "inferredRed": 50,
            "playerTrialScore": -1,
            "oppTrialScore": 0,
            "playerTotalScore": -37,
            "oppTotalScore": 3,
            "waitTime": 7052.685906623041,
            "responseTime": 1682382244146,
            "catchQuestion": "How many <b class=\"r\">red<\/b> marbles did your opponent report drawing? ",
            "catchKey": -1,
            "catchResponse": -1,
            "catchTime": 1682382165612,
            "trialTime": 0
        },
        {
            "exptPart": "trial",
            "trialNumber": 7,
            "roleCurrent": "receiver",
            "marblesSampled": 100,
            "probRed": 0.5,
            "practiceLambda": 5,
            "trialLambda": 0.3,
            "instructedLambda": "honest",
            "sd": 8.1,
            "drawnRed": 45,
            "reportedRed": 44,
            "inferredRed": 51,
            "playerTrialScore": -6,
            "oppTrialScore": 6,
            "playerTotalScore": -43,
            "oppTotalScore": 9,
            "waitTime": 6627.9581306765685,
            "responseTime": 1682382261230,
            "catchQuestion": "How many <b class=\"r\">red<\/b> marbles did your opponent report drawing? ",
            "catchKey": -1,
            "catchResponse": -1,
            "catchTime": 1682382165612,
            "trialTime": 0
        },
        {
            "exptPart": "trial",
            "trialNumber": 8,
            "roleCurrent": "receiver",
            "marblesSampled": 100,
            "probRed": 0.5,
            "practiceLambda": 5,
            "trialLambda": 0.3,
            "instructedLambda": "honest",
            "sd": 8.1,
            "drawnRed": 58,
            "reportedRed": 65,
            "inferredRed": 57,
            "playerTrialScore": -1,
            "oppTrialScore": 0,
            "playerTotalScore": -44,
            "oppTotalScore": 9,
            "waitTime": 5583.462509889091,
            "responseTime": 1682382322513,
            "catchQuestion": "How many <b class=\"r\">red<\/b> marbles did your opponent report drawing? ",
            "catchKey": -1,
            "catchResponse": -1,
            "catchTime": 1682382165612,
            "trialTime": 0
        },
        {
            "exptPart": "trial",
            "trialNumber": 9,
            "roleCurrent": "receiver",
            "marblesSampled": 100,
            "probRed": 0.5,
            "practiceLambda": 5,
            "trialLambda": 0.3,
            "instructedLambda": "honest",
            "sd": 8.1,
            "drawnRed": 51,
            "reportedRed": 54,
            "inferredRed": 48,
            "playerTrialScore": -3,
            "oppTrialScore": 0,
            "playerTotalScore": -47,
            "oppTotalScore": 9,
            "waitTime": 5633.382770584512,
            "responseTime": 1682382335880,
            "catchQuestion": "How many <b class=\"r\">red<\/b> marbles did your opponent report drawing? ",
            "catchKey": -1,
            "catchResponse": -1,
            "catchTime": 1682382165612,
            "trialTime": 0
        },
        {
            "exptPart": "trial",
            "trialNumber": 10,
            "roleCurrent": "receiver",
            "marblesSampled": 100,
            "probRed": 0.5,
            "practiceLambda": 5,
            "trialLambda": 0.3,
            "instructedLambda": "honest",
            "sd": 8.1,
            "drawnRed": 24,
            "reportedRed": 27,
            "inferredRed": 14,
            "playerTrialScore": -10,
            "oppTrialScore": 0,
            "playerTotalScore": -57,
            "oppTotalScore": 9,
            "waitTime": 5240.327355227342,
            "responseTime": 1682382345946,
            "catchQuestion": "How many <b class=\"r\">red<\/b> marbles did your opponent report drawing? ",
            "catchKey": -1,
            "catchResponse": -1,
            "catchTime": 1682382345946,
            "trialTime": 0
        },
        {
            "exptPart": "trial",
            "trialNumber": 11,
            "roleCurrent": "receiver",
            "marblesSampled": 100,
            "probRed": 0.5,
            "practiceLambda": 5,
            "trialLambda": 0.3,
            "instructedLambda": "honest",
            "sd": 8.1,
            "drawnRed": 58,
            "reportedRed": 58,
            "inferredRed": 62,
            "playerTrialScore": -4,
            "oppTrialScore": 4,
            "playerTotalScore": -61,
            "oppTotalScore": 13,
            "waitTime": 6132.032147105594,
            "responseTime": 1682382375763,
            "catchQuestion": "How many <b class=\"r\">red<\/b> marbles did your opponent report drawing? ",
            "catchKey": -1,
            "catchResponse": -1,
            "catchTime": 1682382345946,
            "trialTime": 0
        },
        {
            "exptPart": "trial",
            "trialNumber": 12,
            "roleCurrent": "receiver",
            "marblesSampled": 100,
            "probRed": 0.5,
            "practiceLambda": 5,
            "trialLambda": 0.3,
            "instructedLambda": "honest",
            "sd": 8.1,
            "drawnRed": 56,
            "reportedRed": 53,
            "inferredRed": 52,
            "playerTrialScore": -4,
            "oppTrialScore": 0,
            "playerTotalScore": -65,
            "oppTotalScore": 13,
            "waitTime": 6879.234313051669,
            "responseTime": 1682382385614,
            "catchQuestion": "How many <b class=\"r\">red<\/b> marbles did your opponent report drawing? ",
            "catchKey": -1,
            "catchResponse": -1,
            "catchTime": 1682382345946,
            "trialTime": 0
        },
        {
            "exptPart": "trial",
            "trialNumber": 13,
            "roleCurrent": "receiver",
            "marblesSampled": 100,
            "probRed": 0.5,
            "practiceLambda": 5,
            "trialLambda": 0.3,
            "instructedLambda": "honest",
            "sd": 8.1,
            "drawnRed": 50,
            "reportedRed": 56,
            "inferredRed": 58,
            "playerTrialScore": -8,
            "oppTrialScore": 8,
            "playerTotalScore": -73,
            "oppTotalScore": 21,
            "waitTime": 5433.461300046715,
            "responseTime": 1682382395697,
            "catchQuestion": "How many <b class=\"r\">red<\/b> marbles did your opponent report drawing? ",
            "catchKey": -1,
            "catchResponse": -1,
            "catchTime": 1682382345946,
            "trialTime": 0
        },
        {
            "exptPart": "trial",
            "trialNumber": 14,
            "roleCurrent": "receiver",
            "marblesSampled": 100,
            "probRed": 0.5,
            "practiceLambda": 5,
            "trialLambda": 0.3,
            "instructedLambda": "honest",
            "sd": 8.1,
            "drawnRed": 36,
            "reportedRed": 26,
            "inferredRed": 24,
            "playerTrialScore": -12,
            "oppTrialScore": 0,
            "playerTotalScore": -85,
            "oppTotalScore": 21,
            "waitTime": 6660.487925207763,
            "responseTime": 1682382407797,
            "catchQuestion": "How many <b class=\"r\">red<\/b> marbles did your opponent report drawing? ",
            "catchKey": -1,
            "catchResponse": -1,
            "catchTime": 1682382345946,
            "trialTime": 0
        },
        {
            "exptPart": "trial",
            "trialNumber": 15,
            "roleCurrent": "receiver",
            "marblesSampled": 100,
            "probRed": 0.5,
            "practiceLambda": 5,
            "trialLambda": 0.3,
            "instructedLambda": "honest",
            "sd": 8.1,
            "drawnRed": 38,
            "reportedRed": 29,
            "inferredRed": 30,
            "playerTrialScore": -8,
            "oppTrialScore": 0,
            "playerTotalScore": -93,
            "oppTotalScore": 21,
            "waitTime": 5496.868318942888,
            "responseTime": 1682382421997,
            "catchQuestion": "How many <b class=\"r\">red<\/b> marbles did your opponent report drawing? ",
            "catchKey": -1,
            "catchResponse": -1,
            "catchTime": 1682382345946,
            "trialTime": 0
        },
        {
            "exptPart": "trial",
            "trialNumber": 16,
            "roleCurrent": "receiver",
            "marblesSampled": 100,
            "probRed": 0.5,
            "practiceLambda": 5,
            "trialLambda": 0.3,
            "instructedLambda": "honest",
            "sd": 8.1,
            "drawnRed": 51,
            "reportedRed": 60,
            "inferredRed": 58,
            "playerTrialScore": -7,
            "oppTrialScore": 7,
            "playerTotalScore": -100,
            "oppTotalScore": 28,
            "waitTime": 5881.756189735319,
            "responseTime": 1682382461930,
            "catchQuestion": "How many <b class=\"r\">red<\/b> marbles did your opponent report drawing? ",
            "catchKey": -1,
            "catchResponse": -1,
            "catchTime": 1682382345946,
            "trialTime": 0
        },
        {
            "exptPart": "trial",
            "trialNumber": 17,
            "roleCurrent": "receiver",
            "marblesSampled": 100,
            "probRed": 0.5,
            "practiceLambda": 5,
            "trialLambda": 0.3,
            "instructedLambda": "honest",
            "sd": 8.1,
            "drawnRed": 59,
            "reportedRed": 54,
            "inferredRed": 52,
            "playerTrialScore": -7,
            "oppTrialScore": 0,
            "playerTotalScore": -107,
            "oppTotalScore": 28,
            "waitTime": 6771.553623770075,
            "responseTime": 1682382502831,
            "catchQuestion": "How many <b class=\"r\">red<\/b> marbles did your opponent report drawing? ",
            "catchKey": -1,
            "catchResponse": -1,
            "catchTime": 1682382345946,
            "trialTime": 0
        },
        {
            "exptPart": "trial",
            "trialNumber": 18,
            "roleCurrent": "receiver",
            "marblesSampled": 100,
            "probRed": 0.5,
            "practiceLambda": 5,
            "trialLambda": 0.3,
            "instructedLambda": "honest",
            "sd": 8.1,
            "drawnRed": 66,
            "reportedRed": 63,
            "inferredRed": 62,
            "playerTrialScore": -4,
            "oppTrialScore": 0,
            "playerTotalScore": -111,
            "oppTotalScore": 28,
            "waitTime": 7444.264619689675,
            "responseTime": 1682382517598,
            "catchQuestion": "How many <b class=\"r\">red<\/b> marbles did your opponent report drawing? ",
            "catchKey": -1,
            "catchResponse": -1,
            "catchTime": 1682382345946,
            "trialTime": 0
        },
        {
            "exptPart": "trial",
            "trialNumber": 19,
            "roleCurrent": "receiver",
            "marblesSampled": 100,
            "probRed": 0.5,
            "practiceLambda": 5,
            "trialLambda": 0.3,
            "instructedLambda": "honest",
            "sd": 8.1,
            "drawnRed": 73,
            "reportedRed": 67,
            "inferredRed": 66,
            "playerTrialScore": -7,
            "oppTrialScore": 0,
            "playerTotalScore": -118,
            "oppTotalScore": 28,
            "waitTime": 5277.21662995215,
            "responseTime": 1682382529697,
            "catchQuestion": "How many <b class=\"r\">red<\/b> marbles did your opponent report drawing? ",
            "catchKey": -1,
            "catchResponse": -1,
            "catchTime": 1682382345946,
            "trialTime": 0
        },
        {
            "exptPart": "trial",
            "trialNumber": 20,
            "roleCurrent": "receiver",
            "marblesSampled": 100,
            "probRed": 0.5,
            "practiceLambda": 5,
            "trialLambda": 0.3,
            "instructedLambda": "honest",
            "sd": 8.1,
            "drawnRed": 75,
            "reportedRed": 73,
            "inferredRed": 74,
            "playerTrialScore": -1,
            "oppTrialScore": 0,
            "playerTotalScore": -119,
            "oppTotalScore": 28,
            "waitTime": 5145.947003577126,
            "responseTime": 1682382540697,
            "catchQuestion": "How many <b class=\"r\">red<\/b> marbles did your opponent report drawing? ",
            "catchKey": -1,
            "catchResponse": -1,
            "catchTime": 1682382540697,
            "trialTime": 0
        },
        {
            "exptPart": "trial",
            "trialNumber": 21,
            "roleCurrent": "receiver",
            "marblesSampled": 100,
            "probRed": 0.5,
            "practiceLambda": 5,
            "trialLambda": 0.3,
            "instructedLambda": "honest",
            "sd": 8.1,
            "drawnRed": 58,
            "reportedRed": 51,
            "inferredRed": 50,
            "playerTrialScore": -8,
            "oppTrialScore": 0,
            "playerTotalScore": -127,
            "oppTotalScore": 28,
            "waitTime": 5774.669686079016,
            "responseTime": 1682382572931,
            "catchQuestion": "How many <b class=\"r\">red<\/b> marbles did your opponent report drawing? ",
            "catchKey": -1,
            "catchResponse": -1,
            "catchTime": 1682382540697,
            "trialTime": 0
        },
        {
            "exptPart": "trial",
            "trialNumber": 22,
            "roleCurrent": "receiver",
            "marblesSampled": 100,
            "probRed": 0.5,
            "practiceLambda": 5,
            "trialLambda": 0.3,
            "instructedLambda": "honest",
            "sd": 8.1,
            "drawnRed": 57,
            "reportedRed": 54,
            "inferredRed": 43,
            "playerTrialScore": -14,
            "oppTrialScore": 0,
            "playerTotalScore": -141,
            "oppTotalScore": 28,
            "waitTime": 6335.473376819449,
            "responseTime": 1682382584681,
            "catchQuestion": "How many <b class=\"r\">red<\/b> marbles did your opponent report drawing? ",
            "catchKey": -1,
            "catchResponse": -1,
            "catchTime": 1682382540697,
            "trialTime": 0
        },
        {
            "exptPart": "trial",
            "trialNumber": 23,
            "roleCurrent": "receiver",
            "marblesSampled": 100,
            "probRed": 0.5,
            "practiceLambda": 5,
            "trialLambda": 0.3,
            "instructedLambda": "honest",
            "sd": 8.1,
            "drawnRed": 67,
            "reportedRed": 69,
            "inferredRed": 67,
            "playerTrialScore": 0,
            "oppTrialScore": 0,
            "playerTotalScore": -141,
            "oppTotalScore": 28,
            "waitTime": 7297.36596432555,
            "responseTime": 1682382597315,
            "catchQuestion": "How many <b class=\"r\">red<\/b> marbles did your opponent report drawing? ",
            "catchKey": -1,
            "catchResponse": -1,
            "catchTime": 1682382540697,
            "trialTime": 0
        },
        {
            "exptPart": "trial",
            "trialNumber": 24,
            "roleCurrent": "receiver",
            "marblesSampled": 100,
            "probRed": 0.5,
            "practiceLambda": 5,
            "trialLambda": 0.3,
            "instructedLambda": "honest",
            "sd": 8.1,
            "drawnRed": 73,
            "reportedRed": 73,
            "inferredRed": 63,
            "playerTrialScore": -10,
            "oppTrialScore": 0,
            "playerTotalScore": -151,
            "oppTotalScore": 28,
            "waitTime": 5806.5892931897715,
            "responseTime": 1682382614615,
            "catchQuestion": "How many <b class=\"r\">red<\/b> marbles did your opponent report drawing? ",
            "catchKey": -1,
            "catchResponse": -1,
            "catchTime": 1682382540697,
            "trialTime": 0
        },
        {
            "exptPart": "trial",
            "trialNumber": 25,
            "roleCurrent": "receiver",
            "marblesSampled": 100,
            "probRed": 0.5,
            "practiceLambda": 5,
            "trialLambda": 0.3,
            "instructedLambda": "honest",
            "sd": 8.1,
            "drawnRed": 27,
            "reportedRed": 15,
            "inferredRed": 20,
            "playerTrialScore": -7,
            "oppTrialScore": 0,
            "playerTotalScore": -158,
            "oppTotalScore": 28,
            "waitTime": 5244.643670798793,
            "responseTime": 1682382644981,
            "catchQuestion": "How many <b class=\"r\">red<\/b> marbles did your opponent report drawing? ",
            "catchKey": -1,
            "catchResponse": -1,
            "catchTime": 1682382540697,
            "trialTime": 0
        },
        {
            "exptPart": "trial",
            "trialNumber": 26,
            "roleCurrent": "receiver",
            "marblesSampled": 100,
            "probRed": 0.5,
            "practiceLambda": 5,
            "trialLambda": 0.3,
            "instructedLambda": "honest",
            "sd": 8.1,
            "drawnRed": 88,
            "reportedRed": 92,
            "inferredRed": 74,
            "playerTrialScore": -14,
            "oppTrialScore": 0,
            "playerTotalScore": -172,
            "oppTotalScore": 28,
            "waitTime": 6413.25721277019,
            "responseTime": 1682382656682,
            "catchQuestion": "How many <b class=\"r\">red<\/b> marbles did your opponent report drawing? ",
            "catchKey": -1,
            "catchResponse": -1,
            "catchTime": 1682382540697,
            "trialTime": 0
        },
        {
            "exptPart": "trial",
            "trialNumber": 27,
            "roleCurrent": "receiver",
            "marblesSampled": 100,
            "probRed": 0.5,
            "practiceLambda": 5,
            "trialLambda": 0.3,
            "instructedLambda": "honest",
            "sd": 8.1,
            "drawnRed": 78,
            "reportedRed": 86,
            "inferredRed": 83,
            "playerTrialScore": -5,
            "oppTrialScore": 5,
            "playerTotalScore": -177,
            "oppTotalScore": 33,
            "waitTime": 7393.771287212701,
            "responseTime": 1682382667431,
            "catchQuestion": "How many <b class=\"r\">red<\/b> marbles did your opponent report drawing? ",
            "catchKey": -1,
            "catchResponse": -1,
            "catchTime": 1682382540697,
            "trialTime": 0
        },
        {
            "exptPart": "trial",
            "trialNumber": 28,
            "roleCurrent": "receiver",
            "marblesSampled": 100,
            "probRed": 0.5,
            "practiceLambda": 5,
            "trialLambda": 0.3,
            "instructedLambda": "honest",
            "sd": 8.1,
            "drawnRed": 25,
            "reportedRed": 32,
            "inferredRed": 28,
            "playerTrialScore": -3,
            "oppTrialScore": 3,
            "playerTotalScore": -180,
            "oppTotalScore": 36,
            "waitTime": 5500.967902788574,
            "responseTime": 1682382676831,
            "catchQuestion": "How many <b class=\"r\">red<\/b> marbles did your opponent report drawing? ",
            "catchKey": -1,
            "catchResponse": -1,
            "catchTime": 1682382540697,
            "trialTime": 0
        },
        {
            "exptPart": "trial",
            "trialNumber": 29,
            "roleCurrent": "receiver",
            "marblesSampled": 100,
            "probRed": 0.5,
            "practiceLambda": 5,
            "trialLambda": 0.3,
            "instructedLambda": "honest",
            "sd": 8.1,
            "drawnRed": 57,
            "reportedRed": 63,
            "inferredRed": 61,
            "playerTrialScore": -4,
            "oppTrialScore": 4,
            "playerTotalScore": -184,
            "oppTotalScore": 40,
            "waitTime": 5530.577818961774,
            "responseTime": 1682382685615,
            "catchQuestion": "How many <b class=\"r\">red<\/b> marbles did your opponent report drawing? ",
            "catchKey": -1,
            "catchResponse": -1,
            "catchTime": 1682382540697,
            "trialTime": 0
        },
        {
            "exptPart": "trial",
            "trialNumber": 30,
            "roleCurrent": "receiver",
            "marblesSampled": 100,
            "probRed": 0.5,
            "practiceLambda": 5,
            "trialLambda": 0.3,
            "instructedLambda": "honest",
            "sd": 8.1,
            "drawnRed": 21,
            "reportedRed": 20,
            "inferredRed": 19,
            "playerTrialScore": -2,
            "oppTrialScore": 0,
            "playerTotalScore": -186,
            "oppTotalScore": 40,
            "waitTime": 6242.989009280938,
            "responseTime": 1682382696332,
            "catchQuestion": "How many <b class=\"r\">red<\/b> marbles did your opponent report drawing? ",
            "catchKey": -1,
            "catchResponse": -1,
            "catchTime": 1682382696332,
            "trialTime": 0
        },
        {
            "exptPart": "trial",
            "trialNumber": 31,
            "roleCurrent": "receiver",
            "marblesSampled": 100,
            "probRed": 0.5,
            "practiceLambda": 5,
            "trialLambda": 0.3,
            "instructedLambda": "honest",
            "sd": 8.1,
            "drawnRed": 38,
            "reportedRed": 36,
            "inferredRed": 33,
            "playerTrialScore": -5,
            "oppTrialScore": 0,
            "playerTotalScore": -191,
            "oppTotalScore": 40,
            "waitTime": 5461.175448365673,
            "responseTime": 1682382732999,
            "catchQuestion": "How many <b class=\"r\">red<\/b> marbles did your opponent report drawing? ",
            "catchKey": 36,
            "catchResponse": 36,
            "catchTime": 1682382732999,
            "trialTime": 0
        },
        {
            "exptPart": "trial",
            "trialNumber": 32,
            "roleCurrent": "receiver",
            "marblesSampled": 100,
            "probRed": 0.5,
            "practiceLambda": 5,
            "trialLambda": 0.3,
            "instructedLambda": "honest",
            "sd": 8.1,
            "drawnRed": 39,
            "reportedRed": 51,
            "inferredRed": 53,
            "playerTrialScore": -14,
            "oppTrialScore": 14,
            "playerTotalScore": -205,
            "oppTotalScore": 54,
            "waitTime": 6935.171343349336,
            "responseTime": 1682382749082,
            "catchQuestion": "How many <b class=\"r\">red<\/b> marbles did your opponent report drawing? ",
            "catchKey": -1,
            "catchResponse": -1,
            "catchTime": 1682382732999,
            "trialTime": 0
        },
        {
            "exptPart": "trial",
            "trialNumber": 33,
            "roleCurrent": "receiver",
            "marblesSampled": 100,
            "probRed": 0.5,
            "practiceLambda": 5,
            "trialLambda": 0.3,
            "instructedLambda": "honest",
            "sd": 8.1,
            "drawnRed": 78,
            "reportedRed": 84,
            "inferredRed": 80,
            "playerTrialScore": -2,
            "oppTrialScore": 2,
            "playerTotalScore": -207,
            "oppTotalScore": 56,
            "waitTime": 6016.654532251961,
            "responseTime": 1682382761149,
            "catchQuestion": "How many <b class=\"r\">red<\/b> marbles did your opponent report drawing? ",
            "catchKey": -1,
            "catchResponse": -1,
            "catchTime": 1682382732999,
            "trialTime": 0
        },
        {
            "exptPart": "trial",
            "trialNumber": 34,
            "roleCurrent": "receiver",
            "marblesSampled": 100,
            "probRed": 0.5,
            "practiceLambda": 5,
            "trialLambda": 0.3,
            "instructedLambda": "honest",
            "sd": 8.1,
            "drawnRed": 49,
            "reportedRed": 47,
            "inferredRed": 45,
            "playerTrialScore": -4,
            "oppTrialScore": 0,
            "playerTotalScore": -211,
            "oppTotalScore": 56,
            "waitTime": 7408.844352088555,
            "responseTime": 1682382772415,
            "catchQuestion": "How many <b class=\"r\">red<\/b> marbles did your opponent report drawing? ",
            "catchKey": -1,
            "catchResponse": -1,
            "catchTime": 1682382732999,
            "trialTime": 0
        },
        {
            "exptPart": "trial",
            "trialNumber": 35,
            "roleCurrent": "receiver",
            "marblesSampled": 100,
            "probRed": 0.5,
            "practiceLambda": 5,
            "trialLambda": 0.3,
            "instructedLambda": "honest",
            "sd": 8.1,
            "drawnRed": 80,
            "reportedRed": 76,
            "inferredRed": 76,
            "playerTrialScore": -4,
            "oppTrialScore": 0,
            "playerTotalScore": -215,
            "oppTotalScore": 56,
            "waitTime": 5194.964997656052,
            "responseTime": 1682382791548,
            "catchQuestion": "How many <b class=\"r\">red<\/b> marbles did your opponent report drawing? ",
            "catchKey": -1,
            "catchResponse": -1,
            "catchTime": 1682382732999,
            "trialTime": 0
        },
        {
            "exptPart": "trial",
            "trialNumber": 36,
            "roleCurrent": "receiver",
            "marblesSampled": 100,
            "probRed": 0.5,
            "practiceLambda": 5,
            "trialLambda": 0.3,
            "instructedLambda": "honest",
            "sd": 8.1,
            "drawnRed": 58,
            "reportedRed": 66,
            "inferredRed": 65,
            "playerTrialScore": -7,
            "oppTrialScore": 7,
            "playerTotalScore": -222,
            "oppTotalScore": 63,
            "waitTime": 6251.471471226972,
            "responseTime": 1682382801416,
            "catchQuestion": "How many <b class=\"r\">red<\/b> marbles did your opponent report drawing? ",
            "catchKey": -1,
            "catchResponse": -1,
            "catchTime": 1682382732999,
            "trialTime": 0
        },
        {
            "exptPart": "trial",
            "trialNumber": 37,
            "roleCurrent": "receiver",
            "marblesSampled": 100,
            "probRed": 0.5,
            "practiceLambda": 5,
            "trialLambda": 0.3,
            "instructedLambda": "honest",
            "sd": 8.1,
            "drawnRed": 67,
            "reportedRed": 68,
            "inferredRed": 69,
            "playerTrialScore": -2,
            "oppTrialScore": 2,
            "playerTotalScore": -224,
            "oppTotalScore": 65,
            "waitTime": 6460.690213076028,
            "responseTime": 1682382811832,
            "catchQuestion": "How many <b class=\"r\">red<\/b> marbles did your opponent report drawing? ",
            "catchKey": -1,
            "catchResponse": -1,
            "catchTime": 1682382732999,
            "trialTime": 0
        },
        {
            "exptPart": "trial",
            "trialNumber": 38,
            "roleCurrent": "receiver",
            "marblesSampled": 100,
            "probRed": 0.5,
            "practiceLambda": 5,
            "trialLambda": 0.3,
            "instructedLambda": "honest",
            "sd": 8.1,
            "drawnRed": 55,
            "reportedRed": 52,
            "inferredRed": 51,
            "playerTrialScore": -4,
            "oppTrialScore": 0,
            "playerTotalScore": -228,
            "oppTotalScore": 65,
            "waitTime": 5226.338048261319,
            "responseTime": 1682382819933,
            "catchQuestion": "How many <b class=\"r\">red<\/b> marbles did your opponent report drawing? ",
            "catchKey": -1,
            "catchResponse": -1,
            "catchTime": 1682382732999,
            "trialTime": 0
        },
        {
            "exptPart": "trial",
            "trialNumber": 39,
            "roleCurrent": "receiver",
            "marblesSampled": 100,
            "probRed": 0.5,
            "practiceLambda": 5,
            "trialLambda": 0.3,
            "instructedLambda": "honest",
            "sd": 8.1,
            "drawnRed": 38,
            "reportedRed": 32,
            "inferredRed": 30,
            "playerTrialScore": -8,
            "oppTrialScore": 0,
            "playerTotalScore": -236,
            "oppTotalScore": 65,
            "waitTime": 7329.507366208245,
            "responseTime": 1682382829698,
            "catchQuestion": "How many <b class=\"r\">red<\/b> marbles did your opponent report drawing? ",
            "catchKey": -1,
            "catchResponse": -1,
            "catchTime": 1682382732999,
            "trialTime": 0
        },
        {
            "exptPart": "trial",
            "trialNumber": 40,
            "roleCurrent": "receiver",
            "marblesSampled": 100,
            "probRed": 0.5,
            "practiceLambda": 5,
            "trialLambda": 0.3,
            "instructedLambda": "honest",
            "sd": 8.1,
            "drawnRed": 71,
            "reportedRed": 83,
            "inferredRed": 81,
            "playerTrialScore": -10,
            "oppTrialScore": 10,
            "playerTotalScore": -246,
            "oppTotalScore": 75,
            "waitTime": 5464.234557413367,
            "responseTime": 1682382839066,
            "catchQuestion": "How many <b class=\"r\">red<\/b> marbles did your opponent report drawing? ",
            "catchKey": -1,
            "catchResponse": -1,
            "catchTime": 1682382839066,
            "trialTime": 0
        },
        {
            "exptPart": "trial",
            "trialNumber": 41,
            "roleCurrent": "receiver",
            "marblesSampled": 100,
            "probRed": 0.5,
            "practiceLambda": 5,
            "trialLambda": 0.3,
            "instructedLambda": "honest",
            "sd": 8.1,
            "drawnRed": 56,
            "reportedRed": 59,
            "inferredRed": 57,
            "playerTrialScore": -1,
            "oppTrialScore": 1,
            "playerTotalScore": -247,
            "oppTotalScore": 76,
            "waitTime": 5302.595041648141,
            "responseTime": 1682382852517,
            "catchQuestion": "How many <b class=\"r\">red<\/b> marbles did your opponent report drawing? ",
            "catchKey": -1,
            "catchResponse": -1,
            "catchTime": 1682382839066,
            "trialTime": 0
        },
        {
            "exptPart": "trial",
            "trialNumber": 42,
            "roleCurrent": "receiver",
            "marblesSampled": 100,
            "probRed": 0.5,
            "practiceLambda": 5,
            "trialLambda": 0.3,
            "instructedLambda": "honest",
            "sd": 8.1,
            "drawnRed": 18,
            "reportedRed": 16,
            "inferredRed": 14,
            "playerTrialScore": -4,
            "oppTrialScore": 0,
            "playerTotalScore": -251,
            "oppTotalScore": 76,
            "waitTime": 6477.782723614237,
            "responseTime": 1682382877916,
            "catchQuestion": "How many <b class=\"r\">red<\/b> marbles did your opponent report drawing? ",
            "catchKey": -1,
            "catchResponse": -1,
            "catchTime": 1682382839066,
            "trialTime": 0
        },
        {
            "exptPart": "trial",
            "trialNumber": 43,
            "roleCurrent": "receiver",
            "marblesSampled": 100,
            "probRed": 0.5,
            "practiceLambda": 5,
            "trialLambda": 0.3,
            "instructedLambda": "honest",
            "sd": 8.1,
            "drawnRed": 64,
            "reportedRed": 65,
            "inferredRed": 67,
            "playerTrialScore": -3,
            "oppTrialScore": 3,
            "playerTotalScore": -254,
            "oppTotalScore": 79,
            "waitTime": 6376.763052931296,
            "responseTime": 1682382888017,
            "catchQuestion": "How many <b class=\"r\">red<\/b> marbles did your opponent report drawing? ",
            "catchKey": -1,
            "catchResponse": -1,
            "catchTime": 1682382839066,
            "trialTime": 0
        },
        {
            "exptPart": "trial",
            "trialNumber": 44,
            "roleCurrent": "receiver",
            "marblesSampled": 100,
            "probRed": 0.5,
            "practiceLambda": 5,
            "trialLambda": 0.3,
            "instructedLambda": "honest",
            "sd": 8.1,
            "drawnRed": 47,
            "reportedRed": 47,
            "inferredRed": 45,
            "playerTrialScore": -2,
            "oppTrialScore": 0,
            "playerTotalScore": -256,
            "oppTotalScore": 79,
            "waitTime": 5630.855844454492,
            "responseTime": 1682382898417,
            "catchQuestion": "How many <b class=\"r\">red<\/b> marbles did your opponent report drawing? ",
            "catchKey": -1,
            "catchResponse": -1,
            "catchTime": 1682382839066,
            "trialTime": 0
        },
        {
            "exptPart": "trial",
            "trialNumber": 45,
            "roleCurrent": "receiver",
            "marblesSampled": 100,
            "probRed": 0.5,
            "practiceLambda": 5,
            "trialLambda": 0.3,
            "instructedLambda": "honest",
            "sd": 8.1,
            "drawnRed": 64,
            "reportedRed": 66,
            "inferredRed": 66,
            "playerTrialScore": -2,
            "oppTrialScore": 2,
            "playerTotalScore": -258,
            "oppTotalScore": 81,
            "waitTime": 6504.910815184729,
            "responseTime": 1682382908900,
            "catchQuestion": "How many <b class=\"r\">red<\/b> marbles did your opponent report drawing? ",
            "catchKey": -1,
            "catchResponse": -1,
            "catchTime": 1682382839066,
            "trialTime": 0
        },
        {
            "exptPart": "trial",
            "trialNumber": 46,
            "roleCurrent": "receiver",
            "marblesSampled": 100,
            "probRed": 0.5,
            "practiceLambda": 5,
            "trialLambda": 0.3,
            "instructedLambda": "honest",
            "sd": 8.1,
            "drawnRed": 54,
            "reportedRed": 66,
            "inferredRed": 66,
            "playerTrialScore": -12,
            "oppTrialScore": 12,
            "playerTotalScore": -270,
            "oppTotalScore": 93,
            "waitTime": 6272.166917489295,
            "responseTime": 1682382918150,
            "catchQuestion": "How many <b class=\"r\">red<\/b> marbles did your opponent report drawing? ",
            "catchKey": -1,
            "catchResponse": -1,
            "catchTime": 1682382839066,
            "trialTime": 0
        },
        {
            "exptPart": "trial",
            "trialNumber": 47,
            "roleCurrent": "receiver",
            "marblesSampled": 100,
            "probRed": 0.5,
            "practiceLambda": 5,
            "trialLambda": 0.3,
            "instructedLambda": "honest",
            "sd": 8.1,
            "drawnRed": 71,
            "reportedRed": 66,
            "inferredRed": 40,
            "playerTrialScore": -31,
            "oppTrialScore": 0,
            "playerTotalScore": -301,
            "oppTotalScore": 93,
            "waitTime": 7176.844089637315,
            "responseTime": 1682382929400,
            "catchQuestion": "How many <b class=\"r\">red<\/b> marbles did your opponent report drawing? ",
            "catchKey": -1,
            "catchResponse": -1,
            "catchTime": 1682382839066,
            "trialTime": 0
        },
        {
            "exptPart": "trial",
            "trialNumber": 48,
            "roleCurrent": "receiver",
            "marblesSampled": 100,
            "probRed": 0.5,
            "practiceLambda": 5,
            "trialLambda": 0.3,
            "instructedLambda": "honest",
            "sd": 8.1,
            "drawnRed": 81,
            "reportedRed": 87,
            "inferredRed": 80,
            "playerTrialScore": -1,
            "oppTrialScore": 0,
            "playerTotalScore": -302,
            "oppTotalScore": 93,
            "waitTime": 5531.773950044918,
            "responseTime": 1682382953950,
            "catchQuestion": "How many <b class=\"r\">red<\/b> marbles did your opponent report drawing? ",
            "catchKey": -1,
            "catchResponse": -1,
            "catchTime": 1682382839066,
            "trialTime": 0
        },
        {
            "exptPart": "trial",
            "trialNumber": 49,
            "roleCurrent": "receiver",
            "marblesSampled": 100,
            "probRed": 0.5,
            "practiceLambda": 5,
            "trialLambda": 0.3,
            "instructedLambda": "honest",
            "sd": 8.1,
            "drawnRed": 43,
            "reportedRed": 40,
            "inferredRed": 41,
            "playerTrialScore": -2,
            "oppTrialScore": 0,
            "playerTotalScore": -304,
            "oppTotalScore": 93,
            "waitTime": 5821.790767309394,
            "responseTime": 1682382964733,
            "catchQuestion": "How many <b class=\"r\">red<\/b> marbles did your opponent report drawing? ",
            "catchKey": -1,
            "catchResponse": -1,
            "catchTime": 1682382839066,
            "trialTime": 0
        },
        {
            "exptPart": "trial",
            "trialNumber": 50,
            "roleCurrent": "receiver",
            "marblesSampled": 100,
            "probRed": 0.5,
            "practiceLambda": 5,
            "trialLambda": 0.3,
            "instructedLambda": "honest",
            "sd": 8.1,
            "drawnRed": 44,
            "reportedRed": 44,
            "inferredRed": 40,
            "playerTrialScore": -4,
            "oppTrialScore": 0,
            "playerTotalScore": -308,
            "oppTotalScore": 93,
            "waitTime": 7344.328801132461,
            "responseTime": 1682382974884,
            "catchQuestion": "How many <b class=\"r\">red<\/b> marbles did your opponent report drawing? ",
            "catchKey": -1,
            "catchResponse": -1,
            "catchTime": 1682382974884,
            "trialTime": 0
        },
        {
            "exptPart": "trial",
            "trialNumber": 51,
            "roleCurrent": "receiver",
            "marblesSampled": 100,
            "probRed": 0.5,
            "practiceLambda": 5,
            "trialLambda": 0.3,
            "instructedLambda": "honest",
            "sd": 8.1,
            "drawnRed": 30,
            "reportedRed": 28,
            "inferredRed": 21,
            "playerTrialScore": -9,
            "oppTrialScore": 0,
            "playerTotalScore": -317,
            "oppTotalScore": 93,
            "waitTime": 6227.1094855498195,
            "responseTime": 1682382988284,
            "catchQuestion": "How many <b class=\"r\">red<\/b> marbles did your opponent report drawing? ",
            "catchKey": 28,
            "catchResponse": 28,
            "catchTime": 1682382988284,
            "trialTime": 0
        },
        {
            "exptPart": "trial",
            "trialNumber": 52,
            "roleCurrent": "receiver",
            "marblesSampled": 100,
            "probRed": 0.5,
            "practiceLambda": 5,
            "trialLambda": 0.3,
            "instructedLambda": "honest",
            "sd": 8.1,
            "drawnRed": 37,
            "reportedRed": 37,
            "inferredRed": 38,
            "playerTrialScore": -1,
            "oppTrialScore": 1,
            "playerTotalScore": -318,
            "oppTotalScore": 94,
            "waitTime": 5948.568464741341,
            "responseTime": 1682383003650,
            "catchQuestion": "How many <b class=\"r\">red<\/b> marbles did your opponent report drawing? ",
            "catchKey": -1,
            "catchResponse": -1,
            "catchTime": 1682382988284,
            "trialTime": 0
        },
        {
            "exptPart": "trial",
            "trialNumber": 53,
            "roleCurrent": "receiver",
            "marblesSampled": 100,
            "probRed": 0.5,
            "practiceLambda": 5,
            "trialLambda": 0.3,
            "instructedLambda": "honest",
            "sd": 8.1,
            "drawnRed": 78,
            "reportedRed": 74,
            "inferredRed": 60,
            "playerTrialScore": -18,
            "oppTrialScore": 0,
            "playerTotalScore": -336,
            "oppTotalScore": 94,
            "waitTime": 6249.408405839203,
            "responseTime": 1682383013217,
            "catchQuestion": "How many <b class=\"r\">red<\/b> marbles did your opponent report drawing? ",
            "catchKey": 74,
            "catchResponse": 74,
            "catchTime": 1682383013217,
            "trialTime": 0
        },
        {
            "exptPart": "trial",
            "trialNumber": 54,
            "roleCurrent": "receiver",
            "marblesSampled": 100,
            "probRed": 0.5,
            "practiceLambda": 5,
            "trialLambda": 0.3,
            "instructedLambda": "honest",
            "sd": 8.1,
            "drawnRed": 27,
            "reportedRed": 29,
            "inferredRed": 19,
            "playerTrialScore": -8,
            "oppTrialScore": 0,
            "playerTotalScore": -344,
            "oppTotalScore": 94,
            "waitTime": 5475.548677974629,
            "responseTime": 1682383031017,
            "catchQuestion": "How many <b class=\"r\">red<\/b> marbles did your opponent report drawing? ",
            "catchKey": -1,
            "catchResponse": -1,
            "catchTime": 1682383013217,
            "trialTime": 0
        },
        {
            "exptPart": "trial",
            "trialNumber": 55,
            "roleCurrent": "receiver",
            "marblesSampled": 100,
            "probRed": 0.5,
            "practiceLambda": 5,
            "trialLambda": 0.3,
            "instructedLambda": "honest",
            "sd": 8.1,
            "drawnRed": 23,
            "reportedRed": 24,
            "inferredRed": 21,
            "playerTrialScore": -2,
            "oppTrialScore": 0,
            "playerTotalScore": -346,
            "oppTotalScore": 94,
            "waitTime": 6165.97751526341,
            "responseTime": 1682383039834,
            "catchQuestion": "How many <b class=\"r\">red<\/b> marbles did your opponent report drawing? ",
            "catchKey": -1,
            "catchResponse": -1,
            "catchTime": 1682383013217,
            "trialTime": 0
        },
        {
            "exptPart": "trial",
            "trialNumber": 56,
            "roleCurrent": "receiver",
            "marblesSampled": 100,
            "probRed": 0.5,
            "practiceLambda": 5,
            "trialLambda": 0.3,
            "instructedLambda": "honest",
            "sd": 8.1,
            "drawnRed": 41,
            "reportedRed": 35,
            "inferredRed": 32,
            "playerTrialScore": -9,
            "oppTrialScore": 0,
            "playerTotalScore": -355,
            "oppTotalScore": 94,
            "waitTime": 5291.375743819534,
            "responseTime": 1682383052866,
            "catchQuestion": "How many <b class=\"r\">red<\/b> marbles did your opponent report drawing? ",
            "catchKey": -1,
            "catchResponse": -1,
            "catchTime": 1682383013217,
            "trialTime": 0
        },
        {
            "exptPart": "trial",
            "trialNumber": 57,
            "roleCurrent": "receiver",
            "marblesSampled": 100,
            "probRed": 0.5,
            "practiceLambda": 5,
            "trialLambda": 0.3,
            "instructedLambda": "honest",
            "sd": 8.1,
            "drawnRed": 63,
            "reportedRed": 55,
            "inferredRed": 45,
            "playerTrialScore": -18,
            "oppTrialScore": 0,
            "playerTotalScore": -373,
            "oppTotalScore": 94,
            "waitTime": 6429.211396140508,
            "responseTime": 1682383071450,
            "catchQuestion": "How many <b class=\"r\">red<\/b> marbles did your opponent report drawing? ",
            "catchKey": -1,
            "catchResponse": -1,
            "catchTime": 1682383013217,
            "trialTime": 0
        },
        {
            "exptPart": "trial",
            "trialNumber": 58,
            "roleCurrent": "receiver",
            "marblesSampled": 100,
            "probRed": 0.5,
            "practiceLambda": 5,
            "trialLambda": 0.3,
            "instructedLambda": "honest",
            "sd": 8.1,
            "drawnRed": 54,
            "reportedRed": 56,
            "inferredRed": 43,
            "playerTrialScore": -11,
            "oppTrialScore": 0,
            "playerTotalScore": -384,
            "oppTotalScore": 94,
            "waitTime": 6880.191828324849,
            "responseTime": 1682383083317,
            "catchQuestion": "How many <b class=\"r\">red<\/b> marbles did your opponent report drawing? ",
            "catchKey": -1,
            "catchResponse": -1,
            "catchTime": 1682383013217,
            "trialTime": 0
        },
        {
            "exptPart": "trial",
            "trialNumber": 59,
            "roleCurrent": "receiver",
            "marblesSampled": 100,
            "probRed": 0.5,
            "practiceLambda": 5,
            "trialLambda": 0.3,
            "instructedLambda": "honest",
            "sd": 8.1,
            "drawnRed": 20,
            "reportedRed": 22,
            "inferredRed": 21,
            "playerTrialScore": -1,
            "oppTrialScore": 1,
            "playerTotalScore": -385,
            "oppTotalScore": 95,
            "waitTime": 5349.284971076094,
            "responseTime": 1682383093601,
            "catchQuestion": "How many <b class=\"r\">red<\/b> marbles did your opponent report drawing? ",
            "catchKey": 22,
            "catchResponse": 23,
            "catchTime": 1682383093601,
            "trialTime": 0
        },
        {
            "exptPart": "trial",
            "trialNumber": 60,
            "roleCurrent": "receiver",
            "marblesSampled": 100,
            "probRed": 0.5,
            "practiceLambda": 5,
            "trialLambda": 0.3,
            "instructedLambda": "honest",
            "sd": 8.1,
            "drawnRed": 66,
            "reportedRed": 62,
            "inferredRed": 47,
            "playerTrialScore": -19,
            "oppTrialScore": 0,
            "playerTotalScore": -404,
            "oppTotalScore": 95,
            "waitTime": 5506.409108671501,
            "responseTime": 1682383115017,
            "catchQuestion": "How many <b class=\"r\">red<\/b> marbles did your opponent report drawing? ",
            "catchKey": -1,
            "catchResponse": -1,
            "catchTime": 1682383115017,
            "trialTime": 0
        },
        {
            "exptPart": "trial",
            "trialNumber": 61,
            "roleCurrent": "receiver",
            "marblesSampled": 100,
            "probRed": 0.5,
            "practiceLambda": 5,
            "trialLambda": 0.3,
            "instructedLambda": "honest",
            "sd": 8.1,
            "drawnRed": 90,
            "reportedRed": 96,
            "inferredRed": 69,
            "playerTrialScore": -21,
            "oppTrialScore": 0,
            "playerTotalScore": -425,
            "oppTotalScore": 95,
            "waitTime": 5355.25290873626,
            "responseTime": 1682383195201,
            "catchQuestion": "How many <b class=\"r\">red<\/b> marbles did your opponent report drawing? ",
            "catchKey": -1,
            "catchResponse": -1,
            "catchTime": 1682383115017,
            "trialTime": 0
        },
        {
            "exptPart": "trial",
            "trialNumber": 62,
            "roleCurrent": "receiver",
            "marblesSampled": 100,
            "probRed": 0.5,
            "practiceLambda": 5,
            "trialLambda": 0.3,
            "instructedLambda": "honest",
            "sd": 8.1,
            "drawnRed": 55,
            "reportedRed": 51,
            "inferredRed": 54,
            "playerTrialScore": -1,
            "oppTrialScore": 0,
            "playerTotalScore": -426,
            "oppTotalScore": 95,
            "waitTime": 6204.278673435964,
            "responseTime": 1682383209118,
            "catchQuestion": "How many <b class=\"r\">red<\/b> marbles did your opponent report drawing? ",
            "catchKey": -1,
            "catchResponse": -1,
            "catchTime": 1682383115017,
            "trialTime": 0
        },
        {
            "exptPart": "trial",
            "trialNumber": 63,
            "roleCurrent": "receiver",
            "marblesSampled": 100,
            "probRed": 0.5,
            "practiceLambda": 5,
            "trialLambda": 0.3,
            "instructedLambda": "honest",
            "sd": 8.1,
            "drawnRed": 48,
            "reportedRed": 47,
            "inferredRed": 50,
            "playerTrialScore": -2,
            "oppTrialScore": 2,
            "playerTotalScore": -428,
            "oppTotalScore": 97,
            "waitTime": 5864.830282516901,
            "responseTime": 1682383240251,
            "catchQuestion": "How many <b class=\"r\">red<\/b> marbles did your opponent report drawing? ",
            "catchKey": 47,
            "catchResponse": 47,
            "catchTime": 1682383240251,
            "trialTime": 0
        },
        {
            "exptPart": "trial",
            "trialNumber": 64,
            "roleCurrent": "receiver",
            "marblesSampled": 100,
            "probRed": 0.5,
            "practiceLambda": 5,
            "trialLambda": 0.3,
            "instructedLambda": "honest",
            "sd": 8.1,
            "drawnRed": 78,
            "reportedRed": 81,
            "inferredRed": 70,
            "playerTrialScore": -8,
            "oppTrialScore": 0,
            "playerTotalScore": -436,
            "oppTotalScore": 97,
            "waitTime": 5341.945531633601,
            "responseTime": 1682383259251,
            "catchQuestion": "How many <b class=\"r\">red<\/b> marbles did your opponent report drawing? ",
            "catchKey": -1,
            "catchResponse": -1,
            "catchTime": 1682383240251,
            "trialTime": 0
        },
        {
            "exptPart": "trial",
            "trialNumber": 65,
            "roleCurrent": "receiver",
            "marblesSampled": 100,
            "probRed": 0.5,
            "practiceLambda": 5,
            "trialLambda": 0.3,
            "instructedLambda": "honest",
            "sd": 8.1,
            "drawnRed": 17,
            "reportedRed": 26,
            "inferredRed": 22,
            "playerTrialScore": -5,
            "oppTrialScore": 5,
            "playerTotalScore": -441,
            "oppTotalScore": 102,
            "waitTime": 5245.10484129428,
            "responseTime": 1682383287018,
            "catchQuestion": "How many <b class=\"r\">red<\/b> marbles did your opponent report drawing? ",
            "catchKey": -1,
            "catchResponse": -1,
            "catchTime": 1682383240251,
            "trialTime": 0
        },
        {
            "exptPart": "trial",
            "trialNumber": 66,
            "roleCurrent": "receiver",
            "marblesSampled": 100,
            "probRed": 0.5,
            "practiceLambda": 5,
            "trialLambda": 0.3,
            "instructedLambda": "honest",
            "sd": 8.1,
            "drawnRed": 39,
            "reportedRed": 27,
            "inferredRed": 23,
            "playerTrialScore": -16,
            "oppTrialScore": 0,
            "playerTotalScore": -457,
            "oppTotalScore": 102,
            "waitTime": 7457.896004629842,
            "responseTime": 1682383309386,
            "catchQuestion": "How many <b class=\"r\">red<\/b> marbles did your opponent report drawing? ",
            "catchKey": -1,
            "catchResponse": -1,
            "catchTime": 1682383240251,
            "trialTime": 0
        },
        {
            "exptPart": "trial",
            "trialNumber": 67,
            "roleCurrent": "receiver",
            "marblesSampled": 100,
            "probRed": 0.5,
            "practiceLambda": 5,
            "trialLambda": 0.3,
            "instructedLambda": "honest",
            "sd": 8.1,
            "drawnRed": 47,
            "reportedRed": 60,
            "inferredRed": 45,
            "playerTrialScore": -2,
            "oppTrialScore": 0,
            "playerTotalScore": -459,
            "oppTotalScore": 102,
            "waitTime": 6686.87546613929,
            "responseTime": 1682383327535,
            "catchQuestion": "How many <b class=\"r\">red<\/b> marbles did your opponent report drawing? ",
            "catchKey": -1,
            "catchResponse": -1,
            "catchTime": 1682383240251,
            "trialTime": 0
        },
        {
            "exptPart": "trial",
            "trialNumber": 68,
            "roleCurrent": "receiver",
            "marblesSampled": 100,
            "probRed": 0.5,
            "practiceLambda": 5,
            "trialLambda": 0.3,
            "instructedLambda": "honest",
            "sd": 8.1,
            "drawnRed": 56,
            "reportedRed": 65,
            "inferredRed": 45,
            "playerTrialScore": -11,
            "oppTrialScore": 0,
            "playerTotalScore": -470,
            "oppTotalScore": 102,
            "waitTime": 5440.284391860874,
            "responseTime": 1682383347269,
            "catchQuestion": "How many <b class=\"r\">red<\/b> marbles did your opponent report drawing? ",
            "catchKey": -1,
            "catchResponse": -1,
            "catchTime": 1682383240251,
            "trialTime": 0
        },
        {
            "exptPart": "trial",
            "trialNumber": 69,
            "roleCurrent": "receiver",
            "marblesSampled": 100,
            "probRed": 0.5,
            "practiceLambda": 5,
            "trialLambda": 0.3,
            "instructedLambda": "honest",
            "sd": 8.1,
            "drawnRed": 29,
            "reportedRed": 32,
            "inferredRed": 30,
            "playerTrialScore": -1,
            "oppTrialScore": 1,
            "playerTotalScore": -471,
            "oppTotalScore": 103,
            "waitTime": 5313.309588006263,
            "responseTime": 1682383359552,
            "catchQuestion": "How many <b class=\"r\">red<\/b> marbles did your opponent report drawing? ",
            "catchKey": -1,
            "catchResponse": -1,
            "catchTime": 1682383240251,
            "trialTime": 0
        },
        {
            "exptPart": "trial",
            "trialNumber": 70,
            "roleCurrent": "receiver",
            "marblesSampled": 100,
            "probRed": 0.5,
            "practiceLambda": 5,
            "trialLambda": 0.3,
            "instructedLambda": "honest",
            "sd": 8.1,
            "drawnRed": 35,
            "reportedRed": 37,
            "inferredRed": 34,
            "playerTrialScore": -1,
            "oppTrialScore": 0,
            "playerTotalScore": -472,
            "oppTotalScore": 103,
            "waitTime": 5808.491586431026,
            "responseTime": 1682383379018,
            "catchQuestion": "How many <b class=\"r\">red<\/b> marbles did your opponent report drawing? ",
            "catchKey": -1,
            "catchResponse": -1,
            "catchTime": 1682383379018,
            "trialTime": 0
        },
        {
            "exptPart": "trial",
            "trialNumber": 71,
            "roleCurrent": "receiver",
            "marblesSampled": 100,
            "probRed": 0.5,
            "practiceLambda": 5,
            "trialLambda": 0.3,
            "instructedLambda": "honest",
            "sd": 8.1,
            "drawnRed": 37,
            "reportedRed": 39,
            "inferredRed": 32,
            "playerTrialScore": -5,
            "oppTrialScore": 0,
            "playerTotalScore": -477,
            "oppTotalScore": 103,
            "waitTime": 6356.760003917649,
            "responseTime": 1682383710528,
            "catchQuestion": "How many <b class=\"r\">red<\/b> marbles did your opponent report drawing? ",
            "catchKey": -1,
            "catchResponse": -1,
            "catchTime": 1682383379018,
            "trialTime": 0
        },
        {
            "exptPart": "trial",
            "trialNumber": 72,
            "roleCurrent": "receiver",
            "marblesSampled": 100,
            "probRed": 0.5,
            "practiceLambda": 5,
            "trialLambda": 0.3,
            "instructedLambda": "honest",
            "sd": 8.1,
            "drawnRed": 43,
            "reportedRed": 39,
            "inferredRed": 35,
            "playerTrialScore": -8,
            "oppTrialScore": 0,
            "playerTotalScore": -485,
            "oppTotalScore": 103,
            "waitTime": 5645.0701087799835,
            "responseTime": 1682383719511,
            "catchQuestion": "How many <b class=\"r\">red<\/b> marbles did your opponent report drawing? ",
            "catchKey": 39,
            "catchResponse": 39,
            "catchTime": 1682383719511,
            "trialTime": 0
        },
        {
            "exptPart": "trial",
            "trialNumber": 73,
            "roleCurrent": "receiver",
            "marblesSampled": 100,
            "probRed": 0.5,
            "practiceLambda": 5,
            "trialLambda": 0.3,
            "instructedLambda": "honest",
            "sd": 8.1,
            "drawnRed": 47,
            "reportedRed": 47,
            "inferredRed": 43,
            "playerTrialScore": -4,
            "oppTrialScore": 0,
            "playerTotalScore": -489,
            "oppTotalScore": 103,
            "waitTime": 6204.982482964811,
            "responseTime": 1682383732678,
            "catchQuestion": "How many <b class=\"r\">red<\/b> marbles did your opponent report drawing? ",
            "catchKey": -1,
            "catchResponse": -1,
            "catchTime": 1682383719511,
            "trialTime": 0
        },
        {
            "exptPart": "trial",
            "trialNumber": 74,
            "roleCurrent": "receiver",
            "marblesSampled": 100,
            "probRed": 0.5,
            "practiceLambda": 5,
            "trialLambda": 0.3,
            "instructedLambda": "honest",
            "sd": 8.1,
            "drawnRed": 45,
            "reportedRed": 37,
            "inferredRed": 26,
            "playerTrialScore": -19,
            "oppTrialScore": 0,
            "playerTotalScore": -508,
            "oppTotalScore": 103,
            "waitTime": 5863.863635595477,
            "responseTime": 1682383742312,
            "catchQuestion": "How many <b class=\"r\">red<\/b> marbles did your opponent report drawing? ",
            "catchKey": -1,
            "catchResponse": -1,
            "catchTime": 1682383719511,
            "trialTime": 0
        },
        {
            "exptPart": "trial",
            "trialNumber": 75,
            "roleCurrent": "receiver",
            "marblesSampled": 100,
            "probRed": 0.5,
            "practiceLambda": 5,
            "trialLambda": 0.3,
            "instructedLambda": "honest",
            "sd": 8.1,
            "drawnRed": 71,
            "reportedRed": 93,
            "inferredRed": 49,
            "playerTrialScore": -22,
            "oppTrialScore": 0,
            "playerTotalScore": -530,
            "oppTotalScore": 103,
            "waitTime": 5403.300234231688,
            "responseTime": 1682383763428,
            "catchQuestion": "How many <b class=\"r\">red<\/b> marbles did your opponent report drawing? ",
            "catchKey": -1,
            "catchResponse": -1,
            "catchTime": 1682383719511,
            "trialTime": 0
        },
        {
            "exptPart": "trial",
            "trialNumber": 76,
            "roleCurrent": "receiver",
            "marblesSampled": 100,
            "probRed": 0.5,
            "practiceLambda": 5,
            "trialLambda": 0.3,
            "instructedLambda": "honest",
            "sd": 8.1,
            "drawnRed": 44,
            "reportedRed": 45,
            "inferredRed": 57,
            "playerTrialScore": -13,
            "oppTrialScore": 13,
            "playerTotalScore": -543,
            "oppTotalScore": 116,
            "waitTime": 7088.67372398561,
            "responseTime": 1682383808428,
            "catchQuestion": "How many <b class=\"r\">red<\/b> marbles did your opponent report drawing? ",
            "catchKey": 45,
            "catchResponse": 45,
            "catchTime": 1682383808428,
            "trialTime": 0
        },
        {
            "exptPart": "trial",
            "trialNumber": 77,
            "roleCurrent": "receiver",
            "marblesSampled": 100,
            "probRed": 0.5,
            "practiceLambda": 5,
            "trialLambda": 0.3,
            "instructedLambda": "honest",
            "sd": 8.1,
            "drawnRed": 39,
            "reportedRed": 36,
            "inferredRed": 32,
            "playerTrialScore": -7,
            "oppTrialScore": 0,
            "playerTotalScore": -550,
            "oppTotalScore": 116,
            "waitTime": 6962.81957355627,
            "responseTime": 1682383826279,
            "catchQuestion": "How many <b class=\"r\">red<\/b> marbles did your opponent report drawing? ",
            "catchKey": -1,
            "catchResponse": -1,
            "catchTime": 1682383808428,
            "trialTime": 0
        },
        {
            "exptPart": "trial",
            "trialNumber": 78,
            "roleCurrent": "receiver",
            "marblesSampled": 100,
            "probRed": 0.5,
            "practiceLambda": 5,
            "trialLambda": 0.3,
            "instructedLambda": "honest",
            "sd": 8.1,
            "drawnRed": 85,
            "reportedRed": 86,
            "inferredRed": 95,
            "playerTrialScore": -10,
            "oppTrialScore": 10,
            "playerTotalScore": -560,
            "oppTotalScore": 126,
            "waitTime": 6781.367428517944,
            "responseTime": 1682383838278,
            "catchQuestion": "How many <b class=\"r\">red<\/b> marbles did your opponent report drawing? ",
            "catchKey": -1,
            "catchResponse": -1,
            "catchTime": 1682383808428,
            "trialTime": 0
        },
        {
            "exptPart": "trial",
            "trialNumber": 79,
            "roleCurrent": "receiver",
            "marblesSampled": 100,
            "probRed": 0.5,
            "practiceLambda": 5,
            "trialLambda": 0.3,
            "instructedLambda": "honest",
            "sd": 8.1,
            "drawnRed": 30,
            "reportedRed": 23,
            "inferredRed": 19,
            "playerTrialScore": -11,
            "oppTrialScore": 0,
            "playerTotalScore": -571,
            "oppTotalScore": 126,
            "waitTime": 6310.555274300571,
            "responseTime": 1682383848945,
            "catchQuestion": "How many <b class=\"r\">red<\/b> marbles did your opponent report drawing? ",
            "catchKey": -1,
            "catchResponse": -1,
            "catchTime": 1682383808428,
            "trialTime": 0
        },
        {
            "exptPart": "trial",
            "trialNumber": 80,
            "roleCurrent": "receiver",
            "marblesSampled": 100,
            "probRed": 0.5,
            "practiceLambda": 5,
            "trialLambda": 0.3,
            "instructedLambda": "honest",
            "sd": 8.1,
            "drawnRed": 29,
            "reportedRed": 15,
            "inferredRed": 12,
            "playerTrialScore": -17,
            "oppTrialScore": 0,
            "playerTotalScore": -588,
            "oppTotalScore": 126,
            "waitTime": 6291.6503604600075,
            "responseTime": 1682383862380,
            "catchQuestion": "How many <b class=\"r\">red<\/b> marbles did your opponent report drawing? ",
            "catchKey": -1,
            "catchResponse": -1,
            "catchTime": 1682383862380,
            "trialTime": 0
        },
        {
            "exptPart": "trial",
            "trialNumber": 81,
            "roleCurrent": "receiver",
            "marblesSampled": 100,
            "probRed": 0.5,
            "practiceLambda": 5,
            "trialLambda": 0.3,
            "instructedLambda": "honest",
            "sd": 8.1,
            "drawnRed": 27,
            "reportedRed": 31,
            "inferredRed": 29,
            "playerTrialScore": -2,
            "oppTrialScore": 2,
            "playerTotalScore": -590,
            "oppTotalScore": 128,
            "waitTime": 5487.756423448118,
            "responseTime": 1682383947129,
            "catchQuestion": "How many <b class=\"r\">red<\/b> marbles did your opponent report drawing? ",
            "catchKey": -1,
            "catchResponse": -1,
            "catchTime": 1682383862380,
            "trialTime": 0
        },
        {
            "exptPart": "trial",
            "trialNumber": 82,
            "roleCurrent": "receiver",
            "marblesSampled": 100,
            "probRed": 0.5,
            "practiceLambda": 5,
            "trialLambda": 0.3,
            "instructedLambda": "honest",
            "sd": 8.1,
            "drawnRed": 26,
            "reportedRed": 37,
            "inferredRed": 34,
            "playerTrialScore": -8,
            "oppTrialScore": 8,
            "playerTotalScore": -598,
            "oppTotalScore": 136,
            "waitTime": 6928.280344795114,
            "responseTime": 1682384121854,
            "catchQuestion": "How many <b class=\"r\">red<\/b> marbles did your opponent report drawing? ",
            "catchKey": -1,
            "catchResponse": -1,
            "catchTime": 1682383862380,
            "trialTime": 0
        },
        {
            "exptPart": "trial",
            "trialNumber": 83,
            "roleCurrent": "receiver",
            "marblesSampled": 100,
            "probRed": 0.5,
            "practiceLambda": 5,
            "trialLambda": 0.3,
            "instructedLambda": "honest",
            "sd": 8.1,
            "drawnRed": 71,
            "reportedRed": 84,
            "inferredRed": 59,
            "playerTrialScore": -12,
            "oppTrialScore": 0,
            "playerTotalScore": -610,
            "oppTotalScore": 136,
            "waitTime": 7088.364739593355,
            "responseTime": 1682384141353,
            "catchQuestion": "How many <b class=\"r\">red<\/b> marbles did your opponent report drawing? ",
            "catchKey": -1,
            "catchResponse": -1,
            "catchTime": 1682383862380,
            "trialTime": 0
        },
        {
            "exptPart": "trial",
            "trialNumber": 84,
            "roleCurrent": "receiver",
            "marblesSampled": 100,
            "probRed": 0.5,
            "practiceLambda": 5,
            "trialLambda": 0.3,
            "instructedLambda": "honest",
            "sd": 8.1,
            "drawnRed": 21,
            "reportedRed": 25,
            "inferredRed": 18,
            "playerTrialScore": -3,
            "oppTrialScore": 0,
            "playerTotalScore": -613,
            "oppTotalScore": 136,
            "waitTime": 7092.53540977382,
            "responseTime": 1682384154736,
            "catchQuestion": "How many <b class=\"r\">red<\/b> marbles did your opponent report drawing? ",
            "catchKey": -1,
            "catchResponse": -1,
            "catchTime": 1682383862380,
            "trialTime": 0
        },
        {
            "exptPart": "trial",
            "trialNumber": 85,
            "roleCurrent": "receiver",
            "marblesSampled": 100,
            "probRed": 0.5,
            "practiceLambda": 5,
            "trialLambda": 0.3,
            "instructedLambda": "honest",
            "sd": 8.1,
            "drawnRed": 70,
            "reportedRed": 77,
            "inferredRed": 69,
            "playerTrialScore": -1,
            "oppTrialScore": 0,
            "playerTotalScore": -614,
            "oppTotalScore": 136,
            "waitTime": 7335.102391410462,
            "responseTime": 1682384169369,
            "catchQuestion": "How many <b class=\"r\">red<\/b> marbles did your opponent report drawing? ",
            "catchKey": -1,
            "catchResponse": -1,
            "catchTime": 1682383862380,
            "trialTime": 0
        },
        {
            "exptPart": "trial",
            "trialNumber": 86,
            "roleCurrent": "receiver",
            "marblesSampled": 100,
            "probRed": 0.5,
            "practiceLambda": 5,
            "trialLambda": 0.3,
            "instructedLambda": "honest",
            "sd": 8.1,
            "drawnRed": 33,
            "reportedRed": 41,
            "inferredRed": 38,
            "playerTrialScore": -5,
            "oppTrialScore": 5,
            "playerTotalScore": -619,
            "oppTotalScore": 141,
            "waitTime": 6558.14933039419,
            "responseTime": 1682384459730,
            "catchQuestion": "How many <b class=\"r\">red<\/b> marbles did your opponent report drawing? ",
            "catchKey": -1,
            "catchResponse": -1,
            "catchTime": 1682383862380,
            "trialTime": 0
        },
        {
            "exptPart": "trial",
            "trialNumber": 87,
            "roleCurrent": "receiver",
            "marblesSampled": 100,
            "probRed": 0.5,
            "practiceLambda": 5,
            "trialLambda": 0.3,
            "instructedLambda": "honest",
            "sd": 8.1,
            "drawnRed": 42,
            "reportedRed": 27,
            "inferredRed": 23,
            "playerTrialScore": -19,
            "oppTrialScore": 0,
            "playerTotalScore": -638,
            "oppTotalScore": 141,
            "waitTime": 5269.107887166507,
            "responseTime": 1682384467450,
            "catchQuestion": "How many <b class=\"r\">red<\/b> marbles did your opponent report drawing? ",
            "catchKey": -1,
            "catchResponse": -1,
            "catchTime": 1682383862380,
            "trialTime": 0
        },
        {
            "exptPart": "trial",
            "trialNumber": 88,
            "roleCurrent": "receiver",
            "marblesSampled": 100,
            "probRed": 0.5,
            "practiceLambda": 5,
            "trialLambda": 0.3,
            "instructedLambda": "honest",
            "sd": 8.1,
            "drawnRed": 74,
            "reportedRed": 64,
            "inferredRed": 59,
            "playerTrialScore": -15,
            "oppTrialScore": 0,
            "playerTotalScore": -653,
            "oppTotalScore": 141,
            "waitTime": 5928.723604455219,
            "responseTime": 1682384476767,
            "catchQuestion": "How many <b class=\"r\">red<\/b> marbles did your opponent report drawing? ",
            "catchKey": -1,
            "catchResponse": -1,
            "catchTime": 1682383862380,
            "trialTime": 0
        },
        {
            "exptPart": "trial",
            "trialNumber": 89,
            "roleCurrent": "receiver",
            "marblesSampled": 100,
            "probRed": 0.5,
            "practiceLambda": 5,
            "trialLambda": 0.3,
            "instructedLambda": "honest",
            "sd": 8.1,
            "drawnRed": 36,
            "reportedRed": 38,
            "inferredRed": 46,
            "playerTrialScore": -10,
            "oppTrialScore": 10,
            "playerTotalScore": -663,
            "oppTotalScore": 151,
            "waitTime": 5142.844109162295,
            "responseTime": 1682384494569,
            "catchQuestion": "How many <b class=\"r\">red<\/b> marbles did your opponent report drawing? ",
            "catchKey": -1,
            "catchResponse": -1,
            "catchTime": 1682383862380,
            "trialTime": 0
        },
        {
            "exptPart": "trial",
            "trialNumber": 90,
            "roleCurrent": "receiver",
            "marblesSampled": 100,
            "probRed": 0.5,
            "practiceLambda": 5,
            "trialLambda": 0.3,
            "instructedLambda": "honest",
            "sd": 8.1,
            "drawnRed": 93,
            "reportedRed": 98,
            "inferredRed": 2,
            "playerTrialScore": -91,
            "oppTrialScore": 0,
            "playerTotalScore": -754,
            "oppTotalScore": 151,
            "waitTime": 7087.268922151215,
            "responseTime": 1682384506470,
            "catchQuestion": "How many <b class=\"r\">red<\/b> marbles did your opponent report drawing? ",
            "catchKey": 98,
            "catchResponse": 98,
            "catchTime": 1682384506470,
            "trialTime": 0
        },
        {
            "exptPart": "trial",
            "trialNumber": 91,
            "roleCurrent": "receiver",
            "marblesSampled": 100,
            "probRed": 0.5,
            "practiceLambda": 5,
            "trialLambda": 0.3,
            "instructedLambda": "honest",
            "sd": 8.1,
            "drawnRed": 85,
            "reportedRed": 85,
            "inferredRed": 87,
            "playerTrialScore": -2,
            "oppTrialScore": 2,
            "playerTotalScore": -756,
            "oppTotalScore": 153,
            "waitTime": 7253.877664664531,
            "responseTime": 1682384524553,
            "catchQuestion": "How many <b class=\"r\">red<\/b> marbles did your opponent report drawing? ",
            "catchKey": -1,
            "catchResponse": -1,
            "catchTime": 1682384506470,
            "trialTime": 0
        },
        {
            "exptPart": "trial",
            "trialNumber": 92,
            "roleCurrent": "receiver",
            "marblesSampled": 100,
            "probRed": 0.5,
            "practiceLambda": 5,
            "trialLambda": 0.3,
            "instructedLambda": "honest",
            "sd": 8.1,
            "drawnRed": 70,
            "reportedRed": 82,
            "inferredRed": 70,
            "playerTrialScore": 0,
            "oppTrialScore": 0,
            "playerTotalScore": -756,
            "oppTotalScore": 153,
            "waitTime": 7399.835888994717,
            "responseTime": 1682384537021,
            "catchQuestion": "How many <b class=\"r\">red<\/b> marbles did your opponent report drawing? ",
            "catchKey": -1,
            "catchResponse": -1,
            "catchTime": 1682384506470,
            "trialTime": 0
        },
        {
            "exptPart": "trial",
            "trialNumber": 93,
            "roleCurrent": "receiver",
            "marblesSampled": 100,
            "probRed": 0.5,
            "practiceLambda": 5,
            "trialLambda": 0.3,
            "instructedLambda": "honest",
            "sd": 8.1,
            "drawnRed": 52,
            "reportedRed": 60,
            "inferredRed": 73,
            "playerTrialScore": -21,
            "oppTrialScore": 21,
            "playerTotalScore": -777,
            "oppTotalScore": 174,
            "waitTime": 6611.224954136809,
            "responseTime": 1682384548004,
            "catchQuestion": "How many <b class=\"r\">red<\/b> marbles did your opponent report drawing? ",
            "catchKey": 60,
            "catchResponse": 60,
            "catchTime": 1682384548004,
            "trialTime": 0
        },
        {
            "exptPart": "trial",
            "trialNumber": 94,
            "roleCurrent": "receiver",
            "marblesSampled": 100,
            "probRed": 0.5,
            "practiceLambda": 5,
            "trialLambda": 0.3,
            "instructedLambda": "honest",
            "sd": 8.1,
            "drawnRed": 71,
            "reportedRed": 78,
            "inferredRed": 79,
            "playerTrialScore": -8,
            "oppTrialScore": 8,
            "playerTotalScore": -785,
            "oppTotalScore": 182,
            "waitTime": 5710.002018488246,
            "responseTime": 1682384570421,
            "catchQuestion": "How many <b class=\"r\">red<\/b> marbles did your opponent report drawing? ",
            "catchKey": -1,
            "catchResponse": -1,
            "catchTime": 1682384548004,
            "trialTime": 0
        },
        {
            "exptPart": "trial",
            "trialNumber": 95,
            "roleCurrent": "receiver",
            "marblesSampled": 100,
            "probRed": 0.5,
            "practiceLambda": 5,
            "trialLambda": 0.3,
            "instructedLambda": "honest",
            "sd": 8.1,
            "drawnRed": 25,
            "reportedRed": 30,
            "inferredRed": 28,
            "playerTrialScore": -3,
            "oppTrialScore": 3,
            "playerTotalScore": -788,
            "oppTotalScore": 185,
            "waitTime": 6303.932025027521,
            "responseTime": 1682384582921,
            "catchQuestion": "How many <b class=\"r\">red<\/b> marbles did your opponent report drawing? ",
            "catchKey": -1,
            "catchResponse": -1,
            "catchTime": 1682384548004,
            "trialTime": 0
        },
        {
            "exptPart": "trial",
            "trialNumber": 96,
            "roleCurrent": "receiver",
            "marblesSampled": 100,
            "probRed": 0.5,
            "practiceLambda": 5,
            "trialLambda": 0.3,
            "instructedLambda": "honest",
            "sd": 8.1,
            "drawnRed": 34,
            "reportedRed": 30,
            "inferredRed": 25,
            "playerTrialScore": -9,
            "oppTrialScore": 0,
            "playerTotalScore": -797,
            "oppTotalScore": 185,
            "waitTime": 7024.509765185716,
            "responseTime": 1682384594338,
            "catchQuestion": "How many <b class=\"r\">red<\/b> marbles did your opponent report drawing? ",
            "catchKey": -1,
            "catchResponse": -1,
            "catchTime": 1682384548004,
            "trialTime": 0
        },
        {
            "exptPart": "trial",
            "trialNumber": 97,
            "roleCurrent": "receiver",
            "marblesSampled": 100,
            "probRed": 0.5,
            "practiceLambda": 5,
            "trialLambda": 0.3,
            "instructedLambda": "honest",
            "sd": 8.1,
            "drawnRed": 71,
            "reportedRed": 55,
            "inferredRed": 54,
            "playerTrialScore": -17,
            "oppTrialScore": 0,
            "playerTotalScore": -814,
            "oppTotalScore": 185,
            "waitTime": 7243.748348199558,
            "responseTime": 1682384607120,
            "catchQuestion": "How many <b class=\"r\">red<\/b> marbles did your opponent report drawing? ",
            "catchKey": -1,
            "catchResponse": -1,
            "catchTime": 1682384548004,
            "trialTime": 0
        },
        {
            "exptPart": "trial",
            "trialNumber": 98,
            "roleCurrent": "receiver",
            "marblesSampled": 100,
            "probRed": 0.5,
            "practiceLambda": 5,
            "trialLambda": 0.3,
            "instructedLambda": "honest",
            "sd": 8.1,
            "drawnRed": 14,
            "reportedRed": 24,
            "inferredRed": 17,
            "playerTrialScore": -3,
            "oppTrialScore": 3,
            "playerTotalScore": -817,
            "oppTotalScore": 188,
            "waitTime": 6952.115582166528,
            "responseTime": 1682384618271,
            "catchQuestion": "How many <b class=\"r\">red<\/b> marbles did your opponent report drawing? ",
            "catchKey": -1,
            "catchResponse": -1,
            "catchTime": 1682384548004,
            "trialTime": 0
        },
        {
            "exptPart": "trial",
            "trialNumber": 99,
            "roleCurrent": "receiver",
            "marblesSampled": 100,
            "probRed": 0.5,
            "practiceLambda": 5,
            "trialLambda": 0.3,
            "instructedLambda": "honest",
            "sd": 8.1,
            "drawnRed": 31,
            "reportedRed": 37,
            "inferredRed": 35,
            "playerTrialScore": -4,
            "oppTrialScore": 4,
            "playerTotalScore": -821,
            "oppTotalScore": 192,
            "waitTime": 5164.640879655349,
            "responseTime": 1682384634488,
            "catchQuestion": "How many <b class=\"r\">red<\/b> marbles did your opponent report drawing? ",
            "catchKey": -1,
            "catchResponse": -1,
            "catchTime": 1682384548004,
            "trialTime": 0
        },
        {
            "exptPart": "trial",
            "trialNumber": 100,
            "roleCurrent": "receiver",
            "marblesSampled": 100,
            "probRed": 0.5,
            "practiceLambda": 5,
            "trialLambda": 0.3,
            "instructedLambda": "honest",
            "sd": 8.1,
            "drawnRed": 72,
            "reportedRed": 67,
            "inferredRed": 65,
            "playerTrialScore": -7,
            "oppTrialScore": 0,
            "playerTotalScore": -828,
            "oppTotalScore": 192,
            "waitTime": 6074.155998633976,
            "responseTime": 1682384644254,
            "catchQuestion": "How many <b class=\"r\">red<\/b> marbles did your opponent report drawing? ",
            "catchKey": -1,
            "catchResponse": -1,
            "catchTime": 1682384644254,
            "trialTime": 0
        }
    ]
}