{
    "client": {
        "type": "sona",
        "experiment_id": 2228,
        "credit_token": "b315147ae43241ea9c65086cb510cfb7",
        "survey_code": "45516",
        "sid": "sona-45516",
        "window": {
            "width": 1366,
            "height": 617
        },
        "screen": {
            "width": 1366,
            "height": 768
        },
        "userAgent": "Mozilla\/5.0 (Windows NT 10.0; Win64; x64) AppleWebKit\/537.36 (KHTML, like Gecko) Chrome\/112.0.0.0 Safari\/537.36",
        "score": 0,
        "bonus": 0
    },
    "expt": {
        "saveURL": "submit.simple.php",
        "trials": 100,
        "practiceTrials": 2,
        "marblesSampled": 100,
        "probRed": 0.5,
        "practiceLambdaAI": 5,
        "lambdaAI": 8.1,
        "sd": 8.1,
        "roles": [
            "sender",
            "receiver"
        ],
        "cost": "unif",
        "goal": "over",
        "oppDishonesty": "honest",
        "catchTrials": [
            26,
            20,
            25,
            73,
            64,
            47,
            50,
            76,
            21,
            63
        ],
        "scoreTotal": {
            "player": -938,
            "opp": 839
        },
        "sona": {
            "experiment_id": 2228,
            "credit_token": "b315147ae43241ea9c65086cb510cfb7"
        },
        "pilot": false,
        "debug": false
    },
    "trials": [
        {
            "exptPart": "practice",
            "trialNumber": 1,
            "roleCurrent": "sender",
            "marblesSampled": 100,
            "probRed": 0.5,
            "practiceLambda": 5,
            "trialLambda": 8.1,
            "instructedLambda": "honest",
            "sd": 8.1,
            "drawnRed": 34,
            "reportedRed": 46,
            "inferredRed": 38,
            "playerTrialScore": 4,
            "oppTrialScore": -4,
            "playerTotalScore": 4,
            "oppTotalScore": -4,
            "waitTime": 2722.4829745109073,
            "responseTime": 1682187650659,
            "catchQuestion": "How many <b class=\"r\">red<\/b> marbles did you actually draw (before any changes)? ",
            "catchKey": 34,
            "catchResponse": 46,
            "catchTime": 1682187650660,
            "trialTime": 0
        },
        {
            "exptPart": "practice",
            "trialNumber": 2,
            "roleCurrent": "receiver",
            "marblesSampled": 100,
            "probRed": 0.5,
            "practiceLambda": 5,
            "trialLambda": 8.1,
            "instructedLambda": "honest",
            "sd": 8.1,
            "drawnRed": 54,
            "reportedRed": 58,
            "inferredRed": 45,
            "playerTrialScore": -9,
            "oppTrialScore": 0,
            "playerTotalScore": -5,
            "oppTotalScore": -4,
            "waitTime": 6811.510362619283,
            "responseTime": 1682187688607,
            "catchQuestion": "How many <b class=\"r\">red<\/b> marbles did your opponent report drawing? ",
            "catchKey": 58,
            "catchResponse": 58,
            "catchTime": 1682187688608,
            "trialTime": 0
        },
        {
            "exptPart": "trial",
            "trialNumber": 1,
            "roleCurrent": "receiver",
            "marblesSampled": 100,
            "probRed": 0.5,
            "practiceLambda": 5,
            "trialLambda": 8.1,
            "instructedLambda": "honest",
            "sd": 8.1,
            "drawnRed": 67,
            "reportedRed": 75,
            "inferredRed": 80,
            "playerTrialScore": -13,
            "oppTrialScore": 13,
            "playerTotalScore": -13,
            "oppTotalScore": 13,
            "waitTime": 5254.7465674621835,
            "responseTime": 1682187729950,
            "catchQuestion": "How many <b class=\"r\">red<\/b> marbles did your opponent report drawing? ",
            "catchKey": -1,
            "catchResponse": -1,
            "catchTime": 1682187688608,
            "trialTime": 0
        },
        {
            "exptPart": "trial",
            "trialNumber": 2,
            "roleCurrent": "receiver",
            "marblesSampled": 100,
            "probRed": 0.5,
            "practiceLambda": 5,
            "trialLambda": 8.1,
            "instructedLambda": "honest",
            "sd": 8.1,
            "drawnRed": 91,
            "reportedRed": 95,
            "inferredRed": 90,
            "playerTrialScore": -1,
            "oppTrialScore": 0,
            "playerTotalScore": -14,
            "oppTotalScore": 13,
            "waitTime": 6697.256541114484,
            "responseTime": 1682187745770,
            "catchQuestion": "How many <b class=\"r\">red<\/b> marbles did your opponent report drawing? ",
            "catchKey": -1,
            "catchResponse": -1,
            "catchTime": 1682187688608,
            "trialTime": 0
        },
        {
            "exptPart": "trial",
            "trialNumber": 3,
            "roleCurrent": "receiver",
            "marblesSampled": 100,
            "probRed": 0.5,
            "practiceLambda": 5,
            "trialLambda": 8.1,
            "instructedLambda": "honest",
            "sd": 8.1,
            "drawnRed": 62,
            "reportedRed": 81,
            "inferredRed": 75,
            "playerTrialScore": -13,
            "oppTrialScore": 13,
            "playerTotalScore": -27,
            "oppTotalScore": 26,
            "waitTime": 5249.721860928984,
            "responseTime": 1682187756525,
            "catchQuestion": "How many <b class=\"r\">red<\/b> marbles did your opponent report drawing? ",
            "catchKey": -1,
            "catchResponse": -1,
            "catchTime": 1682187688608,
            "trialTime": 0
        },
        {
            "exptPart": "trial",
            "trialNumber": 4,
            "roleCurrent": "receiver",
            "marblesSampled": 100,
            "probRed": 0.5,
            "practiceLambda": 5,
            "trialLambda": 8.1,
            "instructedLambda": "honest",
            "sd": 8.1,
            "drawnRed": 47,
            "reportedRed": 52,
            "inferredRed": 45,
            "playerTrialScore": -2,
            "oppTrialScore": 0,
            "playerTotalScore": -29,
            "oppTotalScore": 26,
            "waitTime": 6882.11472378026,
            "responseTime": 1682187768047,
            "catchQuestion": "How many <b class=\"r\">red<\/b> marbles did your opponent report drawing? ",
            "catchKey": -1,
            "catchResponse": -1,
            "catchTime": 1682187688608,
            "trialTime": 0
        },
        {
            "exptPart": "trial",
            "trialNumber": 5,
            "roleCurrent": "receiver",
            "marblesSampled": 100,
            "probRed": 0.5,
            "practiceLambda": 5,
            "trialLambda": 8.1,
            "instructedLambda": "honest",
            "sd": 8.1,
            "drawnRed": 47,
            "reportedRed": 54,
            "inferredRed": 50,
            "playerTrialScore": -3,
            "oppTrialScore": 3,
            "playerTotalScore": -32,
            "oppTotalScore": 29,
            "waitTime": 5314.810210768885,
            "responseTime": 1682187780864,
            "catchQuestion": "How many <b class=\"r\">red<\/b> marbles did your opponent report drawing? ",
            "catchKey": -1,
            "catchResponse": -1,
            "catchTime": 1682187688608,
            "trialTime": 0
        },
        {
            "exptPart": "trial",
            "trialNumber": 6,
            "roleCurrent": "receiver",
            "marblesSampled": 100,
            "probRed": 0.5,
            "practiceLambda": 5,
            "trialLambda": 8.1,
            "instructedLambda": "honest",
            "sd": 8.1,
            "drawnRed": 44,
            "reportedRed": 57,
            "inferredRed": 45,
            "playerTrialScore": -1,
            "oppTrialScore": 1,
            "playerTotalScore": -33,
            "oppTotalScore": 30,
            "waitTime": 5931.570756710534,
            "responseTime": 1682187793346,
            "catchQuestion": "How many <b class=\"r\">red<\/b> marbles did your opponent report drawing? ",
            "catchKey": -1,
            "catchResponse": -1,
            "catchTime": 1682187688608,
            "trialTime": 0
        },
        {
            "exptPart": "trial",
            "trialNumber": 7,
            "roleCurrent": "receiver",
            "marblesSampled": 100,
            "probRed": 0.5,
            "practiceLambda": 5,
            "trialLambda": 8.1,
            "instructedLambda": "honest",
            "sd": 8.1,
            "drawnRed": 43,
            "reportedRed": 45,
            "inferredRed": 40,
            "playerTrialScore": -3,
            "oppTrialScore": 0,
            "playerTotalScore": -36,
            "oppTotalScore": 30,
            "waitTime": 6027.757533157415,
            "responseTime": 1682187806308,
            "catchQuestion": "How many <b class=\"r\">red<\/b> marbles did your opponent report drawing? ",
            "catchKey": -1,
            "catchResponse": -1,
            "catchTime": 1682187688608,
            "trialTime": 0
        },
        {
            "exptPart": "trial",
            "trialNumber": 8,
            "roleCurrent": "receiver",
            "marblesSampled": 100,
            "probRed": 0.5,
            "practiceLambda": 5,
            "trialLambda": 8.1,
            "instructedLambda": "honest",
            "sd": 8.1,
            "drawnRed": 44,
            "reportedRed": 55,
            "inferredRed": 50,
            "playerTrialScore": -6,
            "oppTrialScore": 6,
            "playerTotalScore": -42,
            "oppTotalScore": 36,
            "waitTime": 6717.260361999407,
            "responseTime": 1682187817014,
            "catchQuestion": "How many <b class=\"r\">red<\/b> marbles did your opponent report drawing? ",
            "catchKey": -1,
            "catchResponse": -1,
            "catchTime": 1682187688608,
            "trialTime": 0
        },
        {
            "exptPart": "trial",
            "trialNumber": 9,
            "roleCurrent": "receiver",
            "marblesSampled": 100,
            "probRed": 0.5,
            "practiceLambda": 5,
            "trialLambda": 8.1,
            "instructedLambda": "honest",
            "sd": 8.1,
            "drawnRed": 49,
            "reportedRed": 57,
            "inferredRed": 54,
            "playerTrialScore": -5,
            "oppTrialScore": 5,
            "playerTotalScore": -47,
            "oppTotalScore": 41,
            "waitTime": 5622.640011071074,
            "responseTime": 1682187830024,
            "catchQuestion": "How many <b class=\"r\">red<\/b> marbles did your opponent report drawing? ",
            "catchKey": -1,
            "catchResponse": -1,
            "catchTime": 1682187688608,
            "trialTime": 0
        },
        {
            "exptPart": "trial",
            "trialNumber": 10,
            "roleCurrent": "receiver",
            "marblesSampled": 100,
            "probRed": 0.5,
            "practiceLambda": 5,
            "trialLambda": 8.1,
            "instructedLambda": "honest",
            "sd": 8.1,
            "drawnRed": 50,
            "reportedRed": 51,
            "inferredRed": 45,
            "playerTrialScore": -5,
            "oppTrialScore": 0,
            "playerTotalScore": -52,
            "oppTotalScore": 41,
            "waitTime": 5307.755921898932,
            "responseTime": 1682187839658,
            "catchQuestion": "How many <b class=\"r\">red<\/b> marbles did your opponent report drawing? ",
            "catchKey": -1,
            "catchResponse": -1,
            "catchTime": 1682187839658,
            "trialTime": 0
        },
        {
            "exptPart": "trial",
            "trialNumber": 11,
            "roleCurrent": "receiver",
            "marblesSampled": 100,
            "probRed": 0.5,
            "practiceLambda": 5,
            "trialLambda": 8.1,
            "instructedLambda": "honest",
            "sd": 8.1,
            "drawnRed": 69,
            "reportedRed": 78,
            "inferredRed": 75,
            "playerTrialScore": -6,
            "oppTrialScore": 6,
            "playerTotalScore": -58,
            "oppTotalScore": 47,
            "waitTime": 5665.640636711642,
            "responseTime": 1682187854717,
            "catchQuestion": "How many <b class=\"r\">red<\/b> marbles did your opponent report drawing? ",
            "catchKey": -1,
            "catchResponse": -1,
            "catchTime": 1682187839658,
            "trialTime": 0
        },
        {
            "exptPart": "trial",
            "trialNumber": 12,
            "roleCurrent": "receiver",
            "marblesSampled": 100,
            "probRed": 0.5,
            "practiceLambda": 5,
            "trialLambda": 8.1,
            "instructedLambda": "honest",
            "sd": 8.1,
            "drawnRed": 45,
            "reportedRed": 57,
            "inferredRed": 55,
            "playerTrialScore": -10,
            "oppTrialScore": 10,
            "playerTotalScore": -68,
            "oppTotalScore": 57,
            "waitTime": 6617.824042517179,
            "responseTime": 1682187864947,
            "catchQuestion": "How many <b class=\"r\">red<\/b> marbles did your opponent report drawing? ",
            "catchKey": -1,
            "catchResponse": -1,
            "catchTime": 1682187839658,
            "trialTime": 0
        },
        {
            "exptPart": "trial",
            "trialNumber": 13,
            "roleCurrent": "receiver",
            "marblesSampled": 100,
            "probRed": 0.5,
            "practiceLambda": 5,
            "trialLambda": 8.1,
            "instructedLambda": "honest",
            "sd": 8.1,
            "drawnRed": 19,
            "reportedRed": 33,
            "inferredRed": 30,
            "playerTrialScore": -11,
            "oppTrialScore": 11,
            "playerTotalScore": -79,
            "oppTotalScore": 68,
            "waitTime": 5211.538480013089,
            "responseTime": 1682187875250,
            "catchQuestion": "How many <b class=\"r\">red<\/b> marbles did your opponent report drawing? ",
            "catchKey": -1,
            "catchResponse": -1,
            "catchTime": 1682187839658,
            "trialTime": 0
        },
        {
            "exptPart": "trial",
            "trialNumber": 14,
            "roleCurrent": "receiver",
            "marblesSampled": 100,
            "probRed": 0.5,
            "practiceLambda": 5,
            "trialLambda": 8.1,
            "instructedLambda": "honest",
            "sd": 8.1,
            "drawnRed": 78,
            "reportedRed": 84,
            "inferredRed": 84,
            "playerTrialScore": -6,
            "oppTrialScore": 6,
            "playerTotalScore": -85,
            "oppTotalScore": 74,
            "waitTime": 6602.949304516425,
            "responseTime": 1682187889474,
            "catchQuestion": "How many <b class=\"r\">red<\/b> marbles did your opponent report drawing? ",
            "catchKey": -1,
            "catchResponse": -1,
            "catchTime": 1682187839658,
            "trialTime": 0
        },
        {
            "exptPart": "trial",
            "trialNumber": 15,
            "roleCurrent": "receiver",
            "marblesSampled": 100,
            "probRed": 0.5,
            "practiceLambda": 5,
            "trialLambda": 8.1,
            "instructedLambda": "honest",
            "sd": 8.1,
            "drawnRed": 81,
            "reportedRed": 85,
            "inferredRed": 86,
            "playerTrialScore": -5,
            "oppTrialScore": 5,
            "playerTotalScore": -90,
            "oppTotalScore": 79,
            "waitTime": 5961.051675841834,
            "responseTime": 1682187899877,
            "catchQuestion": "How many <b class=\"r\">red<\/b> marbles did your opponent report drawing? ",
            "catchKey": -1,
            "catchResponse": -1,
            "catchTime": 1682187839658,
            "trialTime": 0
        },
        {
            "exptPart": "trial",
            "trialNumber": 16,
            "roleCurrent": "receiver",
            "marblesSampled": 100,
            "probRed": 0.5,
            "practiceLambda": 5,
            "trialLambda": 8.1,
            "instructedLambda": "honest",
            "sd": 8.1,
            "drawnRed": 44,
            "reportedRed": 63,
            "inferredRed": 60,
            "playerTrialScore": -16,
            "oppTrialScore": 16,
            "playerTotalScore": -106,
            "oppTotalScore": 95,
            "waitTime": 5863.01843287908,
            "responseTime": 1682187908943,
            "catchQuestion": "How many <b class=\"r\">red<\/b> marbles did your opponent report drawing? ",
            "catchKey": -1,
            "catchResponse": -1,
            "catchTime": 1682187839658,
            "trialTime": 0
        },
        {
            "exptPart": "trial",
            "trialNumber": 17,
            "roleCurrent": "receiver",
            "marblesSampled": 100,
            "probRed": 0.5,
            "practiceLambda": 5,
            "trialLambda": 8.1,
            "instructedLambda": "honest",
            "sd": 8.1,
            "drawnRed": 22,
            "reportedRed": 28,
            "inferredRed": 25,
            "playerTrialScore": -3,
            "oppTrialScore": 3,
            "playerTotalScore": -109,
            "oppTotalScore": 98,
            "waitTime": 5689.558585118458,
            "responseTime": 1682187922250,
            "catchQuestion": "How many <b class=\"r\">red<\/b> marbles did your opponent report drawing? ",
            "catchKey": -1,
            "catchResponse": -1,
            "catchTime": 1682187839658,
            "trialTime": 0
        },
        {
            "exptPart": "trial",
            "trialNumber": 18,
            "roleCurrent": "receiver",
            "marblesSampled": 100,
            "probRed": 0.5,
            "practiceLambda": 5,
            "trialLambda": 8.1,
            "instructedLambda": "honest",
            "sd": 8.1,
            "drawnRed": 12,
            "reportedRed": 13,
            "inferredRed": 10,
            "playerTrialScore": -2,
            "oppTrialScore": 0,
            "playerTotalScore": -111,
            "oppTotalScore": 98,
            "waitTime": 5757.633592871625,
            "responseTime": 1682187932362,
            "catchQuestion": "How many <b class=\"r\">red<\/b> marbles did your opponent report drawing? ",
            "catchKey": -1,
            "catchResponse": -1,
            "catchTime": 1682187839658,
            "trialTime": 0
        },
        {
            "exptPart": "trial",
            "trialNumber": 19,
            "roleCurrent": "receiver",
            "marblesSampled": 100,
            "probRed": 0.5,
            "practiceLambda": 5,
            "trialLambda": 8.1,
            "instructedLambda": "honest",
            "sd": 8.1,
            "drawnRed": 35,
            "reportedRed": 39,
            "inferredRed": 39,
            "playerTrialScore": -4,
            "oppTrialScore": 4,
            "playerTotalScore": -115,
            "oppTotalScore": 102,
            "waitTime": 5394.269984108851,
            "responseTime": 1682187942470,
            "catchQuestion": "How many <b class=\"r\">red<\/b> marbles did your opponent report drawing? ",
            "catchKey": -1,
            "catchResponse": -1,
            "catchTime": 1682187839658,
            "trialTime": 0
        },
        {
            "exptPart": "trial",
            "trialNumber": 20,
            "roleCurrent": "receiver",
            "marblesSampled": 100,
            "probRed": 0.5,
            "practiceLambda": 5,
            "trialLambda": 8.1,
            "instructedLambda": "honest",
            "sd": 8.1,
            "drawnRed": 46,
            "reportedRed": 55,
            "inferredRed": 54,
            "playerTrialScore": -8,
            "oppTrialScore": 8,
            "playerTotalScore": -123,
            "oppTotalScore": 110,
            "waitTime": 5741.298507579568,
            "responseTime": 1682187953156,
            "catchQuestion": "How many <b class=\"r\">red<\/b> marbles did your opponent report drawing? ",
            "catchKey": -1,
            "catchResponse": -1,
            "catchTime": 1682187953156,
            "trialTime": 0
        },
        {
            "exptPart": "trial",
            "trialNumber": 21,
            "roleCurrent": "receiver",
            "marblesSampled": 100,
            "probRed": 0.5,
            "practiceLambda": 5,
            "trialLambda": 8.1,
            "instructedLambda": "honest",
            "sd": 8.1,
            "drawnRed": 43,
            "reportedRed": 59,
            "inferredRed": 65,
            "playerTrialScore": -22,
            "oppTrialScore": 22,
            "playerTotalScore": -145,
            "oppTotalScore": 132,
            "waitTime": 5965.14680052059,
            "responseTime": 1682187968327,
            "catchQuestion": "How many <b class=\"r\">red<\/b> marbles did your opponent report drawing? ",
            "catchKey": 59,
            "catchResponse": 58,
            "catchTime": 1682187968327,
            "trialTime": 0
        },
        {
            "exptPart": "trial",
            "trialNumber": 22,
            "roleCurrent": "receiver",
            "marblesSampled": 100,
            "probRed": 0.5,
            "practiceLambda": 5,
            "trialLambda": 8.1,
            "instructedLambda": "honest",
            "sd": 8.1,
            "drawnRed": 24,
            "reportedRed": 28,
            "inferredRed": 29,
            "playerTrialScore": -5,
            "oppTrialScore": 5,
            "playerTotalScore": -150,
            "oppTotalScore": 137,
            "waitTime": 6813.14817597814,
            "responseTime": 1682187991514,
            "catchQuestion": "How many <b class=\"r\">red<\/b> marbles did your opponent report drawing? ",
            "catchKey": 28,
            "catchResponse": 28,
            "catchTime": 1682187991514,
            "trialTime": 0
        },
        {
            "exptPart": "trial",
            "trialNumber": 23,
            "roleCurrent": "receiver",
            "marblesSampled": 100,
            "probRed": 0.5,
            "practiceLambda": 5,
            "trialLambda": 8.1,
            "instructedLambda": "honest",
            "sd": 8.1,
            "drawnRed": 54,
            "reportedRed": 66,
            "inferredRed": 66,
            "playerTrialScore": -12,
            "oppTrialScore": 12,
            "playerTotalScore": -162,
            "oppTotalScore": 149,
            "waitTime": 6479.069871558447,
            "responseTime": 1682188009389,
            "catchQuestion": "How many <b class=\"r\">red<\/b> marbles did your opponent report drawing? ",
            "catchKey": -1,
            "catchResponse": -1,
            "catchTime": 1682187991514,
            "trialTime": 0
        },
        {
            "exptPart": "trial",
            "trialNumber": 24,
            "roleCurrent": "receiver",
            "marblesSampled": 100,
            "probRed": 0.5,
            "practiceLambda": 5,
            "trialLambda": 8.1,
            "instructedLambda": "honest",
            "sd": 8.1,
            "drawnRed": 73,
            "reportedRed": 78,
            "inferredRed": 77,
            "playerTrialScore": -4,
            "oppTrialScore": 4,
            "playerTotalScore": -166,
            "oppTotalScore": 153,
            "waitTime": 6715.735227719839,
            "responseTime": 1682188020216,
            "catchQuestion": "How many <b class=\"r\">red<\/b> marbles did your opponent report drawing? ",
            "catchKey": -1,
            "catchResponse": -1,
            "catchTime": 1682187991514,
            "trialTime": 0
        },
        {
            "exptPart": "trial",
            "trialNumber": 25,
            "roleCurrent": "receiver",
            "marblesSampled": 100,
            "probRed": 0.5,
            "practiceLambda": 5,
            "trialLambda": 8.1,
            "instructedLambda": "honest",
            "sd": 8.1,
            "drawnRed": 36,
            "reportedRed": 66,
            "inferredRed": 65,
            "playerTrialScore": -29,
            "oppTrialScore": 29,
            "playerTotalScore": -195,
            "oppTotalScore": 182,
            "waitTime": 7341.95488800583,
            "responseTime": 1682188031215,
            "catchQuestion": "How many <b class=\"r\">red<\/b> marbles did your opponent report drawing? ",
            "catchKey": -1,
            "catchResponse": -1,
            "catchTime": 1682187991514,
            "trialTime": 0
        },
        {
            "exptPart": "trial",
            "trialNumber": 26,
            "roleCurrent": "receiver",
            "marblesSampled": 100,
            "probRed": 0.5,
            "practiceLambda": 5,
            "trialLambda": 8.1,
            "instructedLambda": "honest",
            "sd": 8.1,
            "drawnRed": 54,
            "reportedRed": 60,
            "inferredRed": 60,
            "playerTrialScore": -6,
            "oppTrialScore": 6,
            "playerTotalScore": -201,
            "oppTotalScore": 188,
            "waitTime": 5481.0778271346735,
            "responseTime": 1682188049624,
            "catchQuestion": "How many <b class=\"r\">red<\/b> marbles did your opponent report drawing? ",
            "catchKey": 60,
            "catchResponse": 60,
            "catchTime": 1682188049625,
            "trialTime": 0
        },
        {
            "exptPart": "trial",
            "trialNumber": 27,
            "roleCurrent": "receiver",
            "marblesSampled": 100,
            "probRed": 0.5,
            "practiceLambda": 5,
            "trialLambda": 8.1,
            "instructedLambda": "honest",
            "sd": 8.1,
            "drawnRed": 35,
            "reportedRed": 44,
            "inferredRed": 44,
            "playerTrialScore": -9,
            "oppTrialScore": 9,
            "playerTotalScore": -210,
            "oppTotalScore": 197,
            "waitTime": 6006.078400041557,
            "responseTime": 1682188078412,
            "catchQuestion": "How many <b class=\"r\">red<\/b> marbles did your opponent report drawing? ",
            "catchKey": 44,
            "catchResponse": 44,
            "catchTime": 1682188078412,
            "trialTime": 0
        },
        {
            "exptPart": "trial",
            "trialNumber": 28,
            "roleCurrent": "receiver",
            "marblesSampled": 100,
            "probRed": 0.5,
            "practiceLambda": 5,
            "trialLambda": 8.1,
            "instructedLambda": "honest",
            "sd": 8.1,
            "drawnRed": 20,
            "reportedRed": 28,
            "inferredRed": 25,
            "playerTrialScore": -5,
            "oppTrialScore": 5,
            "playerTotalScore": -215,
            "oppTotalScore": 202,
            "waitTime": 6637.239005303889,
            "responseTime": 1682188099865,
            "catchQuestion": "How many <b class=\"r\">red<\/b> marbles did your opponent report drawing? ",
            "catchKey": -1,
            "catchResponse": -1,
            "catchTime": 1682188078412,
            "trialTime": 0
        },
        {
            "exptPart": "trial",
            "trialNumber": 29,
            "roleCurrent": "receiver",
            "marblesSampled": 100,
            "probRed": 0.5,
            "practiceLambda": 5,
            "trialLambda": 8.1,
            "instructedLambda": "honest",
            "sd": 8.1,
            "drawnRed": 51,
            "reportedRed": 53,
            "inferredRed": 53,
            "playerTrialScore": -2,
            "oppTrialScore": 2,
            "playerTotalScore": -217,
            "oppTotalScore": 204,
            "waitTime": 6523.957457009728,
            "responseTime": 1682188117242,
            "catchQuestion": "How many <b class=\"r\">red<\/b> marbles did your opponent report drawing? ",
            "catchKey": -1,
            "catchResponse": -1,
            "catchTime": 1682188078412,
            "trialTime": 0
        },
        {
            "exptPart": "trial",
            "trialNumber": 30,
            "roleCurrent": "receiver",
            "marblesSampled": 100,
            "probRed": 0.5,
            "practiceLambda": 5,
            "trialLambda": 8.1,
            "instructedLambda": "honest",
            "sd": 8.1,
            "drawnRed": 47,
            "reportedRed": 55,
            "inferredRed": 55,
            "playerTrialScore": -8,
            "oppTrialScore": 8,
            "playerTotalScore": -225,
            "oppTotalScore": 212,
            "waitTime": 6586.30641452657,
            "responseTime": 1682188126892,
            "catchQuestion": "How many <b class=\"r\">red<\/b> marbles did your opponent report drawing? ",
            "catchKey": -1,
            "catchResponse": -1,
            "catchTime": 1682188126892,
            "trialTime": 0
        },
        {
            "exptPart": "trial",
            "trialNumber": 31,
            "roleCurrent": "receiver",
            "marblesSampled": 100,
            "probRed": 0.5,
            "practiceLambda": 5,
            "trialLambda": 8.1,
            "instructedLambda": "honest",
            "sd": 8.1,
            "drawnRed": 64,
            "reportedRed": 72,
            "inferredRed": 70,
            "playerTrialScore": -6,
            "oppTrialScore": 6,
            "playerTotalScore": -231,
            "oppTotalScore": 218,
            "waitTime": 5340.605175564823,
            "responseTime": 1682188142827,
            "catchQuestion": "How many <b class=\"r\">red<\/b> marbles did your opponent report drawing? ",
            "catchKey": -1,
            "catchResponse": -1,
            "catchTime": 1682188126892,
            "trialTime": 0
        },
        {
            "exptPart": "trial",
            "trialNumber": 32,
            "roleCurrent": "receiver",
            "marblesSampled": 100,
            "probRed": 0.5,
            "practiceLambda": 5,
            "trialLambda": 8.1,
            "instructedLambda": "honest",
            "sd": 8.1,
            "drawnRed": 32,
            "reportedRed": 48,
            "inferredRed": 48,
            "playerTrialScore": -16,
            "oppTrialScore": 16,
            "playerTotalScore": -247,
            "oppTotalScore": 234,
            "waitTime": 5633.285806037433,
            "responseTime": 1682188152451,
            "catchQuestion": "How many <b class=\"r\">red<\/b> marbles did your opponent report drawing? ",
            "catchKey": -1,
            "catchResponse": -1,
            "catchTime": 1682188126892,
            "trialTime": 0
        },
        {
            "exptPart": "trial",
            "trialNumber": 33,
            "roleCurrent": "receiver",
            "marblesSampled": 100,
            "probRed": 0.5,
            "practiceLambda": 5,
            "trialLambda": 8.1,
            "instructedLambda": "honest",
            "sd": 8.1,
            "drawnRed": 57,
            "reportedRed": 73,
            "inferredRed": 75,
            "playerTrialScore": -18,
            "oppTrialScore": 18,
            "playerTotalScore": -265,
            "oppTotalScore": 252,
            "waitTime": 6028.407430750682,
            "responseTime": 1682188162184,
            "catchQuestion": "How many <b class=\"r\">red<\/b> marbles did your opponent report drawing? ",
            "catchKey": -1,
            "catchResponse": -1,
            "catchTime": 1682188126892,
            "trialTime": 0
        },
        {
            "exptPart": "trial",
            "trialNumber": 34,
            "roleCurrent": "receiver",
            "marblesSampled": 100,
            "probRed": 0.5,
            "practiceLambda": 5,
            "trialLambda": 8.1,
            "instructedLambda": "honest",
            "sd": 8.1,
            "drawnRed": 57,
            "reportedRed": 65,
            "inferredRed": 66,
            "playerTrialScore": -9,
            "oppTrialScore": 9,
            "playerTotalScore": -274,
            "oppTotalScore": 261,
            "waitTime": 6962.188528797685,
            "responseTime": 1682188172209,
            "catchQuestion": "How many <b class=\"r\">red<\/b> marbles did your opponent report drawing? ",
            "catchKey": -1,
            "catchResponse": -1,
            "catchTime": 1682188126892,
            "trialTime": 0
        },
        {
            "exptPart": "trial",
            "trialNumber": 35,
            "roleCurrent": "receiver",
            "marblesSampled": 100,
            "probRed": 0.5,
            "practiceLambda": 5,
            "trialLambda": 8.1,
            "instructedLambda": "honest",
            "sd": 8.1,
            "drawnRed": 41,
            "reportedRed": 45,
            "inferredRed": 45,
            "playerTrialScore": -4,
            "oppTrialScore": 4,
            "playerTotalScore": -278,
            "oppTotalScore": 265,
            "waitTime": 5512.701782903362,
            "responseTime": 1682188180941,
            "catchQuestion": "How many <b class=\"r\">red<\/b> marbles did your opponent report drawing? ",
            "catchKey": -1,
            "catchResponse": -1,
            "catchTime": 1682188126892,
            "trialTime": 0
        },
        {
            "exptPart": "trial",
            "trialNumber": 36,
            "roleCurrent": "receiver",
            "marblesSampled": 100,
            "probRed": 0.5,
            "practiceLambda": 5,
            "trialLambda": 8.1,
            "instructedLambda": "honest",
            "sd": 8.1,
            "drawnRed": 45,
            "reportedRed": 64,
            "inferredRed": 64,
            "playerTrialScore": -19,
            "oppTrialScore": 19,
            "playerTotalScore": -297,
            "oppTotalScore": 284,
            "waitTime": 5962.686163226144,
            "responseTime": 1682188191920,
            "catchQuestion": "How many <b class=\"r\">red<\/b> marbles did your opponent report drawing? ",
            "catchKey": -1,
            "catchResponse": -1,
            "catchTime": 1682188126892,
            "trialTime": 0
        },
        {
            "exptPart": "trial",
            "trialNumber": 37,
            "roleCurrent": "receiver",
            "marblesSampled": 100,
            "probRed": 0.5,
            "practiceLambda": 5,
            "trialLambda": 8.1,
            "instructedLambda": "honest",
            "sd": 8.1,
            "drawnRed": 60,
            "reportedRed": 64,
            "inferredRed": 64,
            "playerTrialScore": -4,
            "oppTrialScore": 4,
            "playerTotalScore": -301,
            "oppTotalScore": 288,
            "waitTime": 5147.527257906263,
            "responseTime": 1682188200361,
            "catchQuestion": "How many <b class=\"r\">red<\/b> marbles did your opponent report drawing? ",
            "catchKey": -1,
            "catchResponse": -1,
            "catchTime": 1682188126892,
            "trialTime": 0
        },
        {
            "exptPart": "trial",
            "trialNumber": 38,
            "roleCurrent": "receiver",
            "marblesSampled": 100,
            "probRed": 0.5,
            "practiceLambda": 5,
            "trialLambda": 8.1,
            "instructedLambda": "honest",
            "sd": 8.1,
            "drawnRed": 33,
            "reportedRed": 39,
            "inferredRed": 38,
            "playerTrialScore": -5,
            "oppTrialScore": 5,
            "playerTotalScore": -306,
            "oppTotalScore": 293,
            "waitTime": 6056.808197626513,
            "responseTime": 1682188210258,
            "catchQuestion": "How many <b class=\"r\">red<\/b> marbles did your opponent report drawing? ",
            "catchKey": -1,
            "catchResponse": -1,
            "catchTime": 1682188126892,
            "trialTime": 0
        },
        {
            "exptPart": "trial",
            "trialNumber": 39,
            "roleCurrent": "receiver",
            "marblesSampled": 100,
            "probRed": 0.5,
            "practiceLambda": 5,
            "trialLambda": 8.1,
            "instructedLambda": "honest",
            "sd": 8.1,
            "drawnRed": 51,
            "reportedRed": 57,
            "inferredRed": 60,
            "playerTrialScore": -9,
            "oppTrialScore": 9,
            "playerTotalScore": -315,
            "oppTotalScore": 302,
            "waitTime": 5339.279611979121,
            "responseTime": 1682188219360,
            "catchQuestion": "How many <b class=\"r\">red<\/b> marbles did your opponent report drawing? ",
            "catchKey": -1,
            "catchResponse": -1,
            "catchTime": 1682188126892,
            "trialTime": 0
        },
        {
            "exptPart": "trial",
            "trialNumber": 40,
            "roleCurrent": "receiver",
            "marblesSampled": 100,
            "probRed": 0.5,
            "practiceLambda": 5,
            "trialLambda": 8.1,
            "instructedLambda": "honest",
            "sd": 8.1,
            "drawnRed": 55,
            "reportedRed": 53,
            "inferredRed": 53,
            "playerTrialScore": -2,
            "oppTrialScore": 0,
            "playerTotalScore": -317,
            "oppTotalScore": 302,
            "waitTime": 5542.0816127282615,
            "responseTime": 1682188227942,
            "catchQuestion": "How many <b class=\"r\">red<\/b> marbles did your opponent report drawing? ",
            "catchKey": -1,
            "catchResponse": -1,
            "catchTime": 1682188227942,
            "trialTime": 0
        },
        {
            "exptPart": "trial",
            "trialNumber": 41,
            "roleCurrent": "receiver",
            "marblesSampled": 100,
            "probRed": 0.5,
            "practiceLambda": 5,
            "trialLambda": 8.1,
            "instructedLambda": "honest",
            "sd": 8.1,
            "drawnRed": 66,
            "reportedRed": 77,
            "inferredRed": 79,
            "playerTrialScore": -13,
            "oppTrialScore": 13,
            "playerTotalScore": -330,
            "oppTotalScore": 315,
            "waitTime": 6555.273134195781,
            "responseTime": 1682188242137,
            "catchQuestion": "How many <b class=\"r\">red<\/b> marbles did your opponent report drawing? ",
            "catchKey": -1,
            "catchResponse": -1,
            "catchTime": 1682188227942,
            "trialTime": 0
        },
        {
            "exptPart": "trial",
            "trialNumber": 42,
            "roleCurrent": "receiver",
            "marblesSampled": 100,
            "probRed": 0.5,
            "practiceLambda": 5,
            "trialLambda": 8.1,
            "instructedLambda": "honest",
            "sd": 8.1,
            "drawnRed": 52,
            "reportedRed": 63,
            "inferredRed": 60,
            "playerTrialScore": -8,
            "oppTrialScore": 8,
            "playerTotalScore": -338,
            "oppTotalScore": 323,
            "waitTime": 6085.975259119295,
            "responseTime": 1682188251592,
            "catchQuestion": "How many <b class=\"r\">red<\/b> marbles did your opponent report drawing? ",
            "catchKey": -1,
            "catchResponse": -1,
            "catchTime": 1682188227942,
            "trialTime": 0
        },
        {
            "exptPart": "trial",
            "trialNumber": 43,
            "roleCurrent": "receiver",
            "marblesSampled": 100,
            "probRed": 0.5,
            "practiceLambda": 5,
            "trialLambda": 8.1,
            "instructedLambda": "honest",
            "sd": 8.1,
            "drawnRed": 60,
            "reportedRed": 60,
            "inferredRed": 50,
            "playerTrialScore": -10,
            "oppTrialScore": 0,
            "playerTotalScore": -348,
            "oppTotalScore": 323,
            "waitTime": 6852.25714946082,
            "responseTime": 1682188265500,
            "catchQuestion": "How many <b class=\"r\">red<\/b> marbles did your opponent report drawing? ",
            "catchKey": -1,
            "catchResponse": -1,
            "catchTime": 1682188227942,
            "trialTime": 0
        },
        {
            "exptPart": "trial",
            "trialNumber": 44,
            "roleCurrent": "receiver",
            "marblesSampled": 100,
            "probRed": 0.5,
            "practiceLambda": 5,
            "trialLambda": 8.1,
            "instructedLambda": "honest",
            "sd": 8.1,
            "drawnRed": 63,
            "reportedRed": 67,
            "inferredRed": 67,
            "playerTrialScore": -4,
            "oppTrialScore": 4,
            "playerTotalScore": -352,
            "oppTotalScore": 327,
            "waitTime": 6306.529708248294,
            "responseTime": 1682188274540,
            "catchQuestion": "How many <b class=\"r\">red<\/b> marbles did your opponent report drawing? ",
            "catchKey": -1,
            "catchResponse": -1,
            "catchTime": 1682188227942,
            "trialTime": 0
        },
        {
            "exptPart": "trial",
            "trialNumber": 45,
            "roleCurrent": "receiver",
            "marblesSampled": 100,
            "probRed": 0.5,
            "practiceLambda": 5,
            "trialLambda": 8.1,
            "instructedLambda": "honest",
            "sd": 8.1,
            "drawnRed": 96,
            "reportedRed": 100,
            "inferredRed": 100,
            "playerTrialScore": -4,
            "oppTrialScore": 4,
            "playerTotalScore": -356,
            "oppTotalScore": 331,
            "waitTime": 5808.365190469856,
            "responseTime": 1682188286238,
            "catchQuestion": "How many <b class=\"r\">red<\/b> marbles did your opponent report drawing? ",
            "catchKey": -1,
            "catchResponse": -1,
            "catchTime": 1682188227942,
            "trialTime": 0
        },
        {
            "exptPart": "trial",
            "trialNumber": 46,
            "roleCurrent": "receiver",
            "marblesSampled": 100,
            "probRed": 0.5,
            "practiceLambda": 5,
            "trialLambda": 8.1,
            "instructedLambda": "honest",
            "sd": 8.1,
            "drawnRed": 16,
            "reportedRed": 17,
            "inferredRed": 20,
            "playerTrialScore": -4,
            "oppTrialScore": 4,
            "playerTotalScore": -360,
            "oppTotalScore": 335,
            "waitTime": 6733.64508740782,
            "responseTime": 1682188300390,
            "catchQuestion": "How many <b class=\"r\">red<\/b> marbles did your opponent report drawing? ",
            "catchKey": -1,
            "catchResponse": -1,
            "catchTime": 1682188227942,
            "trialTime": 0
        },
        {
            "exptPart": "trial",
            "trialNumber": 47,
            "roleCurrent": "receiver",
            "marblesSampled": 100,
            "probRed": 0.5,
            "practiceLambda": 5,
            "trialLambda": 8.1,
            "instructedLambda": "honest",
            "sd": 8.1,
            "drawnRed": 29,
            "reportedRed": 41,
            "inferredRed": 40,
            "playerTrialScore": -11,
            "oppTrialScore": 11,
            "playerTotalScore": -371,
            "oppTotalScore": 346,
            "waitTime": 5225.599655674878,
            "responseTime": 1682188309124,
            "catchQuestion": "How many <b class=\"r\">red<\/b> marbles did your opponent report drawing? ",
            "catchKey": -1,
            "catchResponse": -1,
            "catchTime": 1682188227942,
            "trialTime": 0
        },
        {
            "exptPart": "trial",
            "trialNumber": 48,
            "roleCurrent": "receiver",
            "marblesSampled": 100,
            "probRed": 0.5,
            "practiceLambda": 5,
            "trialLambda": 8.1,
            "instructedLambda": "honest",
            "sd": 8.1,
            "drawnRed": 46,
            "reportedRed": 82,
            "inferredRed": 80,
            "playerTrialScore": -34,
            "oppTrialScore": 34,
            "playerTotalScore": -405,
            "oppTotalScore": 380,
            "waitTime": 5471.96688683472,
            "responseTime": 1682188318642,
            "catchQuestion": "How many <b class=\"r\">red<\/b> marbles did your opponent report drawing? ",
            "catchKey": 82,
            "catchResponse": 84,
            "catchTime": 1682188318642,
            "trialTime": 0
        },
        {
            "exptPart": "trial",
            "trialNumber": 49,
            "roleCurrent": "receiver",
            "marblesSampled": 100,
            "probRed": 0.5,
            "practiceLambda": 5,
            "trialLambda": 8.1,
            "instructedLambda": "honest",
            "sd": 8.1,
            "drawnRed": 43,
            "reportedRed": 58,
            "inferredRed": 60,
            "playerTrialScore": -17,
            "oppTrialScore": 17,
            "playerTotalScore": -422,
            "oppTotalScore": 397,
            "waitTime": 6404.2401859281,
            "responseTime": 1682188338765,
            "catchQuestion": "How many <b class=\"r\">red<\/b> marbles did your opponent report drawing? ",
            "catchKey": -1,
            "catchResponse": -1,
            "catchTime": 1682188318642,
            "trialTime": 0
        },
        {
            "exptPart": "trial",
            "trialNumber": 50,
            "roleCurrent": "receiver",
            "marblesSampled": 100,
            "probRed": 0.5,
            "practiceLambda": 5,
            "trialLambda": 8.1,
            "instructedLambda": "honest",
            "sd": 8.1,
            "drawnRed": 39,
            "reportedRed": 55,
            "inferredRed": 55,
            "playerTrialScore": -16,
            "oppTrialScore": 16,
            "playerTotalScore": -438,
            "oppTotalScore": 413,
            "waitTime": 5969.9817557083525,
            "responseTime": 1682188347717,
            "catchQuestion": "How many <b class=\"r\">red<\/b> marbles did your opponent report drawing? ",
            "catchKey": -1,
            "catchResponse": -1,
            "catchTime": 1682188347718,
            "trialTime": 0
        },
        {
            "exptPart": "trial",
            "trialNumber": 51,
            "roleCurrent": "receiver",
            "marblesSampled": 100,
            "probRed": 0.5,
            "practiceLambda": 5,
            "trialLambda": 8.1,
            "instructedLambda": "honest",
            "sd": 8.1,
            "drawnRed": 23,
            "reportedRed": 36,
            "inferredRed": 35,
            "playerTrialScore": -12,
            "oppTrialScore": 12,
            "playerTotalScore": -450,
            "oppTotalScore": 425,
            "waitTime": 6245.91536543634,
            "responseTime": 1682188359096,
            "catchQuestion": "How many <b class=\"r\">red<\/b> marbles did your opponent report drawing? ",
            "catchKey": 36,
            "catchResponse": 35,
            "catchTime": 1682188359097,
            "trialTime": 0
        },
        {
            "exptPart": "trial",
            "trialNumber": 52,
            "roleCurrent": "receiver",
            "marblesSampled": 100,
            "probRed": 0.5,
            "practiceLambda": 5,
            "trialLambda": 8.1,
            "instructedLambda": "honest",
            "sd": 8.1,
            "drawnRed": 45,
            "reportedRed": 53,
            "inferredRed": 50,
            "playerTrialScore": -5,
            "oppTrialScore": 5,
            "playerTotalScore": -455,
            "oppTotalScore": 430,
            "waitTime": 6989.319017802709,
            "responseTime": 1682188378596,
            "catchQuestion": "How many <b class=\"r\">red<\/b> marbles did your opponent report drawing? ",
            "catchKey": -1,
            "catchResponse": -1,
            "catchTime": 1682188359097,
            "trialTime": 0
        },
        {
            "exptPart": "trial",
            "trialNumber": 53,
            "roleCurrent": "receiver",
            "marblesSampled": 100,
            "probRed": 0.5,
            "practiceLambda": 5,
            "trialLambda": 8.1,
            "instructedLambda": "honest",
            "sd": 8.1,
            "drawnRed": 62,
            "reportedRed": 65,
            "inferredRed": 65,
            "playerTrialScore": -3,
            "oppTrialScore": 3,
            "playerTotalScore": -458,
            "oppTotalScore": 433,
            "waitTime": 5133.07077623662,
            "responseTime": 1682188387008,
            "catchQuestion": "How many <b class=\"r\">red<\/b> marbles did your opponent report drawing? ",
            "catchKey": -1,
            "catchResponse": -1,
            "catchTime": 1682188359097,
            "trialTime": 0
        },
        {
            "exptPart": "trial",
            "trialNumber": 54,
            "roleCurrent": "receiver",
            "marblesSampled": 100,
            "probRed": 0.5,
            "practiceLambda": 5,
            "trialLambda": 8.1,
            "instructedLambda": "honest",
            "sd": 8.1,
            "drawnRed": 61,
            "reportedRed": 55,
            "inferredRed": 55,
            "playerTrialScore": -6,
            "oppTrialScore": 0,
            "playerTotalScore": -464,
            "oppTotalScore": 433,
            "waitTime": 5267.139593585249,
            "responseTime": 1682188395432,
            "catchQuestion": "How many <b class=\"r\">red<\/b> marbles did your opponent report drawing? ",
            "catchKey": -1,
            "catchResponse": -1,
            "catchTime": 1682188359097,
            "trialTime": 0
        },
        {
            "exptPart": "trial",
            "trialNumber": 55,
            "roleCurrent": "receiver",
            "marblesSampled": 100,
            "probRed": 0.5,
            "practiceLambda": 5,
            "trialLambda": 8.1,
            "instructedLambda": "honest",
            "sd": 8.1,
            "drawnRed": 54,
            "reportedRed": 67,
            "inferredRed": 67,
            "playerTrialScore": -13,
            "oppTrialScore": 13,
            "playerTotalScore": -477,
            "oppTotalScore": 446,
            "waitTime": 6373.535302941716,
            "responseTime": 1682188405063,
            "catchQuestion": "How many <b class=\"r\">red<\/b> marbles did your opponent report drawing? ",
            "catchKey": -1,
            "catchResponse": -1,
            "catchTime": 1682188359097,
            "trialTime": 0
        },
        {
            "exptPart": "trial",
            "trialNumber": 56,
            "roleCurrent": "receiver",
            "marblesSampled": 100,
            "probRed": 0.5,
            "practiceLambda": 5,
            "trialLambda": 8.1,
            "instructedLambda": "honest",
            "sd": 8.1,
            "drawnRed": 50,
            "reportedRed": 52,
            "inferredRed": 52,
            "playerTrialScore": -2,
            "oppTrialScore": 2,
            "playerTotalScore": -479,
            "oppTotalScore": 448,
            "waitTime": 6791.071742256302,
            "responseTime": 1682188415806,
            "catchQuestion": "How many <b class=\"r\">red<\/b> marbles did your opponent report drawing? ",
            "catchKey": -1,
            "catchResponse": -1,
            "catchTime": 1682188359097,
            "trialTime": 0
        },
        {
            "exptPart": "trial",
            "trialNumber": 57,
            "roleCurrent": "receiver",
            "marblesSampled": 100,
            "probRed": 0.5,
            "practiceLambda": 5,
            "trialLambda": 8.1,
            "instructedLambda": "honest",
            "sd": 8.1,
            "drawnRed": 76,
            "reportedRed": 76,
            "inferredRed": 75,
            "playerTrialScore": -1,
            "oppTrialScore": 0,
            "playerTotalScore": -480,
            "oppTotalScore": 448,
            "waitTime": 5342.854306101564,
            "responseTime": 1682188425067,
            "catchQuestion": "How many <b class=\"r\">red<\/b> marbles did your opponent report drawing? ",
            "catchKey": -1,
            "catchResponse": -1,
            "catchTime": 1682188359097,
            "trialTime": 0
        },
        {
            "exptPart": "trial",
            "trialNumber": 58,
            "roleCurrent": "receiver",
            "marblesSampled": 100,
            "probRed": 0.5,
            "practiceLambda": 5,
            "trialLambda": 8.1,
            "instructedLambda": "honest",
            "sd": 8.1,
            "drawnRed": 75,
            "reportedRed": 93,
            "inferredRed": 90,
            "playerTrialScore": -15,
            "oppTrialScore": 15,
            "playerTotalScore": -495,
            "oppTotalScore": 463,
            "waitTime": 6790.267316871081,
            "responseTime": 1682188435105,
            "catchQuestion": "How many <b class=\"r\">red<\/b> marbles did your opponent report drawing? ",
            "catchKey": -1,
            "catchResponse": -1,
            "catchTime": 1682188359097,
            "trialTime": 0
        },
        {
            "exptPart": "trial",
            "trialNumber": 59,
            "roleCurrent": "receiver",
            "marblesSampled": 100,
            "probRed": 0.5,
            "practiceLambda": 5,
            "trialLambda": 8.1,
            "instructedLambda": "honest",
            "sd": 8.1,
            "drawnRed": 77,
            "reportedRed": 96,
            "inferredRed": 95,
            "playerTrialScore": -18,
            "oppTrialScore": 18,
            "playerTotalScore": -513,
            "oppTotalScore": 481,
            "waitTime": 5517.767554818574,
            "responseTime": 1682188444389,
            "catchQuestion": "How many <b class=\"r\">red<\/b> marbles did your opponent report drawing? ",
            "catchKey": -1,
            "catchResponse": -1,
            "catchTime": 1682188359097,
            "trialTime": 0
        },
        {
            "exptPart": "trial",
            "trialNumber": 60,
            "roleCurrent": "receiver",
            "marblesSampled": 100,
            "probRed": 0.5,
            "practiceLambda": 5,
            "trialLambda": 8.1,
            "instructedLambda": "honest",
            "sd": 8.1,
            "drawnRed": 71,
            "reportedRed": 75,
            "inferredRed": 74,
            "playerTrialScore": -3,
            "oppTrialScore": 3,
            "playerTotalScore": -516,
            "oppTotalScore": 484,
            "waitTime": 5331.296624290966,
            "responseTime": 1682188453439,
            "catchQuestion": "How many <b class=\"r\">red<\/b> marbles did your opponent report drawing? ",
            "catchKey": -1,
            "catchResponse": -1,
            "catchTime": 1682188453439,
            "trialTime": 0
        },
        {
            "exptPart": "trial",
            "trialNumber": 61,
            "roleCurrent": "receiver",
            "marblesSampled": 100,
            "probRed": 0.5,
            "practiceLambda": 5,
            "trialLambda": 8.1,
            "instructedLambda": "honest",
            "sd": 8.1,
            "drawnRed": 44,
            "reportedRed": 70,
            "inferredRed": 70,
            "playerTrialScore": -26,
            "oppTrialScore": 26,
            "playerTotalScore": -542,
            "oppTotalScore": 510,
            "waitTime": 6239.637692265758,
            "responseTime": 1682188466396,
            "catchQuestion": "How many <b class=\"r\">red<\/b> marbles did your opponent report drawing? ",
            "catchKey": -1,
            "catchResponse": -1,
            "catchTime": 1682188453439,
            "trialTime": 0
        },
        {
            "exptPart": "trial",
            "trialNumber": 62,
            "roleCurrent": "receiver",
            "marblesSampled": 100,
            "probRed": 0.5,
            "practiceLambda": 5,
            "trialLambda": 8.1,
            "instructedLambda": "honest",
            "sd": 8.1,
            "drawnRed": 34,
            "reportedRed": 44,
            "inferredRed": 43,
            "playerTrialScore": -9,
            "oppTrialScore": 9,
            "playerTotalScore": -551,
            "oppTotalScore": 519,
            "waitTime": 7073.45893282113,
            "responseTime": 1682188477650,
            "catchQuestion": "How many <b class=\"r\">red<\/b> marbles did your opponent report drawing? ",
            "catchKey": -1,
            "catchResponse": -1,
            "catchTime": 1682188453439,
            "trialTime": 0
        },
        {
            "exptPart": "trial",
            "trialNumber": 63,
            "roleCurrent": "receiver",
            "marblesSampled": 100,
            "probRed": 0.5,
            "practiceLambda": 5,
            "trialLambda": 8.1,
            "instructedLambda": "honest",
            "sd": 8.1,
            "drawnRed": 74,
            "reportedRed": 89,
            "inferredRed": 90,
            "playerTrialScore": -16,
            "oppTrialScore": 16,
            "playerTotalScore": -567,
            "oppTotalScore": 535,
            "waitTime": 5669.817253309424,
            "responseTime": 1682188487224,
            "catchQuestion": "How many <b class=\"r\">red<\/b> marbles did your opponent report drawing? ",
            "catchKey": -1,
            "catchResponse": -1,
            "catchTime": 1682188453439,
            "trialTime": 0
        },
        {
            "exptPart": "trial",
            "trialNumber": 64,
            "roleCurrent": "receiver",
            "marblesSampled": 100,
            "probRed": 0.5,
            "practiceLambda": 5,
            "trialLambda": 8.1,
            "instructedLambda": "honest",
            "sd": 8.1,
            "drawnRed": 75,
            "reportedRed": 97,
            "inferredRed": 96,
            "playerTrialScore": -21,
            "oppTrialScore": 21,
            "playerTotalScore": -588,
            "oppTotalScore": 556,
            "waitTime": 7297.092192440248,
            "responseTime": 1682188498361,
            "catchQuestion": "How many <b class=\"r\">red<\/b> marbles did your opponent report drawing? ",
            "catchKey": 97,
            "catchResponse": 96,
            "catchTime": 1682188498361,
            "trialTime": 0
        },
        {
            "exptPart": "trial",
            "trialNumber": 65,
            "roleCurrent": "receiver",
            "marblesSampled": 100,
            "probRed": 0.5,
            "practiceLambda": 5,
            "trialLambda": 8.1,
            "instructedLambda": "honest",
            "sd": 8.1,
            "drawnRed": 60,
            "reportedRed": 60,
            "inferredRed": 60,
            "playerTrialScore": 0,
            "oppTrialScore": 0,
            "playerTotalScore": -588,
            "oppTotalScore": 556,
            "waitTime": 6185.648181910802,
            "responseTime": 1682188517343,
            "catchQuestion": "How many <b class=\"r\">red<\/b> marbles did your opponent report drawing? ",
            "catchKey": 60,
            "catchResponse": 60,
            "catchTime": 1682188517343,
            "trialTime": 0
        },
        {
            "exptPart": "trial",
            "trialNumber": 66,
            "roleCurrent": "receiver",
            "marblesSampled": 100,
            "probRed": 0.5,
            "practiceLambda": 5,
            "trialLambda": 8.1,
            "instructedLambda": "honest",
            "sd": 8.1,
            "drawnRed": 33,
            "reportedRed": 47,
            "inferredRed": 47,
            "playerTrialScore": -14,
            "oppTrialScore": 14,
            "playerTotalScore": -602,
            "oppTotalScore": 570,
            "waitTime": 5350.617276898754,
            "responseTime": 1682188534707,
            "catchQuestion": "How many <b class=\"r\">red<\/b> marbles did your opponent report drawing? ",
            "catchKey": -1,
            "catchResponse": -1,
            "catchTime": 1682188517343,
            "trialTime": 0
        },
        {
            "exptPart": "trial",
            "trialNumber": 67,
            "roleCurrent": "receiver",
            "marblesSampled": 100,
            "probRed": 0.5,
            "practiceLambda": 5,
            "trialLambda": 8.1,
            "instructedLambda": "honest",
            "sd": 8.1,
            "drawnRed": 41,
            "reportedRed": 44,
            "inferredRed": 43,
            "playerTrialScore": -2,
            "oppTrialScore": 2,
            "playerTotalScore": -604,
            "oppTotalScore": 572,
            "waitTime": 7040.433881345032,
            "responseTime": 1682188545081,
            "catchQuestion": "How many <b class=\"r\">red<\/b> marbles did your opponent report drawing? ",
            "catchKey": -1,
            "catchResponse": -1,
            "catchTime": 1682188517343,
            "trialTime": 0
        },
        {
            "exptPart": "trial",
            "trialNumber": 68,
            "roleCurrent": "receiver",
            "marblesSampled": 100,
            "probRed": 0.5,
            "practiceLambda": 5,
            "trialLambda": 8.1,
            "instructedLambda": "honest",
            "sd": 8.1,
            "drawnRed": 42,
            "reportedRed": 47,
            "inferredRed": 46,
            "playerTrialScore": -4,
            "oppTrialScore": 4,
            "playerTotalScore": -608,
            "oppTotalScore": 576,
            "waitTime": 6835.933289271176,
            "responseTime": 1682188556103,
            "catchQuestion": "How many <b class=\"r\">red<\/b> marbles did your opponent report drawing? ",
            "catchKey": -1,
            "catchResponse": -1,
            "catchTime": 1682188517343,
            "trialTime": 0
        },
        {
            "exptPart": "trial",
            "trialNumber": 69,
            "roleCurrent": "receiver",
            "marblesSampled": 100,
            "probRed": 0.5,
            "practiceLambda": 5,
            "trialLambda": 8.1,
            "instructedLambda": "honest",
            "sd": 8.1,
            "drawnRed": 78,
            "reportedRed": 76,
            "inferredRed": 75,
            "playerTrialScore": -3,
            "oppTrialScore": 0,
            "playerTotalScore": -611,
            "oppTotalScore": 576,
            "waitTime": 5535.722935057283,
            "responseTime": 1682188564763,
            "catchQuestion": "How many <b class=\"r\">red<\/b> marbles did your opponent report drawing? ",
            "catchKey": -1,
            "catchResponse": -1,
            "catchTime": 1682188517343,
            "trialTime": 0
        },
        {
            "exptPart": "trial",
            "trialNumber": 70,
            "roleCurrent": "receiver",
            "marblesSampled": 100,
            "probRed": 0.5,
            "practiceLambda": 5,
            "trialLambda": 8.1,
            "instructedLambda": "honest",
            "sd": 8.1,
            "drawnRed": 36,
            "reportedRed": 48,
            "inferredRed": 47,
            "playerTrialScore": -11,
            "oppTrialScore": 11,
            "playerTotalScore": -622,
            "oppTotalScore": 587,
            "waitTime": 7130.341435856753,
            "responseTime": 1682188574820,
            "catchQuestion": "How many <b class=\"r\">red<\/b> marbles did your opponent report drawing? ",
            "catchKey": -1,
            "catchResponse": -1,
            "catchTime": 1682188574821,
            "trialTime": 0
        },
        {
            "exptPart": "trial",
            "trialNumber": 71,
            "roleCurrent": "receiver",
            "marblesSampled": 100,
            "probRed": 0.5,
            "practiceLambda": 5,
            "trialLambda": 8.1,
            "instructedLambda": "honest",
            "sd": 8.1,
            "drawnRed": 49,
            "reportedRed": 57,
            "inferredRed": 55,
            "playerTrialScore": -6,
            "oppTrialScore": 6,
            "playerTotalScore": -628,
            "oppTotalScore": 593,
            "waitTime": 6583.2427337207,
            "responseTime": 1682188586620,
            "catchQuestion": "How many <b class=\"r\">red<\/b> marbles did your opponent report drawing? ",
            "catchKey": -1,
            "catchResponse": -1,
            "catchTime": 1682188574821,
            "trialTime": 0
        },
        {
            "exptPart": "trial",
            "trialNumber": 72,
            "roleCurrent": "receiver",
            "marblesSampled": 100,
            "probRed": 0.5,
            "practiceLambda": 5,
            "trialLambda": 8.1,
            "instructedLambda": "honest",
            "sd": 8.1,
            "drawnRed": 42,
            "reportedRed": 58,
            "inferredRed": 30,
            "playerTrialScore": -12,
            "oppTrialScore": 0,
            "playerTotalScore": -640,
            "oppTotalScore": 593,
            "waitTime": 5758.1714167999235,
            "responseTime": 1682188595855,
            "catchQuestion": "How many <b class=\"r\">red<\/b> marbles did your opponent report drawing? ",
            "catchKey": -1,
            "catchResponse": -1,
            "catchTime": 1682188574821,
            "trialTime": 0
        },
        {
            "exptPart": "trial",
            "trialNumber": 73,
            "roleCurrent": "receiver",
            "marblesSampled": 100,
            "probRed": 0.5,
            "practiceLambda": 5,
            "trialLambda": 8.1,
            "instructedLambda": "honest",
            "sd": 8.1,
            "drawnRed": 29,
            "reportedRed": 35,
            "inferredRed": 20,
            "playerTrialScore": -9,
            "oppTrialScore": 0,
            "playerTotalScore": -649,
            "oppTotalScore": 593,
            "waitTime": 5582.438786622632,
            "responseTime": 1682188605035,
            "catchQuestion": "How many <b class=\"r\">red<\/b> marbles did your opponent report drawing? ",
            "catchKey": -1,
            "catchResponse": -1,
            "catchTime": 1682188574821,
            "trialTime": 0
        },
        {
            "exptPart": "trial",
            "trialNumber": 74,
            "roleCurrent": "receiver",
            "marblesSampled": 100,
            "probRed": 0.5,
            "practiceLambda": 5,
            "trialLambda": 8.1,
            "instructedLambda": "honest",
            "sd": 8.1,
            "drawnRed": 62,
            "reportedRed": 63,
            "inferredRed": 60,
            "playerTrialScore": -2,
            "oppTrialScore": 0,
            "playerTotalScore": -651,
            "oppTotalScore": 593,
            "waitTime": 5269.189353482671,
            "responseTime": 1682188613619,
            "catchQuestion": "How many <b class=\"r\">red<\/b> marbles did your opponent report drawing? ",
            "catchKey": 63,
            "catchResponse": 63,
            "catchTime": 1682188613619,
            "trialTime": 0
        },
        {
            "exptPart": "trial",
            "trialNumber": 75,
            "roleCurrent": "receiver",
            "marblesSampled": 100,
            "probRed": 0.5,
            "practiceLambda": 5,
            "trialLambda": 8.1,
            "instructedLambda": "honest",
            "sd": 8.1,
            "drawnRed": 45,
            "reportedRed": 45,
            "inferredRed": 44,
            "playerTrialScore": -1,
            "oppTrialScore": 0,
            "playerTotalScore": -652,
            "oppTotalScore": 593,
            "waitTime": 5572.039698229079,
            "responseTime": 1682188632037,
            "catchQuestion": "How many <b class=\"r\">red<\/b> marbles did your opponent report drawing? ",
            "catchKey": -1,
            "catchResponse": -1,
            "catchTime": 1682188613619,
            "trialTime": 0
        },
        {
            "exptPart": "trial",
            "trialNumber": 76,
            "roleCurrent": "receiver",
            "marblesSampled": 100,
            "probRed": 0.5,
            "practiceLambda": 5,
            "trialLambda": 8.1,
            "instructedLambda": "honest",
            "sd": 8.1,
            "drawnRed": 35,
            "reportedRed": 25,
            "inferredRed": 10,
            "playerTrialScore": -25,
            "oppTrialScore": 0,
            "playerTotalScore": -677,
            "oppTotalScore": 593,
            "waitTime": 7338.692211877147,
            "responseTime": 1682188643520,
            "catchQuestion": "How many <b class=\"r\">red<\/b> marbles did your opponent report drawing? ",
            "catchKey": -1,
            "catchResponse": -1,
            "catchTime": 1682188613619,
            "trialTime": 0
        },
        {
            "exptPart": "trial",
            "trialNumber": 77,
            "roleCurrent": "receiver",
            "marblesSampled": 100,
            "probRed": 0.5,
            "practiceLambda": 5,
            "trialLambda": 8.1,
            "instructedLambda": "honest",
            "sd": 8.1,
            "drawnRed": 47,
            "reportedRed": 56,
            "inferredRed": 55,
            "playerTrialScore": -8,
            "oppTrialScore": 8,
            "playerTotalScore": -685,
            "oppTotalScore": 601,
            "waitTime": 6995.960177362961,
            "responseTime": 1682188653775,
            "catchQuestion": "How many <b class=\"r\">red<\/b> marbles did your opponent report drawing? ",
            "catchKey": 56,
            "catchResponse": 56,
            "catchTime": 1682188653775,
            "trialTime": 0
        },
        {
            "exptPart": "trial",
            "trialNumber": 78,
            "roleCurrent": "receiver",
            "marblesSampled": 100,
            "probRed": 0.5,
            "practiceLambda": 5,
            "trialLambda": 8.1,
            "instructedLambda": "honest",
            "sd": 8.1,
            "drawnRed": 56,
            "reportedRed": 56,
            "inferredRed": 56,
            "playerTrialScore": 0,
            "oppTrialScore": 0,
            "playerTotalScore": -685,
            "oppTotalScore": 601,
            "waitTime": 6567.337201669422,
            "responseTime": 1682188671060,
            "catchQuestion": "How many <b class=\"r\">red<\/b> marbles did your opponent report drawing? ",
            "catchKey": -1,
            "catchResponse": -1,
            "catchTime": 1682188653775,
            "trialTime": 0
        },
        {
            "exptPart": "trial",
            "trialNumber": 79,
            "roleCurrent": "receiver",
            "marblesSampled": 100,
            "probRed": 0.5,
            "practiceLambda": 5,
            "trialLambda": 8.1,
            "instructedLambda": "honest",
            "sd": 8.1,
            "drawnRed": 57,
            "reportedRed": 65,
            "inferredRed": 65,
            "playerTrialScore": -8,
            "oppTrialScore": 8,
            "playerTotalScore": -693,
            "oppTotalScore": 609,
            "waitTime": 6943.003138227571,
            "responseTime": 1682188681325,
            "catchQuestion": "How many <b class=\"r\">red<\/b> marbles did your opponent report drawing? ",
            "catchKey": -1,
            "catchResponse": -1,
            "catchTime": 1682188653775,
            "trialTime": 0
        },
        {
            "exptPart": "trial",
            "trialNumber": 80,
            "roleCurrent": "receiver",
            "marblesSampled": 100,
            "probRed": 0.5,
            "practiceLambda": 5,
            "trialLambda": 8.1,
            "instructedLambda": "honest",
            "sd": 8.1,
            "drawnRed": 47,
            "reportedRed": 54,
            "inferredRed": 55,
            "playerTrialScore": -8,
            "oppTrialScore": 8,
            "playerTotalScore": -701,
            "oppTotalScore": 617,
            "waitTime": 6494.746244763044,
            "responseTime": 1682188691104,
            "catchQuestion": "How many <b class=\"r\">red<\/b> marbles did your opponent report drawing? ",
            "catchKey": -1,
            "catchResponse": -1,
            "catchTime": 1682188691104,
            "trialTime": 0
        },
        {
            "exptPart": "trial",
            "trialNumber": 81,
            "roleCurrent": "receiver",
            "marblesSampled": 100,
            "probRed": 0.5,
            "practiceLambda": 5,
            "trialLambda": 8.1,
            "instructedLambda": "honest",
            "sd": 8.1,
            "drawnRed": 31,
            "reportedRed": 61,
            "inferredRed": 60,
            "playerTrialScore": -29,
            "oppTrialScore": 29,
            "playerTotalScore": -730,
            "oppTotalScore": 646,
            "waitTime": 6023.431587074849,
            "responseTime": 1682188702949,
            "catchQuestion": "How many <b class=\"r\">red<\/b> marbles did your opponent report drawing? ",
            "catchKey": -1,
            "catchResponse": -1,
            "catchTime": 1682188691104,
            "trialTime": 0
        },
        {
            "exptPart": "trial",
            "trialNumber": 82,
            "roleCurrent": "receiver",
            "marblesSampled": 100,
            "probRed": 0.5,
            "practiceLambda": 5,
            "trialLambda": 8.1,
            "instructedLambda": "honest",
            "sd": 8.1,
            "drawnRed": 92,
            "reportedRed": 78,
            "inferredRed": 77,
            "playerTrialScore": -15,
            "oppTrialScore": 0,
            "playerTotalScore": -745,
            "oppTotalScore": 646,
            "waitTime": 5135.998835404466,
            "responseTime": 1682188711123,
            "catchQuestion": "How many <b class=\"r\">red<\/b> marbles did your opponent report drawing? ",
            "catchKey": -1,
            "catchResponse": -1,
            "catchTime": 1682188691104,
            "trialTime": 0
        },
        {
            "exptPart": "trial",
            "trialNumber": 83,
            "roleCurrent": "receiver",
            "marblesSampled": 100,
            "probRed": 0.5,
            "practiceLambda": 5,
            "trialLambda": 8.1,
            "instructedLambda": "honest",
            "sd": 8.1,
            "drawnRed": 63,
            "reportedRed": 73,
            "inferredRed": 73,
            "playerTrialScore": -10,
            "oppTrialScore": 10,
            "playerTotalScore": -755,
            "oppTotalScore": 656,
            "waitTime": 7155.551185344909,
            "responseTime": 1682188722423,
            "catchQuestion": "How many <b class=\"r\">red<\/b> marbles did your opponent report drawing? ",
            "catchKey": -1,
            "catchResponse": -1,
            "catchTime": 1682188691104,
            "trialTime": 0
        },
        {
            "exptPart": "trial",
            "trialNumber": 84,
            "roleCurrent": "receiver",
            "marblesSampled": 100,
            "probRed": 0.5,
            "practiceLambda": 5,
            "trialLambda": 8.1,
            "instructedLambda": "honest",
            "sd": 8.1,
            "drawnRed": 67,
            "reportedRed": 77,
            "inferredRed": 77,
            "playerTrialScore": -10,
            "oppTrialScore": 10,
            "playerTotalScore": -765,
            "oppTotalScore": 666,
            "waitTime": 5237.496143523932,
            "responseTime": 1682188730663,
            "catchQuestion": "How many <b class=\"r\">red<\/b> marbles did your opponent report drawing? ",
            "catchKey": -1,
            "catchResponse": -1,
            "catchTime": 1682188691104,
            "trialTime": 0
        },
        {
            "exptPart": "trial",
            "trialNumber": 85,
            "roleCurrent": "receiver",
            "marblesSampled": 100,
            "probRed": 0.5,
            "practiceLambda": 5,
            "trialLambda": 8.1,
            "instructedLambda": "honest",
            "sd": 8.1,
            "drawnRed": 78,
            "reportedRed": 99,
            "inferredRed": 100,
            "playerTrialScore": -22,
            "oppTrialScore": 22,
            "playerTotalScore": -787,
            "oppTotalScore": 688,
            "waitTime": 5529.482223379884,
            "responseTime": 1682188739940,
            "catchQuestion": "How many <b class=\"r\">red<\/b> marbles did your opponent report drawing? ",
            "catchKey": -1,
            "catchResponse": -1,
            "catchTime": 1682188691104,
            "trialTime": 0
        },
        {
            "exptPart": "trial",
            "trialNumber": 86,
            "roleCurrent": "receiver",
            "marblesSampled": 100,
            "probRed": 0.5,
            "practiceLambda": 5,
            "trialLambda": 8.1,
            "instructedLambda": "honest",
            "sd": 8.1,
            "drawnRed": 51,
            "reportedRed": 54,
            "inferredRed": 55,
            "playerTrialScore": -4,
            "oppTrialScore": 4,
            "playerTotalScore": -791,
            "oppTotalScore": 692,
            "waitTime": 5415.981553994451,
            "responseTime": 1682188748114,
            "catchQuestion": "How many <b class=\"r\">red<\/b> marbles did your opponent report drawing? ",
            "catchKey": -1,
            "catchResponse": -1,
            "catchTime": 1682188691104,
            "trialTime": 0
        },
        {
            "exptPart": "trial",
            "trialNumber": 87,
            "roleCurrent": "receiver",
            "marblesSampled": 100,
            "probRed": 0.5,
            "practiceLambda": 5,
            "trialLambda": 8.1,
            "instructedLambda": "honest",
            "sd": 8.1,
            "drawnRed": 38,
            "reportedRed": 42,
            "inferredRed": 42,
            "playerTrialScore": -4,
            "oppTrialScore": 4,
            "playerTotalScore": -795,
            "oppTotalScore": 696,
            "waitTime": 6046.770456700029,
            "responseTime": 1682188757597,
            "catchQuestion": "How many <b class=\"r\">red<\/b> marbles did your opponent report drawing? ",
            "catchKey": -1,
            "catchResponse": -1,
            "catchTime": 1682188691104,
            "trialTime": 0
        },
        {
            "exptPart": "trial",
            "trialNumber": 88,
            "roleCurrent": "receiver",
            "marblesSampled": 100,
            "probRed": 0.5,
            "practiceLambda": 5,
            "trialLambda": 8.1,
            "instructedLambda": "honest",
            "sd": 8.1,
            "drawnRed": 68,
            "reportedRed": 75,
            "inferredRed": 73,
            "playerTrialScore": -5,
            "oppTrialScore": 5,
            "playerTotalScore": -800,
            "oppTotalScore": 701,
            "waitTime": 6499.349873760535,
            "responseTime": 1682188771163,
            "catchQuestion": "How many <b class=\"r\">red<\/b> marbles did your opponent report drawing? ",
            "catchKey": -1,
            "catchResponse": -1,
            "catchTime": 1682188691104,
            "trialTime": 0
        },
        {
            "exptPart": "trial",
            "trialNumber": 89,
            "roleCurrent": "receiver",
            "marblesSampled": 100,
            "probRed": 0.5,
            "practiceLambda": 5,
            "trialLambda": 8.1,
            "instructedLambda": "honest",
            "sd": 8.1,
            "drawnRed": 61,
            "reportedRed": 79,
            "inferredRed": 80,
            "playerTrialScore": -19,
            "oppTrialScore": 19,
            "playerTotalScore": -819,
            "oppTotalScore": 720,
            "waitTime": 6493.414260636124,
            "responseTime": 1682188782575,
            "catchQuestion": "How many <b class=\"r\">red<\/b> marbles did your opponent report drawing? ",
            "catchKey": -1,
            "catchResponse": -1,
            "catchTime": 1682188691104,
            "trialTime": 0
        },
        {
            "exptPart": "trial",
            "trialNumber": 90,
            "roleCurrent": "receiver",
            "marblesSampled": 100,
            "probRed": 0.5,
            "practiceLambda": 5,
            "trialLambda": 8.1,
            "instructedLambda": "honest",
            "sd": 8.1,
            "drawnRed": 65,
            "reportedRed": 84,
            "inferredRed": 85,
            "playerTrialScore": -20,
            "oppTrialScore": 20,
            "playerTotalScore": -839,
            "oppTotalScore": 740,
            "waitTime": 7301.535746828497,
            "responseTime": 1682188795476,
            "catchQuestion": "How many <b class=\"r\">red<\/b> marbles did your opponent report drawing? ",
            "catchKey": -1,
            "catchResponse": -1,
            "catchTime": 1682188795476,
            "trialTime": 0
        },
        {
            "exptPart": "trial",
            "trialNumber": 91,
            "roleCurrent": "receiver",
            "marblesSampled": 100,
            "probRed": 0.5,
            "practiceLambda": 5,
            "trialLambda": 8.1,
            "instructedLambda": "honest",
            "sd": 8.1,
            "drawnRed": 35,
            "reportedRed": 35,
            "inferredRed": 40,
            "playerTrialScore": -5,
            "oppTrialScore": 5,
            "playerTotalScore": -844,
            "oppTotalScore": 745,
            "waitTime": 5490.579026146717,
            "responseTime": 1682188806667,
            "catchQuestion": "How many <b class=\"r\">red<\/b> marbles did your opponent report drawing? ",
            "catchKey": -1,
            "catchResponse": -1,
            "catchTime": 1682188795476,
            "trialTime": 0
        },
        {
            "exptPart": "trial",
            "trialNumber": 92,
            "roleCurrent": "receiver",
            "marblesSampled": 100,
            "probRed": 0.5,
            "practiceLambda": 5,
            "trialLambda": 8.1,
            "instructedLambda": "honest",
            "sd": 8.1,
            "drawnRed": 43,
            "reportedRed": 48,
            "inferredRed": 50,
            "playerTrialScore": -7,
            "oppTrialScore": 7,
            "playerTotalScore": -851,
            "oppTotalScore": 752,
            "waitTime": 6251.662513000132,
            "responseTime": 1682188816995,
            "catchQuestion": "How many <b class=\"r\">red<\/b> marbles did your opponent report drawing? ",
            "catchKey": -1,
            "catchResponse": -1,
            "catchTime": 1682188795476,
            "trialTime": 0
        },
        {
            "exptPart": "trial",
            "trialNumber": 93,
            "roleCurrent": "receiver",
            "marblesSampled": 100,
            "probRed": 0.5,
            "practiceLambda": 5,
            "trialLambda": 8.1,
            "instructedLambda": "honest",
            "sd": 8.1,
            "drawnRed": 12,
            "reportedRed": 26,
            "inferredRed": 26,
            "playerTrialScore": -14,
            "oppTrialScore": 14,
            "playerTotalScore": -865,
            "oppTotalScore": 766,
            "waitTime": 5621.141838589931,
            "responseTime": 1682188826242,
            "catchQuestion": "How many <b class=\"r\">red<\/b> marbles did your opponent report drawing? ",
            "catchKey": -1,
            "catchResponse": -1,
            "catchTime": 1682188795476,
            "trialTime": 0
        },
        {
            "exptPart": "trial",
            "trialNumber": 94,
            "roleCurrent": "receiver",
            "marblesSampled": 100,
            "probRed": 0.5,
            "practiceLambda": 5,
            "trialLambda": 8.1,
            "instructedLambda": "honest",
            "sd": 8.1,
            "drawnRed": 45,
            "reportedRed": 63,
            "inferredRed": 62,
            "playerTrialScore": -17,
            "oppTrialScore": 17,
            "playerTotalScore": -882,
            "oppTotalScore": 783,
            "waitTime": 6787.717702016967,
            "responseTime": 1682188836889,
            "catchQuestion": "How many <b class=\"r\">red<\/b> marbles did your opponent report drawing? ",
            "catchKey": -1,
            "catchResponse": -1,
            "catchTime": 1682188795476,
            "trialTime": 0
        },
        {
            "exptPart": "trial",
            "trialNumber": 95,
            "roleCurrent": "receiver",
            "marblesSampled": 100,
            "probRed": 0.5,
            "practiceLambda": 5,
            "trialLambda": 8.1,
            "instructedLambda": "honest",
            "sd": 8.1,
            "drawnRed": 22,
            "reportedRed": 27,
            "inferredRed": 25,
            "playerTrialScore": -3,
            "oppTrialScore": 3,
            "playerTotalScore": -885,
            "oppTotalScore": 786,
            "waitTime": 6788.738224234441,
            "responseTime": 1682188847321,
            "catchQuestion": "How many <b class=\"r\">red<\/b> marbles did your opponent report drawing? ",
            "catchKey": -1,
            "catchResponse": -1,
            "catchTime": 1682188795476,
            "trialTime": 0
        },
        {
            "exptPart": "trial",
            "trialNumber": 96,
            "roleCurrent": "receiver",
            "marblesSampled": 100,
            "probRed": 0.5,
            "practiceLambda": 5,
            "trialLambda": 8.1,
            "instructedLambda": "honest",
            "sd": 8.1,
            "drawnRed": 34,
            "reportedRed": 42,
            "inferredRed": 41,
            "playerTrialScore": -7,
            "oppTrialScore": 7,
            "playerTotalScore": -892,
            "oppTotalScore": 793,
            "waitTime": 5635.519042299757,
            "responseTime": 1682188856272,
            "catchQuestion": "How many <b class=\"r\">red<\/b> marbles did your opponent report drawing? ",
            "catchKey": -1,
            "catchResponse": -1,
            "catchTime": 1682188795476,
            "trialTime": 0
        },
        {
            "exptPart": "trial",
            "trialNumber": 97,
            "roleCurrent": "receiver",
            "marblesSampled": 100,
            "probRed": 0.5,
            "practiceLambda": 5,
            "trialLambda": 8.1,
            "instructedLambda": "honest",
            "sd": 8.1,
            "drawnRed": 62,
            "reportedRed": 68,
            "inferredRed": 63,
            "playerTrialScore": -1,
            "oppTrialScore": 1,
            "playerTotalScore": -893,
            "oppTotalScore": 794,
            "waitTime": 5356.268735217331,
            "responseTime": 1682188866723,
            "catchQuestion": "How many <b class=\"r\">red<\/b> marbles did your opponent report drawing? ",
            "catchKey": -1,
            "catchResponse": -1,
            "catchTime": 1682188795476,
            "trialTime": 0
        },
        {
            "exptPart": "trial",
            "trialNumber": 98,
            "roleCurrent": "receiver",
            "marblesSampled": 100,
            "probRed": 0.5,
            "practiceLambda": 5,
            "trialLambda": 8.1,
            "instructedLambda": "honest",
            "sd": 8.1,
            "drawnRed": 59,
            "reportedRed": 77,
            "inferredRed": 77,
            "playerTrialScore": -18,
            "oppTrialScore": 18,
            "playerTotalScore": -911,
            "oppTotalScore": 812,
            "waitTime": 6012.006540983616,
            "responseTime": 1682188875738,
            "catchQuestion": "How many <b class=\"r\">red<\/b> marbles did your opponent report drawing? ",
            "catchKey": -1,
            "catchResponse": -1,
            "catchTime": 1682188795476,
            "trialTime": 0
        },
        {
            "exptPart": "trial",
            "trialNumber": 99,
            "roleCurrent": "receiver",
            "marblesSampled": 100,
            "probRed": 0.5,
            "practiceLambda": 5,
            "trialLambda": 8.1,
            "instructedLambda": "honest",
            "sd": 8.1,
            "drawnRed": 78,
            "reportedRed": 87,
            "inferredRed": 90,
            "playerTrialScore": -12,
            "oppTrialScore": 12,
            "playerTotalScore": -923,
            "oppTotalScore": 824,
            "waitTime": 5484.372394126158,
            "responseTime": 1682188886588,
            "catchQuestion": "How many <b class=\"r\">red<\/b> marbles did your opponent report drawing? ",
            "catchKey": -1,
            "catchResponse": -1,
            "catchTime": 1682188795476,
            "trialTime": 0
        },
        {
            "exptPart": "trial",
            "trialNumber": 100,
            "roleCurrent": "receiver",
            "marblesSampled": 100,
            "probRed": 0.5,
            "practiceLambda": 5,
            "trialLambda": 8.1,
            "instructedLambda": "honest",
            "sd": 8.1,
            "drawnRed": 25,
            "reportedRed": 39,
            "inferredRed": 40,
            "playerTrialScore": -15,
            "oppTrialScore": 15,
            "playerTotalScore": -938,
            "oppTotalScore": 839,
            "waitTime": 6224.596436516067,
            "responseTime": 1682188896708,
            "catchQuestion": "How many <b class=\"r\">red<\/b> marbles did your opponent report drawing? ",
            "catchKey": -1,
            "catchResponse": -1,
            "catchTime": 1682188896708,
            "trialTime": 0
        }
    ]
}