{
    "client": {
        "type": "sona",
        "experiment_id": 2228,
        "credit_token": "b315147ae43241ea9c65086cb510cfb7",
        "survey_code": "39247",
        "sid": "sona-39247",
        "window": {
            "width": 1438,
            "height": 704
        },
        "screen": {
            "width": 1440,
            "height": 900
        },
        "userAgent": "Mozilla\/5.0 (Macintosh; Intel Mac OS X 10_15_7) AppleWebKit\/537.36 (KHTML, like Gecko) Chrome\/109.0.0.0 Safari\/537.36",
        "score": 0,
        "bonus": 0
    },
    "expt": {
        "saveURL": "submit.simple.php",
        "trials": 100,
        "practiceTrials": 2,
        "marblesSampled": 100,
        "probRed": 0.5,
        "practiceLambdaAI": 5,
        "lambdaAI": 8.1,
        "sd": 8.1,
        "roles": [
            "sender",
            "receiver"
        ],
        "cost": "unif",
        "goal": "over",
        "oppDishonesty": "dishonest_big",
        "catchTrials": [
            60,
            74,
            69,
            79,
            43,
            96,
            6,
            87,
            75,
            42
        ],
        "scoreTotal": {
            "player": -937,
            "opp": 862
        },
        "sona": {
            "experiment_id": 2228,
            "credit_token": "b315147ae43241ea9c65086cb510cfb7"
        },
        "pilot": false,
        "debug": false
    },
    "trials": [
        {
            "exptPart": "practice",
            "trialNumber": 1,
            "roleCurrent": "sender",
            "marblesSampled": 100,
            "probRed": 0.5,
            "practiceLambda": 5,
            "trialLambda": 8.1,
            "instructedLambda": "dishonest_big",
            "sd": 8.1,
            "drawnRed": 72,
            "reportedRed": 63,
            "inferredRed": 63,
            "playerTrialScore": 0,
            "oppTrialScore": -9,
            "playerTotalScore": 0,
            "oppTotalScore": -9,
            "waitTime": 2637.445588781838,
            "responseTime": 1682292071543,
            "catchQuestion": "How many <b class=\"r\">red<\/b> marbles did you actually draw (before any changes)? ",
            "catchKey": 72,
            "catchResponse": 72,
            "catchTime": 1682292071544,
            "trialTime": 0
        },
        {
            "exptPart": "practice",
            "trialNumber": 2,
            "roleCurrent": "receiver",
            "marblesSampled": 100,
            "probRed": 0.5,
            "practiceLambda": 5,
            "trialLambda": 8.1,
            "instructedLambda": "dishonest_big",
            "sd": 8.1,
            "drawnRed": 53,
            "reportedRed": 51,
            "inferredRed": 49,
            "playerTrialScore": -4,
            "oppTrialScore": 0,
            "playerTotalScore": -4,
            "oppTotalScore": -9,
            "waitTime": 6880.804754768176,
            "responseTime": 1682292128731,
            "catchQuestion": "How many <b class=\"r\">red<\/b> marbles did your opponent report drawing? ",
            "catchKey": 51,
            "catchResponse": 49,
            "catchTime": 1682292128731,
            "trialTime": 0
        },
        {
            "exptPart": "trial",
            "trialNumber": 1,
            "roleCurrent": "receiver",
            "marblesSampled": 100,
            "probRed": 0.5,
            "practiceLambda": 5,
            "trialLambda": 8.1,
            "instructedLambda": "dishonest_big",
            "sd": 8.1,
            "drawnRed": 26,
            "reportedRed": 24,
            "inferredRed": 24,
            "playerTrialScore": -2,
            "oppTrialScore": 0,
            "playerTotalScore": -2,
            "oppTotalScore": 0,
            "waitTime": 6410.318689290123,
            "responseTime": 1682292188909,
            "catchQuestion": "How many <b class=\"r\">red<\/b> marbles did your opponent report drawing? ",
            "catchKey": -1,
            "catchResponse": -1,
            "catchTime": 1682292128731,
            "trialTime": 0
        },
        {
            "exptPart": "trial",
            "trialNumber": 2,
            "roleCurrent": "receiver",
            "marblesSampled": 100,
            "probRed": 0.5,
            "practiceLambda": 5,
            "trialLambda": 8.1,
            "instructedLambda": "dishonest_big",
            "sd": 8.1,
            "drawnRed": 22,
            "reportedRed": 24,
            "inferredRed": 26,
            "playerTrialScore": -4,
            "oppTrialScore": 4,
            "playerTotalScore": -6,
            "oppTotalScore": 4,
            "waitTime": 5985.469097879467,
            "responseTime": 1682292206922,
            "catchQuestion": "How many <b class=\"r\">red<\/b> marbles did your opponent report drawing? ",
            "catchKey": -1,
            "catchResponse": -1,
            "catchTime": 1682292128731,
            "trialTime": 0
        },
        {
            "exptPart": "trial",
            "trialNumber": 3,
            "roleCurrent": "receiver",
            "marblesSampled": 100,
            "probRed": 0.5,
            "practiceLambda": 5,
            "trialLambda": 8.1,
            "instructedLambda": "dishonest_big",
            "sd": 8.1,
            "drawnRed": 29,
            "reportedRed": 39,
            "inferredRed": 43,
            "playerTrialScore": -14,
            "oppTrialScore": 14,
            "playerTotalScore": -20,
            "oppTotalScore": 18,
            "waitTime": 7442.540424102719,
            "responseTime": 1682292241249,
            "catchQuestion": "How many <b class=\"r\">red<\/b> marbles did your opponent report drawing? ",
            "catchKey": -1,
            "catchResponse": -1,
            "catchTime": 1682292128731,
            "trialTime": 0
        },
        {
            "exptPart": "trial",
            "trialNumber": 4,
            "roleCurrent": "receiver",
            "marblesSampled": 100,
            "probRed": 0.5,
            "practiceLambda": 5,
            "trialLambda": 8.1,
            "instructedLambda": "dishonest_big",
            "sd": 8.1,
            "drawnRed": 51,
            "reportedRed": 68,
            "inferredRed": 70,
            "playerTrialScore": -19,
            "oppTrialScore": 19,
            "playerTotalScore": -39,
            "oppTotalScore": 37,
            "waitTime": 6845.078152908347,
            "responseTime": 1682292256457,
            "catchQuestion": "How many <b class=\"r\">red<\/b> marbles did your opponent report drawing? ",
            "catchKey": -1,
            "catchResponse": -1,
            "catchTime": 1682292128731,
            "trialTime": 0
        },
        {
            "exptPart": "trial",
            "trialNumber": 5,
            "roleCurrent": "receiver",
            "marblesSampled": 100,
            "probRed": 0.5,
            "practiceLambda": 5,
            "trialLambda": 8.1,
            "instructedLambda": "dishonest_big",
            "sd": 8.1,
            "drawnRed": 90,
            "reportedRed": 97,
            "inferredRed": 97,
            "playerTrialScore": -7,
            "oppTrialScore": 7,
            "playerTotalScore": -46,
            "oppTotalScore": 44,
            "waitTime": 5344.744961421084,
            "responseTime": 1682292270024,
            "catchQuestion": "How many <b class=\"r\">red<\/b> marbles did your opponent report drawing? ",
            "catchKey": -1,
            "catchResponse": -1,
            "catchTime": 1682292128731,
            "trialTime": 0
        },
        {
            "exptPart": "trial",
            "trialNumber": 6,
            "roleCurrent": "receiver",
            "marblesSampled": 100,
            "probRed": 0.5,
            "practiceLambda": 5,
            "trialLambda": 8.1,
            "instructedLambda": "dishonest_big",
            "sd": 8.1,
            "drawnRed": 37,
            "reportedRed": 42,
            "inferredRed": 48,
            "playerTrialScore": -11,
            "oppTrialScore": 11,
            "playerTotalScore": -57,
            "oppTotalScore": 55,
            "waitTime": 6521.2984873063515,
            "responseTime": 1682292292281,
            "catchQuestion": "How many <b class=\"r\">red<\/b> marbles did your opponent report drawing? ",
            "catchKey": -1,
            "catchResponse": -1,
            "catchTime": 1682292128731,
            "trialTime": 0
        },
        {
            "exptPart": "trial",
            "trialNumber": 7,
            "roleCurrent": "receiver",
            "marblesSampled": 100,
            "probRed": 0.5,
            "practiceLambda": 5,
            "trialLambda": 8.1,
            "instructedLambda": "dishonest_big",
            "sd": 8.1,
            "drawnRed": 43,
            "reportedRed": 38,
            "inferredRed": 38,
            "playerTrialScore": -5,
            "oppTrialScore": 0,
            "playerTotalScore": -62,
            "oppTotalScore": 55,
            "waitTime": 5276.863566811144,
            "responseTime": 1682292307111,
            "catchQuestion": "How many <b class=\"r\">red<\/b> marbles did your opponent report drawing? ",
            "catchKey": 38,
            "catchResponse": 39,
            "catchTime": 1682292307111,
            "trialTime": 0
        },
        {
            "exptPart": "trial",
            "trialNumber": 8,
            "roleCurrent": "receiver",
            "marblesSampled": 100,
            "probRed": 0.5,
            "practiceLambda": 5,
            "trialLambda": 8.1,
            "instructedLambda": "dishonest_big",
            "sd": 8.1,
            "drawnRed": 61,
            "reportedRed": 63,
            "inferredRed": 65,
            "playerTrialScore": -4,
            "oppTrialScore": 4,
            "playerTotalScore": -66,
            "oppTotalScore": 59,
            "waitTime": 5330.58503624615,
            "responseTime": 1682292341284,
            "catchQuestion": "How many <b class=\"r\">red<\/b> marbles did your opponent report drawing? ",
            "catchKey": -1,
            "catchResponse": -1,
            "catchTime": 1682292307111,
            "trialTime": 0
        },
        {
            "exptPart": "trial",
            "trialNumber": 9,
            "roleCurrent": "receiver",
            "marblesSampled": 100,
            "probRed": 0.5,
            "practiceLambda": 5,
            "trialLambda": 8.1,
            "instructedLambda": "dishonest_big",
            "sd": 8.1,
            "drawnRed": 37,
            "reportedRed": 33,
            "inferredRed": 36,
            "playerTrialScore": -1,
            "oppTrialScore": 0,
            "playerTotalScore": -67,
            "oppTotalScore": 59,
            "waitTime": 5710.950383436985,
            "responseTime": 1682292360205,
            "catchQuestion": "How many <b class=\"r\">red<\/b> marbles did your opponent report drawing? ",
            "catchKey": -1,
            "catchResponse": -1,
            "catchTime": 1682292307111,
            "trialTime": 0
        },
        {
            "exptPart": "trial",
            "trialNumber": 10,
            "roleCurrent": "receiver",
            "marblesSampled": 100,
            "probRed": 0.5,
            "practiceLambda": 5,
            "trialLambda": 8.1,
            "instructedLambda": "dishonest_big",
            "sd": 8.1,
            "drawnRed": 61,
            "reportedRed": 80,
            "inferredRed": 81,
            "playerTrialScore": -20,
            "oppTrialScore": 20,
            "playerTotalScore": -87,
            "oppTotalScore": 79,
            "waitTime": 5593.970752990939,
            "responseTime": 1682292373239,
            "catchQuestion": "How many <b class=\"r\">red<\/b> marbles did your opponent report drawing? ",
            "catchKey": -1,
            "catchResponse": -1,
            "catchTime": 1682292373240,
            "trialTime": 0
        },
        {
            "exptPart": "trial",
            "trialNumber": 11,
            "roleCurrent": "receiver",
            "marblesSampled": 100,
            "probRed": 0.5,
            "practiceLambda": 5,
            "trialLambda": 8.1,
            "instructedLambda": "dishonest_big",
            "sd": 8.1,
            "drawnRed": 89,
            "reportedRed": 100,
            "inferredRed": 86,
            "playerTrialScore": -3,
            "oppTrialScore": 0,
            "playerTotalScore": -90,
            "oppTotalScore": 79,
            "waitTime": 5279.389256386063,
            "responseTime": 1682292408220,
            "catchQuestion": "How many <b class=\"r\">red<\/b> marbles did your opponent report drawing? ",
            "catchKey": -1,
            "catchResponse": -1,
            "catchTime": 1682292373240,
            "trialTime": 0
        },
        {
            "exptPart": "trial",
            "trialNumber": 12,
            "roleCurrent": "receiver",
            "marblesSampled": 100,
            "probRed": 0.5,
            "practiceLambda": 5,
            "trialLambda": 8.1,
            "instructedLambda": "dishonest_big",
            "sd": 8.1,
            "drawnRed": 74,
            "reportedRed": 83,
            "inferredRed": 78,
            "playerTrialScore": -4,
            "oppTrialScore": 4,
            "playerTotalScore": -94,
            "oppTotalScore": 83,
            "waitTime": 7018.695643769459,
            "responseTime": 1682292434398,
            "catchQuestion": "How many <b class=\"r\">red<\/b> marbles did your opponent report drawing? ",
            "catchKey": -1,
            "catchResponse": -1,
            "catchTime": 1682292373240,
            "trialTime": 0
        },
        {
            "exptPart": "trial",
            "trialNumber": 13,
            "roleCurrent": "receiver",
            "marblesSampled": 100,
            "probRed": 0.5,
            "practiceLambda": 5,
            "trialLambda": 8.1,
            "instructedLambda": "dishonest_big",
            "sd": 8.1,
            "drawnRed": 64,
            "reportedRed": 79,
            "inferredRed": 79,
            "playerTrialScore": -15,
            "oppTrialScore": 15,
            "playerTotalScore": -109,
            "oppTotalScore": 98,
            "waitTime": 5724.701079443341,
            "responseTime": 1682292460355,
            "catchQuestion": "How many <b class=\"r\">red<\/b> marbles did your opponent report drawing? ",
            "catchKey": -1,
            "catchResponse": -1,
            "catchTime": 1682292373240,
            "trialTime": 0
        },
        {
            "exptPart": "trial",
            "trialNumber": 14,
            "roleCurrent": "receiver",
            "marblesSampled": 100,
            "probRed": 0.5,
            "practiceLambda": 5,
            "trialLambda": 8.1,
            "instructedLambda": "dishonest_big",
            "sd": 8.1,
            "drawnRed": 31,
            "reportedRed": 23,
            "inferredRed": 20,
            "playerTrialScore": -11,
            "oppTrialScore": 0,
            "playerTotalScore": -120,
            "oppTotalScore": 98,
            "waitTime": 6128.972491125919,
            "responseTime": 1682292484634,
            "catchQuestion": "How many <b class=\"r\">red<\/b> marbles did your opponent report drawing? ",
            "catchKey": -1,
            "catchResponse": -1,
            "catchTime": 1682292373240,
            "trialTime": 0
        },
        {
            "exptPart": "trial",
            "trialNumber": 15,
            "roleCurrent": "receiver",
            "marblesSampled": 100,
            "probRed": 0.5,
            "practiceLambda": 5,
            "trialLambda": 8.1,
            "instructedLambda": "dishonest_big",
            "sd": 8.1,
            "drawnRed": 34,
            "reportedRed": 37,
            "inferredRed": 35,
            "playerTrialScore": -1,
            "oppTrialScore": 1,
            "playerTotalScore": -121,
            "oppTotalScore": 99,
            "waitTime": 5194.498956581001,
            "responseTime": 1682292497155,
            "catchQuestion": "How many <b class=\"r\">red<\/b> marbles did your opponent report drawing? ",
            "catchKey": -1,
            "catchResponse": -1,
            "catchTime": 1682292373240,
            "trialTime": 0
        },
        {
            "exptPart": "trial",
            "trialNumber": 16,
            "roleCurrent": "receiver",
            "marblesSampled": 100,
            "probRed": 0.5,
            "practiceLambda": 5,
            "trialLambda": 8.1,
            "instructedLambda": "dishonest_big",
            "sd": 8.1,
            "drawnRed": 23,
            "reportedRed": 32,
            "inferredRed": 30,
            "playerTrialScore": -7,
            "oppTrialScore": 7,
            "playerTotalScore": -128,
            "oppTotalScore": 106,
            "waitTime": 6918.618373427913,
            "responseTime": 1682292508358,
            "catchQuestion": "How many <b class=\"r\">red<\/b> marbles did your opponent report drawing? ",
            "catchKey": -1,
            "catchResponse": -1,
            "catchTime": 1682292373240,
            "trialTime": 0
        },
        {
            "exptPart": "trial",
            "trialNumber": 17,
            "roleCurrent": "receiver",
            "marblesSampled": 100,
            "probRed": 0.5,
            "practiceLambda": 5,
            "trialLambda": 8.1,
            "instructedLambda": "dishonest_big",
            "sd": 8.1,
            "drawnRed": 48,
            "reportedRed": 64,
            "inferredRed": 50,
            "playerTrialScore": -2,
            "oppTrialScore": 2,
            "playerTotalScore": -130,
            "oppTotalScore": 108,
            "waitTime": 5138.200141365561,
            "responseTime": 1682292521302,
            "catchQuestion": "How many <b class=\"r\">red<\/b> marbles did your opponent report drawing? ",
            "catchKey": -1,
            "catchResponse": -1,
            "catchTime": 1682292373240,
            "trialTime": 0
        },
        {
            "exptPart": "trial",
            "trialNumber": 18,
            "roleCurrent": "receiver",
            "marblesSampled": 100,
            "probRed": 0.5,
            "practiceLambda": 5,
            "trialLambda": 8.1,
            "instructedLambda": "dishonest_big",
            "sd": 8.1,
            "drawnRed": 30,
            "reportedRed": 46,
            "inferredRed": 40,
            "playerTrialScore": -10,
            "oppTrialScore": 10,
            "playerTotalScore": -140,
            "oppTotalScore": 118,
            "waitTime": 5522.96541408876,
            "responseTime": 1682292532240,
            "catchQuestion": "How many <b class=\"r\">red<\/b> marbles did your opponent report drawing? ",
            "catchKey": -1,
            "catchResponse": -1,
            "catchTime": 1682292373240,
            "trialTime": 0
        },
        {
            "exptPart": "trial",
            "trialNumber": 19,
            "roleCurrent": "receiver",
            "marblesSampled": 100,
            "probRed": 0.5,
            "practiceLambda": 5,
            "trialLambda": 8.1,
            "instructedLambda": "dishonest_big",
            "sd": 8.1,
            "drawnRed": 45,
            "reportedRed": 45,
            "inferredRed": 40,
            "playerTrialScore": -5,
            "oppTrialScore": 0,
            "playerTotalScore": -145,
            "oppTotalScore": 118,
            "waitTime": 6105.673078064472,
            "responseTime": 1682292545181,
            "catchQuestion": "How many <b class=\"r\">red<\/b> marbles did your opponent report drawing? ",
            "catchKey": -1,
            "catchResponse": -1,
            "catchTime": 1682292373240,
            "trialTime": 0
        },
        {
            "exptPart": "trial",
            "trialNumber": 20,
            "roleCurrent": "receiver",
            "marblesSampled": 100,
            "probRed": 0.5,
            "practiceLambda": 5,
            "trialLambda": 8.1,
            "instructedLambda": "dishonest_big",
            "sd": 8.1,
            "drawnRed": 70,
            "reportedRed": 89,
            "inferredRed": 87,
            "playerTrialScore": -17,
            "oppTrialScore": 17,
            "playerTotalScore": -162,
            "oppTotalScore": 135,
            "waitTime": 7123.5176031278015,
            "responseTime": 1682292558585,
            "catchQuestion": "How many <b class=\"r\">red<\/b> marbles did your opponent report drawing? ",
            "catchKey": -1,
            "catchResponse": -1,
            "catchTime": 1682292558585,
            "trialTime": 0
        },
        {
            "exptPart": "trial",
            "trialNumber": 21,
            "roleCurrent": "receiver",
            "marblesSampled": 100,
            "probRed": 0.5,
            "practiceLambda": 5,
            "trialLambda": 8.1,
            "instructedLambda": "dishonest_big",
            "sd": 8.1,
            "drawnRed": 55,
            "reportedRed": 54,
            "inferredRed": 50,
            "playerTrialScore": -5,
            "oppTrialScore": 0,
            "playerTotalScore": -167,
            "oppTotalScore": 135,
            "waitTime": 6088.905317208919,
            "responseTime": 1682292579193,
            "catchQuestion": "How many <b class=\"r\">red<\/b> marbles did your opponent report drawing? ",
            "catchKey": -1,
            "catchResponse": -1,
            "catchTime": 1682292558585,
            "trialTime": 0
        },
        {
            "exptPart": "trial",
            "trialNumber": 22,
            "roleCurrent": "receiver",
            "marblesSampled": 100,
            "probRed": 0.5,
            "practiceLambda": 5,
            "trialLambda": 8.1,
            "instructedLambda": "dishonest_big",
            "sd": 8.1,
            "drawnRed": 52,
            "reportedRed": 66,
            "inferredRed": 66,
            "playerTrialScore": -14,
            "oppTrialScore": 14,
            "playerTotalScore": -181,
            "oppTotalScore": 149,
            "waitTime": 5216.535877611001,
            "responseTime": 1682292588037,
            "catchQuestion": "How many <b class=\"r\">red<\/b> marbles did your opponent report drawing? ",
            "catchKey": -1,
            "catchResponse": -1,
            "catchTime": 1682292558585,
            "trialTime": 0
        },
        {
            "exptPart": "trial",
            "trialNumber": 23,
            "roleCurrent": "receiver",
            "marblesSampled": 100,
            "probRed": 0.5,
            "practiceLambda": 5,
            "trialLambda": 8.1,
            "instructedLambda": "dishonest_big",
            "sd": 8.1,
            "drawnRed": 45,
            "reportedRed": 70,
            "inferredRed": 65,
            "playerTrialScore": -20,
            "oppTrialScore": 20,
            "playerTotalScore": -201,
            "oppTotalScore": 169,
            "waitTime": 7326.5044482575095,
            "responseTime": 1682292599529,
            "catchQuestion": "How many <b class=\"r\">red<\/b> marbles did your opponent report drawing? ",
            "catchKey": -1,
            "catchResponse": -1,
            "catchTime": 1682292558585,
            "trialTime": 0
        },
        {
            "exptPart": "trial",
            "trialNumber": 24,
            "roleCurrent": "receiver",
            "marblesSampled": 100,
            "probRed": 0.5,
            "practiceLambda": 5,
            "trialLambda": 8.1,
            "instructedLambda": "dishonest_big",
            "sd": 8.1,
            "drawnRed": 49,
            "reportedRed": 55,
            "inferredRed": 54,
            "playerTrialScore": -5,
            "oppTrialScore": 5,
            "playerTotalScore": -206,
            "oppTotalScore": 174,
            "waitTime": 6998.818632403898,
            "responseTime": 1682292610403,
            "catchQuestion": "How many <b class=\"r\">red<\/b> marbles did your opponent report drawing? ",
            "catchKey": -1,
            "catchResponse": -1,
            "catchTime": 1682292558585,
            "trialTime": 0
        },
        {
            "exptPart": "trial",
            "trialNumber": 25,
            "roleCurrent": "receiver",
            "marblesSampled": 100,
            "probRed": 0.5,
            "practiceLambda": 5,
            "trialLambda": 8.1,
            "instructedLambda": "dishonest_big",
            "sd": 8.1,
            "drawnRed": 65,
            "reportedRed": 77,
            "inferredRed": 64,
            "playerTrialScore": -1,
            "oppTrialScore": 0,
            "playerTotalScore": -207,
            "oppTotalScore": 174,
            "waitTime": 6127.6173748337205,
            "responseTime": 1682292623484,
            "catchQuestion": "How many <b class=\"r\">red<\/b> marbles did your opponent report drawing? ",
            "catchKey": -1,
            "catchResponse": -1,
            "catchTime": 1682292558585,
            "trialTime": 0
        },
        {
            "exptPart": "trial",
            "trialNumber": 26,
            "roleCurrent": "receiver",
            "marblesSampled": 100,
            "probRed": 0.5,
            "practiceLambda": 5,
            "trialLambda": 8.1,
            "instructedLambda": "dishonest_big",
            "sd": 8.1,
            "drawnRed": 80,
            "reportedRed": 100,
            "inferredRed": 94,
            "playerTrialScore": -14,
            "oppTrialScore": 14,
            "playerTotalScore": -221,
            "oppTotalScore": 188,
            "waitTime": 6971.280602006609,
            "responseTime": 1682292643912,
            "catchQuestion": "How many <b class=\"r\">red<\/b> marbles did your opponent report drawing? ",
            "catchKey": -1,
            "catchResponse": -1,
            "catchTime": 1682292558585,
            "trialTime": 0
        },
        {
            "exptPart": "trial",
            "trialNumber": 27,
            "roleCurrent": "receiver",
            "marblesSampled": 100,
            "probRed": 0.5,
            "practiceLambda": 5,
            "trialLambda": 8.1,
            "instructedLambda": "dishonest_big",
            "sd": 8.1,
            "drawnRed": 46,
            "reportedRed": 55,
            "inferredRed": 55,
            "playerTrialScore": -9,
            "oppTrialScore": 9,
            "playerTotalScore": -230,
            "oppTotalScore": 197,
            "waitTime": 5762.212672432171,
            "responseTime": 1682292653910,
            "catchQuestion": "How many <b class=\"r\">red<\/b> marbles did your opponent report drawing? ",
            "catchKey": -1,
            "catchResponse": -1,
            "catchTime": 1682292558585,
            "trialTime": 0
        },
        {
            "exptPart": "trial",
            "trialNumber": 28,
            "roleCurrent": "receiver",
            "marblesSampled": 100,
            "probRed": 0.5,
            "practiceLambda": 5,
            "trialLambda": 8.1,
            "instructedLambda": "dishonest_big",
            "sd": 8.1,
            "drawnRed": 29,
            "reportedRed": 33,
            "inferredRed": 35,
            "playerTrialScore": -6,
            "oppTrialScore": 6,
            "playerTotalScore": -236,
            "oppTotalScore": 203,
            "waitTime": 5285.18597010011,
            "responseTime": 1682292664148,
            "catchQuestion": "How many <b class=\"r\">red<\/b> marbles did your opponent report drawing? ",
            "catchKey": -1,
            "catchResponse": -1,
            "catchTime": 1682292558585,
            "trialTime": 0
        },
        {
            "exptPart": "trial",
            "trialNumber": 29,
            "roleCurrent": "receiver",
            "marblesSampled": 100,
            "probRed": 0.5,
            "practiceLambda": 5,
            "trialLambda": 8.1,
            "instructedLambda": "dishonest_big",
            "sd": 8.1,
            "drawnRed": 52,
            "reportedRed": 74,
            "inferredRed": 68,
            "playerTrialScore": -16,
            "oppTrialScore": 16,
            "playerTotalScore": -252,
            "oppTotalScore": 219,
            "waitTime": 6335.121975911186,
            "responseTime": 1682292677613,
            "catchQuestion": "How many <b class=\"r\">red<\/b> marbles did your opponent report drawing? ",
            "catchKey": -1,
            "catchResponse": -1,
            "catchTime": 1682292558585,
            "trialTime": 0
        },
        {
            "exptPart": "trial",
            "trialNumber": 30,
            "roleCurrent": "receiver",
            "marblesSampled": 100,
            "probRed": 0.5,
            "practiceLambda": 5,
            "trialLambda": 8.1,
            "instructedLambda": "dishonest_big",
            "sd": 8.1,
            "drawnRed": 54,
            "reportedRed": 64,
            "inferredRed": 68,
            "playerTrialScore": -14,
            "oppTrialScore": 14,
            "playerTotalScore": -266,
            "oppTotalScore": 233,
            "waitTime": 6076.845224134445,
            "responseTime": 1682292691404,
            "catchQuestion": "How many <b class=\"r\">red<\/b> marbles did your opponent report drawing? ",
            "catchKey": -1,
            "catchResponse": -1,
            "catchTime": 1682292691404,
            "trialTime": 0
        },
        {
            "exptPart": "trial",
            "trialNumber": 31,
            "roleCurrent": "receiver",
            "marblesSampled": 100,
            "probRed": 0.5,
            "practiceLambda": 5,
            "trialLambda": 8.1,
            "instructedLambda": "dishonest_big",
            "sd": 8.1,
            "drawnRed": 60,
            "reportedRed": 77,
            "inferredRed": 70,
            "playerTrialScore": -10,
            "oppTrialScore": 10,
            "playerTotalScore": -276,
            "oppTotalScore": 243,
            "waitTime": 5802.9719169812115,
            "responseTime": 1682292706841,
            "catchQuestion": "How many <b class=\"r\">red<\/b> marbles did your opponent report drawing? ",
            "catchKey": -1,
            "catchResponse": -1,
            "catchTime": 1682292691404,
            "trialTime": 0
        },
        {
            "exptPart": "trial",
            "trialNumber": 32,
            "roleCurrent": "receiver",
            "marblesSampled": 100,
            "probRed": 0.5,
            "practiceLambda": 5,
            "trialLambda": 8.1,
            "instructedLambda": "dishonest_big",
            "sd": 8.1,
            "drawnRed": 80,
            "reportedRed": 97,
            "inferredRed": 80,
            "playerTrialScore": 0,
            "oppTrialScore": 0,
            "playerTotalScore": -276,
            "oppTotalScore": 243,
            "waitTime": 5904.617356908685,
            "responseTime": 1682292717149,
            "catchQuestion": "How many <b class=\"r\">red<\/b> marbles did your opponent report drawing? ",
            "catchKey": -1,
            "catchResponse": -1,
            "catchTime": 1682292691404,
            "trialTime": 0
        },
        {
            "exptPart": "trial",
            "trialNumber": 33,
            "roleCurrent": "receiver",
            "marblesSampled": 100,
            "probRed": 0.5,
            "practiceLambda": 5,
            "trialLambda": 8.1,
            "instructedLambda": "dishonest_big",
            "sd": 8.1,
            "drawnRed": 56,
            "reportedRed": 68,
            "inferredRed": 51,
            "playerTrialScore": -5,
            "oppTrialScore": 0,
            "playerTotalScore": -281,
            "oppTotalScore": 243,
            "waitTime": 5297.084824471166,
            "responseTime": 1682292732012,
            "catchQuestion": "How many <b class=\"r\">red<\/b> marbles did your opponent report drawing? ",
            "catchKey": -1,
            "catchResponse": -1,
            "catchTime": 1682292691404,
            "trialTime": 0
        },
        {
            "exptPart": "trial",
            "trialNumber": 34,
            "roleCurrent": "receiver",
            "marblesSampled": 100,
            "probRed": 0.5,
            "practiceLambda": 5,
            "trialLambda": 8.1,
            "instructedLambda": "dishonest_big",
            "sd": 8.1,
            "drawnRed": 32,
            "reportedRed": 41,
            "inferredRed": 45,
            "playerTrialScore": -13,
            "oppTrialScore": 13,
            "playerTotalScore": -294,
            "oppTotalScore": 256,
            "waitTime": 6223.256517693757,
            "responseTime": 1682292742678,
            "catchQuestion": "How many <b class=\"r\">red<\/b> marbles did your opponent report drawing? ",
            "catchKey": -1,
            "catchResponse": -1,
            "catchTime": 1682292691404,
            "trialTime": 0
        },
        {
            "exptPart": "trial",
            "trialNumber": 35,
            "roleCurrent": "receiver",
            "marblesSampled": 100,
            "probRed": 0.5,
            "practiceLambda": 5,
            "trialLambda": 8.1,
            "instructedLambda": "dishonest_big",
            "sd": 8.1,
            "drawnRed": 50,
            "reportedRed": 63,
            "inferredRed": 61,
            "playerTrialScore": -11,
            "oppTrialScore": 11,
            "playerTotalScore": -305,
            "oppTotalScore": 267,
            "waitTime": 5913.191643070855,
            "responseTime": 1682292757581,
            "catchQuestion": "How many <b class=\"r\">red<\/b> marbles did your opponent report drawing? ",
            "catchKey": -1,
            "catchResponse": -1,
            "catchTime": 1682292691404,
            "trialTime": 0
        },
        {
            "exptPart": "trial",
            "trialNumber": 36,
            "roleCurrent": "receiver",
            "marblesSampled": 100,
            "probRed": 0.5,
            "practiceLambda": 5,
            "trialLambda": 8.1,
            "instructedLambda": "dishonest_big",
            "sd": 8.1,
            "drawnRed": 44,
            "reportedRed": 66,
            "inferredRed": 48,
            "playerTrialScore": -4,
            "oppTrialScore": 4,
            "playerTotalScore": -309,
            "oppTotalScore": 271,
            "waitTime": 7105.123261363076,
            "responseTime": 1682292770101,
            "catchQuestion": "How many <b class=\"r\">red<\/b> marbles did your opponent report drawing? ",
            "catchKey": -1,
            "catchResponse": -1,
            "catchTime": 1682292691404,
            "trialTime": 0
        },
        {
            "exptPart": "trial",
            "trialNumber": 37,
            "roleCurrent": "receiver",
            "marblesSampled": 100,
            "probRed": 0.5,
            "practiceLambda": 5,
            "trialLambda": 8.1,
            "instructedLambda": "dishonest_big",
            "sd": 8.1,
            "drawnRed": 36,
            "reportedRed": 39,
            "inferredRed": 42,
            "playerTrialScore": -6,
            "oppTrialScore": 6,
            "playerTotalScore": -315,
            "oppTotalScore": 277,
            "waitTime": 5615.22023450885,
            "responseTime": 1682292780630,
            "catchQuestion": "How many <b class=\"r\">red<\/b> marbles did your opponent report drawing? ",
            "catchKey": -1,
            "catchResponse": -1,
            "catchTime": 1682292691404,
            "trialTime": 0
        },
        {
            "exptPart": "trial",
            "trialNumber": 38,
            "roleCurrent": "receiver",
            "marblesSampled": 100,
            "probRed": 0.5,
            "practiceLambda": 5,
            "trialLambda": 8.1,
            "instructedLambda": "dishonest_big",
            "sd": 8.1,
            "drawnRed": 80,
            "reportedRed": 91,
            "inferredRed": 81,
            "playerTrialScore": -1,
            "oppTrialScore": 1,
            "playerTotalScore": -316,
            "oppTotalScore": 278,
            "waitTime": 5434.131357515167,
            "responseTime": 1682292791311,
            "catchQuestion": "How many <b class=\"r\">red<\/b> marbles did your opponent report drawing? ",
            "catchKey": -1,
            "catchResponse": -1,
            "catchTime": 1682292691404,
            "trialTime": 0
        },
        {
            "exptPart": "trial",
            "trialNumber": 39,
            "roleCurrent": "receiver",
            "marblesSampled": 100,
            "probRed": 0.5,
            "practiceLambda": 5,
            "trialLambda": 8.1,
            "instructedLambda": "dishonest_big",
            "sd": 8.1,
            "drawnRed": 48,
            "reportedRed": 54,
            "inferredRed": 56,
            "playerTrialScore": -8,
            "oppTrialScore": 8,
            "playerTotalScore": -324,
            "oppTotalScore": 286,
            "waitTime": 6341.262820690094,
            "responseTime": 1682292801122,
            "catchQuestion": "How many <b class=\"r\">red<\/b> marbles did your opponent report drawing? ",
            "catchKey": -1,
            "catchResponse": -1,
            "catchTime": 1682292691404,
            "trialTime": 0
        },
        {
            "exptPart": "trial",
            "trialNumber": 40,
            "roleCurrent": "receiver",
            "marblesSampled": 100,
            "probRed": 0.5,
            "practiceLambda": 5,
            "trialLambda": 8.1,
            "instructedLambda": "dishonest_big",
            "sd": 8.1,
            "drawnRed": 67,
            "reportedRed": 83,
            "inferredRed": 78,
            "playerTrialScore": -11,
            "oppTrialScore": 11,
            "playerTotalScore": -335,
            "oppTotalScore": 297,
            "waitTime": 5557.169580982694,
            "responseTime": 1682292831948,
            "catchQuestion": "How many <b class=\"r\">red<\/b> marbles did your opponent report drawing? ",
            "catchKey": -1,
            "catchResponse": -1,
            "catchTime": 1682292831948,
            "trialTime": 0
        },
        {
            "exptPart": "trial",
            "trialNumber": 41,
            "roleCurrent": "receiver",
            "marblesSampled": 100,
            "probRed": 0.5,
            "practiceLambda": 5,
            "trialLambda": 8.1,
            "instructedLambda": "dishonest_big",
            "sd": 8.1,
            "drawnRed": 47,
            "reportedRed": 41,
            "inferredRed": 46,
            "playerTrialScore": -1,
            "oppTrialScore": 0,
            "playerTotalScore": -336,
            "oppTotalScore": 297,
            "waitTime": 6955.309416769411,
            "responseTime": 1682292855846,
            "catchQuestion": "How many <b class=\"r\">red<\/b> marbles did your opponent report drawing? ",
            "catchKey": -1,
            "catchResponse": -1,
            "catchTime": 1682292831948,
            "trialTime": 0
        },
        {
            "exptPart": "trial",
            "trialNumber": 42,
            "roleCurrent": "receiver",
            "marblesSampled": 100,
            "probRed": 0.5,
            "practiceLambda": 5,
            "trialLambda": 8.1,
            "instructedLambda": "dishonest_big",
            "sd": 8.1,
            "drawnRed": 69,
            "reportedRed": 71,
            "inferredRed": 76,
            "playerTrialScore": -7,
            "oppTrialScore": 7,
            "playerTotalScore": -343,
            "oppTotalScore": 304,
            "waitTime": 6199.344242362075,
            "responseTime": 1682292866443,
            "catchQuestion": "How many <b class=\"r\">red<\/b> marbles did your opponent report drawing? ",
            "catchKey": -1,
            "catchResponse": -1,
            "catchTime": 1682292831948,
            "trialTime": 0
        },
        {
            "exptPart": "trial",
            "trialNumber": 43,
            "roleCurrent": "receiver",
            "marblesSampled": 100,
            "probRed": 0.5,
            "practiceLambda": 5,
            "trialLambda": 8.1,
            "instructedLambda": "dishonest_big",
            "sd": 8.1,
            "drawnRed": 76,
            "reportedRed": 75,
            "inferredRed": 82,
            "playerTrialScore": -6,
            "oppTrialScore": 6,
            "playerTotalScore": -349,
            "oppTotalScore": 310,
            "waitTime": 6478.720958456532,
            "responseTime": 1682292876849,
            "catchQuestion": "How many <b class=\"r\">red<\/b> marbles did your opponent report drawing? ",
            "catchKey": 75,
            "catchResponse": 75,
            "catchTime": 1682292876849,
            "trialTime": 0
        },
        {
            "exptPart": "trial",
            "trialNumber": 44,
            "roleCurrent": "receiver",
            "marblesSampled": 100,
            "probRed": 0.5,
            "practiceLambda": 5,
            "trialLambda": 8.1,
            "instructedLambda": "dishonest_big",
            "sd": 8.1,
            "drawnRed": 27,
            "reportedRed": 34,
            "inferredRed": 45,
            "playerTrialScore": -18,
            "oppTrialScore": 18,
            "playerTotalScore": -367,
            "oppTotalScore": 328,
            "waitTime": 5867.208473096331,
            "responseTime": 1682292893439,
            "catchQuestion": "How many <b class=\"r\">red<\/b> marbles did your opponent report drawing? ",
            "catchKey": 34,
            "catchResponse": 34,
            "catchTime": 1682292893439,
            "trialTime": 0
        },
        {
            "exptPart": "trial",
            "trialNumber": 45,
            "roleCurrent": "receiver",
            "marblesSampled": 100,
            "probRed": 0.5,
            "practiceLambda": 5,
            "trialLambda": 8.1,
            "instructedLambda": "dishonest_big",
            "sd": 8.1,
            "drawnRed": 57,
            "reportedRed": 52,
            "inferredRed": 50,
            "playerTrialScore": -7,
            "oppTrialScore": 0,
            "playerTotalScore": -374,
            "oppTotalScore": 328,
            "waitTime": 6905.560503240888,
            "responseTime": 1682292914179,
            "catchQuestion": "How many <b class=\"r\">red<\/b> marbles did your opponent report drawing? ",
            "catchKey": -1,
            "catchResponse": -1,
            "catchTime": 1682292893439,
            "trialTime": 0
        },
        {
            "exptPart": "trial",
            "trialNumber": 46,
            "roleCurrent": "receiver",
            "marblesSampled": 100,
            "probRed": 0.5,
            "practiceLambda": 5,
            "trialLambda": 8.1,
            "instructedLambda": "dishonest_big",
            "sd": 8.1,
            "drawnRed": 21,
            "reportedRed": 35,
            "inferredRed": 37,
            "playerTrialScore": -16,
            "oppTrialScore": 16,
            "playerTotalScore": -390,
            "oppTotalScore": 344,
            "waitTime": 6916.106797052036,
            "responseTime": 1682292925256,
            "catchQuestion": "How many <b class=\"r\">red<\/b> marbles did your opponent report drawing? ",
            "catchKey": -1,
            "catchResponse": -1,
            "catchTime": 1682292893439,
            "trialTime": 0
        },
        {
            "exptPart": "trial",
            "trialNumber": 47,
            "roleCurrent": "receiver",
            "marblesSampled": 100,
            "probRed": 0.5,
            "practiceLambda": 5,
            "trialLambda": 8.1,
            "instructedLambda": "dishonest_big",
            "sd": 8.1,
            "drawnRed": 58,
            "reportedRed": 84,
            "inferredRed": 69,
            "playerTrialScore": -11,
            "oppTrialScore": 11,
            "playerTotalScore": -401,
            "oppTotalScore": 355,
            "waitTime": 6832.78994333051,
            "responseTime": 1682292936880,
            "catchQuestion": "How many <b class=\"r\">red<\/b> marbles did your opponent report drawing? ",
            "catchKey": -1,
            "catchResponse": -1,
            "catchTime": 1682292893439,
            "trialTime": 0
        },
        {
            "exptPart": "trial",
            "trialNumber": 48,
            "roleCurrent": "receiver",
            "marblesSampled": 100,
            "probRed": 0.5,
            "practiceLambda": 5,
            "trialLambda": 8.1,
            "instructedLambda": "dishonest_big",
            "sd": 8.1,
            "drawnRed": 35,
            "reportedRed": 43,
            "inferredRed": 46,
            "playerTrialScore": -11,
            "oppTrialScore": 11,
            "playerTotalScore": -412,
            "oppTotalScore": 366,
            "waitTime": 6463.781470131313,
            "responseTime": 1682292946872,
            "catchQuestion": "How many <b class=\"r\">red<\/b> marbles did your opponent report drawing? ",
            "catchKey": -1,
            "catchResponse": -1,
            "catchTime": 1682292893439,
            "trialTime": 0
        },
        {
            "exptPart": "trial",
            "trialNumber": 49,
            "roleCurrent": "receiver",
            "marblesSampled": 100,
            "probRed": 0.5,
            "practiceLambda": 5,
            "trialLambda": 8.1,
            "instructedLambda": "dishonest_big",
            "sd": 8.1,
            "drawnRed": 23,
            "reportedRed": 17,
            "inferredRed": 26,
            "playerTrialScore": -3,
            "oppTrialScore": 3,
            "playerTotalScore": -415,
            "oppTotalScore": 369,
            "waitTime": 7018.623430328612,
            "responseTime": 1682292958047,
            "catchQuestion": "How many <b class=\"r\">red<\/b> marbles did your opponent report drawing? ",
            "catchKey": -1,
            "catchResponse": -1,
            "catchTime": 1682292893439,
            "trialTime": 0
        },
        {
            "exptPart": "trial",
            "trialNumber": 50,
            "roleCurrent": "receiver",
            "marblesSampled": 100,
            "probRed": 0.5,
            "practiceLambda": 5,
            "trialLambda": 8.1,
            "instructedLambda": "dishonest_big",
            "sd": 8.1,
            "drawnRed": 45,
            "reportedRed": 54,
            "inferredRed": 58,
            "playerTrialScore": -13,
            "oppTrialScore": 13,
            "playerTotalScore": -428,
            "oppTotalScore": 382,
            "waitTime": 7454.188836194148,
            "responseTime": 1682292969864,
            "catchQuestion": "How many <b class=\"r\">red<\/b> marbles did your opponent report drawing? ",
            "catchKey": -1,
            "catchResponse": -1,
            "catchTime": 1682292969864,
            "trialTime": 0
        },
        {
            "exptPart": "trial",
            "trialNumber": 51,
            "roleCurrent": "receiver",
            "marblesSampled": 100,
            "probRed": 0.5,
            "practiceLambda": 5,
            "trialLambda": 8.1,
            "instructedLambda": "dishonest_big",
            "sd": 8.1,
            "drawnRed": 64,
            "reportedRed": 80,
            "inferredRed": 70,
            "playerTrialScore": -6,
            "oppTrialScore": 6,
            "playerTotalScore": -434,
            "oppTotalScore": 388,
            "waitTime": 7154.948554890595,
            "responseTime": 1682292985090,
            "catchQuestion": "How many <b class=\"r\">red<\/b> marbles did your opponent report drawing? ",
            "catchKey": -1,
            "catchResponse": -1,
            "catchTime": 1682292969864,
            "trialTime": 0
        },
        {
            "exptPart": "trial",
            "trialNumber": 52,
            "roleCurrent": "receiver",
            "marblesSampled": 100,
            "probRed": 0.5,
            "practiceLambda": 5,
            "trialLambda": 8.1,
            "instructedLambda": "dishonest_big",
            "sd": 8.1,
            "drawnRed": 26,
            "reportedRed": 37,
            "inferredRed": 42,
            "playerTrialScore": -16,
            "oppTrialScore": 16,
            "playerTotalScore": -450,
            "oppTotalScore": 404,
            "waitTime": 6489.031966179602,
            "responseTime": 1682292995851,
            "catchQuestion": "How many <b class=\"r\">red<\/b> marbles did your opponent report drawing? ",
            "catchKey": -1,
            "catchResponse": -1,
            "catchTime": 1682292969864,
            "trialTime": 0
        },
        {
            "exptPart": "trial",
            "trialNumber": 53,
            "roleCurrent": "receiver",
            "marblesSampled": 100,
            "probRed": 0.5,
            "practiceLambda": 5,
            "trialLambda": 8.1,
            "instructedLambda": "dishonest_big",
            "sd": 8.1,
            "drawnRed": 56,
            "reportedRed": 75,
            "inferredRed": 66,
            "playerTrialScore": -10,
            "oppTrialScore": 10,
            "playerTotalScore": -460,
            "oppTotalScore": 414,
            "waitTime": 5280.861169381384,
            "responseTime": 1682293011495,
            "catchQuestion": "How many <b class=\"r\">red<\/b> marbles did your opponent report drawing? ",
            "catchKey": -1,
            "catchResponse": -1,
            "catchTime": 1682292969864,
            "trialTime": 0
        },
        {
            "exptPart": "trial",
            "trialNumber": 54,
            "roleCurrent": "receiver",
            "marblesSampled": 100,
            "probRed": 0.5,
            "practiceLambda": 5,
            "trialLambda": 8.1,
            "instructedLambda": "dishonest_big",
            "sd": 8.1,
            "drawnRed": 42,
            "reportedRed": 45,
            "inferredRed": 43,
            "playerTrialScore": -1,
            "oppTrialScore": 1,
            "playerTotalScore": -461,
            "oppTotalScore": 415,
            "waitTime": 5198.312715853521,
            "responseTime": 1682293048039,
            "catchQuestion": "How many <b class=\"r\">red<\/b> marbles did your opponent report drawing? ",
            "catchKey": -1,
            "catchResponse": -1,
            "catchTime": 1682292969864,
            "trialTime": 0
        },
        {
            "exptPart": "trial",
            "trialNumber": 55,
            "roleCurrent": "receiver",
            "marblesSampled": 100,
            "probRed": 0.5,
            "practiceLambda": 5,
            "trialLambda": 8.1,
            "instructedLambda": "dishonest_big",
            "sd": 8.1,
            "drawnRed": 75,
            "reportedRed": 73,
            "inferredRed": 73,
            "playerTrialScore": -2,
            "oppTrialScore": 0,
            "playerTotalScore": -463,
            "oppTotalScore": 415,
            "waitTime": 5895.319969975468,
            "responseTime": 1682293057234,
            "catchQuestion": "How many <b class=\"r\">red<\/b> marbles did your opponent report drawing? ",
            "catchKey": -1,
            "catchResponse": -1,
            "catchTime": 1682292969864,
            "trialTime": 0
        },
        {
            "exptPart": "trial",
            "trialNumber": 56,
            "roleCurrent": "receiver",
            "marblesSampled": 100,
            "probRed": 0.5,
            "practiceLambda": 5,
            "trialLambda": 8.1,
            "instructedLambda": "dishonest_big",
            "sd": 8.1,
            "drawnRed": 46,
            "reportedRed": 49,
            "inferredRed": 49,
            "playerTrialScore": -3,
            "oppTrialScore": 3,
            "playerTotalScore": -466,
            "oppTotalScore": 418,
            "waitTime": 6435.856366741471,
            "responseTime": 1682293067111,
            "catchQuestion": "How many <b class=\"r\">red<\/b> marbles did your opponent report drawing? ",
            "catchKey": -1,
            "catchResponse": -1,
            "catchTime": 1682292969864,
            "trialTime": 0
        },
        {
            "exptPart": "trial",
            "trialNumber": 57,
            "roleCurrent": "receiver",
            "marblesSampled": 100,
            "probRed": 0.5,
            "practiceLambda": 5,
            "trialLambda": 8.1,
            "instructedLambda": "dishonest_big",
            "sd": 8.1,
            "drawnRed": 58,
            "reportedRed": 73,
            "inferredRed": 73,
            "playerTrialScore": -15,
            "oppTrialScore": 15,
            "playerTotalScore": -481,
            "oppTotalScore": 433,
            "waitTime": 7063.737623883275,
            "responseTime": 1682293077358,
            "catchQuestion": "How many <b class=\"r\">red<\/b> marbles did your opponent report drawing? ",
            "catchKey": -1,
            "catchResponse": -1,
            "catchTime": 1682292969864,
            "trialTime": 0
        },
        {
            "exptPart": "trial",
            "trialNumber": 58,
            "roleCurrent": "receiver",
            "marblesSampled": 100,
            "probRed": 0.5,
            "practiceLambda": 5,
            "trialLambda": 8.1,
            "instructedLambda": "dishonest_big",
            "sd": 8.1,
            "drawnRed": 23,
            "reportedRed": 30,
            "inferredRed": 30,
            "playerTrialScore": -7,
            "oppTrialScore": 7,
            "playerTotalScore": -488,
            "oppTotalScore": 440,
            "waitTime": 6676.156565562163,
            "responseTime": 1682293088337,
            "catchQuestion": "How many <b class=\"r\">red<\/b> marbles did your opponent report drawing? ",
            "catchKey": -1,
            "catchResponse": -1,
            "catchTime": 1682292969864,
            "trialTime": 0
        },
        {
            "exptPart": "trial",
            "trialNumber": 59,
            "roleCurrent": "receiver",
            "marblesSampled": 100,
            "probRed": 0.5,
            "practiceLambda": 5,
            "trialLambda": 8.1,
            "instructedLambda": "dishonest_big",
            "sd": 8.1,
            "drawnRed": 23,
            "reportedRed": 23,
            "inferredRed": 23,
            "playerTrialScore": 0,
            "oppTrialScore": 0,
            "playerTotalScore": -488,
            "oppTotalScore": 440,
            "waitTime": 5484.651416517501,
            "responseTime": 1682293096621,
            "catchQuestion": "How many <b class=\"r\">red<\/b> marbles did your opponent report drawing? ",
            "catchKey": -1,
            "catchResponse": -1,
            "catchTime": 1682292969864,
            "trialTime": 0
        },
        {
            "exptPart": "trial",
            "trialNumber": 60,
            "roleCurrent": "receiver",
            "marblesSampled": 100,
            "probRed": 0.5,
            "practiceLambda": 5,
            "trialLambda": 8.1,
            "instructedLambda": "dishonest_big",
            "sd": 8.1,
            "drawnRed": 49,
            "reportedRed": 50,
            "inferredRed": 50,
            "playerTrialScore": -1,
            "oppTrialScore": 1,
            "playerTotalScore": -489,
            "oppTotalScore": 441,
            "waitTime": 7082.066010907452,
            "responseTime": 1682293106677,
            "catchQuestion": "How many <b class=\"r\">red<\/b> marbles did your opponent report drawing? ",
            "catchKey": -1,
            "catchResponse": -1,
            "catchTime": 1682293106677,
            "trialTime": 0
        },
        {
            "exptPart": "trial",
            "trialNumber": 61,
            "roleCurrent": "receiver",
            "marblesSampled": 100,
            "probRed": 0.5,
            "practiceLambda": 5,
            "trialLambda": 8.1,
            "instructedLambda": "dishonest_big",
            "sd": 8.1,
            "drawnRed": 51,
            "reportedRed": 38,
            "inferredRed": 38,
            "playerTrialScore": -13,
            "oppTrialScore": 0,
            "playerTotalScore": -502,
            "oppTotalScore": 441,
            "waitTime": 5678.052223038041,
            "responseTime": 1682293124437,
            "catchQuestion": "How many <b class=\"r\">red<\/b> marbles did your opponent report drawing? ",
            "catchKey": 38,
            "catchResponse": 38,
            "catchTime": 1682293124437,
            "trialTime": 0
        },
        {
            "exptPart": "trial",
            "trialNumber": 62,
            "roleCurrent": "receiver",
            "marblesSampled": 100,
            "probRed": 0.5,
            "practiceLambda": 5,
            "trialLambda": 8.1,
            "instructedLambda": "dishonest_big",
            "sd": 8.1,
            "drawnRed": 89,
            "reportedRed": 97,
            "inferredRed": 97,
            "playerTrialScore": -8,
            "oppTrialScore": 8,
            "playerTotalScore": -510,
            "oppTotalScore": 449,
            "waitTime": 5758.681274280903,
            "responseTime": 1682293137759,
            "catchQuestion": "How many <b class=\"r\">red<\/b> marbles did your opponent report drawing? ",
            "catchKey": -1,
            "catchResponse": -1,
            "catchTime": 1682293124437,
            "trialTime": 0
        },
        {
            "exptPart": "trial",
            "trialNumber": 63,
            "roleCurrent": "receiver",
            "marblesSampled": 100,
            "probRed": 0.5,
            "practiceLambda": 5,
            "trialLambda": 8.1,
            "instructedLambda": "dishonest_big",
            "sd": 8.1,
            "drawnRed": 70,
            "reportedRed": 82,
            "inferredRed": 82,
            "playerTrialScore": -12,
            "oppTrialScore": 12,
            "playerTotalScore": -522,
            "oppTotalScore": 461,
            "waitTime": 5969.835380311553,
            "responseTime": 1682293146934,
            "catchQuestion": "How many <b class=\"r\">red<\/b> marbles did your opponent report drawing? ",
            "catchKey": -1,
            "catchResponse": -1,
            "catchTime": 1682293124437,
            "trialTime": 0
        },
        {
            "exptPart": "trial",
            "trialNumber": 64,
            "roleCurrent": "receiver",
            "marblesSampled": 100,
            "probRed": 0.5,
            "practiceLambda": 5,
            "trialLambda": 8.1,
            "instructedLambda": "dishonest_big",
            "sd": 8.1,
            "drawnRed": 86,
            "reportedRed": 95,
            "inferredRed": 95,
            "playerTrialScore": -9,
            "oppTrialScore": 9,
            "playerTotalScore": -531,
            "oppTotalScore": 470,
            "waitTime": 7398.99392235097,
            "responseTime": 1682293157839,
            "catchQuestion": "How many <b class=\"r\">red<\/b> marbles did your opponent report drawing? ",
            "catchKey": -1,
            "catchResponse": -1,
            "catchTime": 1682293124437,
            "trialTime": 0
        },
        {
            "exptPart": "trial",
            "trialNumber": 65,
            "roleCurrent": "receiver",
            "marblesSampled": 100,
            "probRed": 0.5,
            "practiceLambda": 5,
            "trialLambda": 8.1,
            "instructedLambda": "dishonest_big",
            "sd": 8.1,
            "drawnRed": 17,
            "reportedRed": 17,
            "inferredRed": 17,
            "playerTrialScore": 0,
            "oppTrialScore": 0,
            "playerTotalScore": -531,
            "oppTotalScore": 470,
            "waitTime": 5390.6033692629235,
            "responseTime": 1682293165857,
            "catchQuestion": "How many <b class=\"r\">red<\/b> marbles did your opponent report drawing? ",
            "catchKey": -1,
            "catchResponse": -1,
            "catchTime": 1682293124437,
            "trialTime": 0
        },
        {
            "exptPart": "trial",
            "trialNumber": 66,
            "roleCurrent": "receiver",
            "marblesSampled": 100,
            "probRed": 0.5,
            "practiceLambda": 5,
            "trialLambda": 8.1,
            "instructedLambda": "dishonest_big",
            "sd": 8.1,
            "drawnRed": 48,
            "reportedRed": 47,
            "inferredRed": 47,
            "playerTrialScore": -1,
            "oppTrialScore": 0,
            "playerTotalScore": -532,
            "oppTotalScore": 470,
            "waitTime": 6506.136199264893,
            "responseTime": 1682293175467,
            "catchQuestion": "How many <b class=\"r\">red<\/b> marbles did your opponent report drawing? ",
            "catchKey": -1,
            "catchResponse": -1,
            "catchTime": 1682293124437,
            "trialTime": 0
        },
        {
            "exptPart": "trial",
            "trialNumber": 67,
            "roleCurrent": "receiver",
            "marblesSampled": 100,
            "probRed": 0.5,
            "practiceLambda": 5,
            "trialLambda": 8.1,
            "instructedLambda": "dishonest_big",
            "sd": 8.1,
            "drawnRed": 23,
            "reportedRed": 17,
            "inferredRed": 17,
            "playerTrialScore": -6,
            "oppTrialScore": 0,
            "playerTotalScore": -538,
            "oppTotalScore": 470,
            "waitTime": 7323.561744805289,
            "responseTime": 1682293186866,
            "catchQuestion": "How many <b class=\"r\">red<\/b> marbles did your opponent report drawing? ",
            "catchKey": -1,
            "catchResponse": -1,
            "catchTime": 1682293124437,
            "trialTime": 0
        },
        {
            "exptPart": "trial",
            "trialNumber": 68,
            "roleCurrent": "receiver",
            "marblesSampled": 100,
            "probRed": 0.5,
            "practiceLambda": 5,
            "trialLambda": 8.1,
            "instructedLambda": "dishonest_big",
            "sd": 8.1,
            "drawnRed": 40,
            "reportedRed": 37,
            "inferredRed": 37,
            "playerTrialScore": -3,
            "oppTrialScore": 0,
            "playerTotalScore": -541,
            "oppTotalScore": 470,
            "waitTime": 6781.309594958612,
            "responseTime": 1682293196571,
            "catchQuestion": "How many <b class=\"r\">red<\/b> marbles did your opponent report drawing? ",
            "catchKey": -1,
            "catchResponse": -1,
            "catchTime": 1682293124437,
            "trialTime": 0
        },
        {
            "exptPart": "trial",
            "trialNumber": 69,
            "roleCurrent": "receiver",
            "marblesSampled": 100,
            "probRed": 0.5,
            "practiceLambda": 5,
            "trialLambda": 8.1,
            "instructedLambda": "dishonest_big",
            "sd": 8.1,
            "drawnRed": 4,
            "reportedRed": 14,
            "inferredRed": 14,
            "playerTrialScore": -10,
            "oppTrialScore": 10,
            "playerTotalScore": -551,
            "oppTotalScore": 480,
            "waitTime": 5596.698023722057,
            "responseTime": 1682293205258,
            "catchQuestion": "How many <b class=\"r\">red<\/b> marbles did your opponent report drawing? ",
            "catchKey": -1,
            "catchResponse": -1,
            "catchTime": 1682293124437,
            "trialTime": 0
        },
        {
            "exptPart": "trial",
            "trialNumber": 70,
            "roleCurrent": "receiver",
            "marblesSampled": 100,
            "probRed": 0.5,
            "practiceLambda": 5,
            "trialLambda": 8.1,
            "instructedLambda": "dishonest_big",
            "sd": 8.1,
            "drawnRed": 51,
            "reportedRed": 61,
            "inferredRed": 61,
            "playerTrialScore": -10,
            "oppTrialScore": 10,
            "playerTotalScore": -561,
            "oppTotalScore": 490,
            "waitTime": 6488.311932893355,
            "responseTime": 1682293216028,
            "catchQuestion": "How many <b class=\"r\">red<\/b> marbles did your opponent report drawing? ",
            "catchKey": 61,
            "catchResponse": 61,
            "catchTime": 1682293216028,
            "trialTime": 0
        },
        {
            "exptPart": "trial",
            "trialNumber": 71,
            "roleCurrent": "receiver",
            "marblesSampled": 100,
            "probRed": 0.5,
            "practiceLambda": 5,
            "trialLambda": 8.1,
            "instructedLambda": "dishonest_big",
            "sd": 8.1,
            "drawnRed": 41,
            "reportedRed": 58,
            "inferredRed": 60,
            "playerTrialScore": -19,
            "oppTrialScore": 19,
            "playerTotalScore": -580,
            "oppTotalScore": 509,
            "waitTime": 6270.809863592433,
            "responseTime": 1682293241437,
            "catchQuestion": "How many <b class=\"r\">red<\/b> marbles did your opponent report drawing? ",
            "catchKey": -1,
            "catchResponse": -1,
            "catchTime": 1682293216028,
            "trialTime": 0
        },
        {
            "exptPart": "trial",
            "trialNumber": 72,
            "roleCurrent": "receiver",
            "marblesSampled": 100,
            "probRed": 0.5,
            "practiceLambda": 5,
            "trialLambda": 8.1,
            "instructedLambda": "dishonest_big",
            "sd": 8.1,
            "drawnRed": 59,
            "reportedRed": 79,
            "inferredRed": 81,
            "playerTrialScore": -22,
            "oppTrialScore": 22,
            "playerTotalScore": -602,
            "oppTotalScore": 531,
            "waitTime": 6965.941201344365,
            "responseTime": 1682293252310,
            "catchQuestion": "How many <b class=\"r\">red<\/b> marbles did your opponent report drawing? ",
            "catchKey": -1,
            "catchResponse": -1,
            "catchTime": 1682293216028,
            "trialTime": 0
        },
        {
            "exptPart": "trial",
            "trialNumber": 73,
            "roleCurrent": "receiver",
            "marblesSampled": 100,
            "probRed": 0.5,
            "practiceLambda": 5,
            "trialLambda": 8.1,
            "instructedLambda": "dishonest_big",
            "sd": 8.1,
            "drawnRed": 11,
            "reportedRed": 18,
            "inferredRed": 23,
            "playerTrialScore": -12,
            "oppTrialScore": 12,
            "playerTotalScore": -614,
            "oppTotalScore": 543,
            "waitTime": 6092.135805883536,
            "responseTime": 1682293262229,
            "catchQuestion": "How many <b class=\"r\">red<\/b> marbles did your opponent report drawing? ",
            "catchKey": -1,
            "catchResponse": -1,
            "catchTime": 1682293216028,
            "trialTime": 0
        },
        {
            "exptPart": "trial",
            "trialNumber": 74,
            "roleCurrent": "receiver",
            "marblesSampled": 100,
            "probRed": 0.5,
            "practiceLambda": 5,
            "trialLambda": 8.1,
            "instructedLambda": "dishonest_big",
            "sd": 8.1,
            "drawnRed": 29,
            "reportedRed": 34,
            "inferredRed": 35,
            "playerTrialScore": -6,
            "oppTrialScore": 6,
            "playerTotalScore": -620,
            "oppTotalScore": 549,
            "waitTime": 5611.443512987753,
            "responseTime": 1682293271328,
            "catchQuestion": "How many <b class=\"r\">red<\/b> marbles did your opponent report drawing? ",
            "catchKey": -1,
            "catchResponse": -1,
            "catchTime": 1682293216028,
            "trialTime": 0
        },
        {
            "exptPart": "trial",
            "trialNumber": 75,
            "roleCurrent": "receiver",
            "marblesSampled": 100,
            "probRed": 0.5,
            "practiceLambda": 5,
            "trialLambda": 8.1,
            "instructedLambda": "dishonest_big",
            "sd": 8.1,
            "drawnRed": 36,
            "reportedRed": 34,
            "inferredRed": 37,
            "playerTrialScore": -1,
            "oppTrialScore": 1,
            "playerTotalScore": -621,
            "oppTotalScore": 550,
            "waitTime": 5142.433534642023,
            "responseTime": 1682293280562,
            "catchQuestion": "How many <b class=\"r\">red<\/b> marbles did your opponent report drawing? ",
            "catchKey": 34,
            "catchResponse": 34,
            "catchTime": 1682293280562,
            "trialTime": 0
        },
        {
            "exptPart": "trial",
            "trialNumber": 76,
            "roleCurrent": "receiver",
            "marblesSampled": 100,
            "probRed": 0.5,
            "practiceLambda": 5,
            "trialLambda": 8.1,
            "instructedLambda": "dishonest_big",
            "sd": 8.1,
            "drawnRed": 38,
            "reportedRed": 49,
            "inferredRed": 55,
            "playerTrialScore": -17,
            "oppTrialScore": 17,
            "playerTotalScore": -638,
            "oppTotalScore": 567,
            "waitTime": 7057.241361547181,
            "responseTime": 1682293308892,
            "catchQuestion": "How many <b class=\"r\">red<\/b> marbles did your opponent report drawing? ",
            "catchKey": 49,
            "catchResponse": 49,
            "catchTime": 1682293308892,
            "trialTime": 0
        },
        {
            "exptPart": "trial",
            "trialNumber": 77,
            "roleCurrent": "receiver",
            "marblesSampled": 100,
            "probRed": 0.5,
            "practiceLambda": 5,
            "trialLambda": 8.1,
            "instructedLambda": "dishonest_big",
            "sd": 8.1,
            "drawnRed": 57,
            "reportedRed": 66,
            "inferredRed": 73,
            "playerTrialScore": -16,
            "oppTrialScore": 16,
            "playerTotalScore": -654,
            "oppTotalScore": 583,
            "waitTime": 5155.684402832299,
            "responseTime": 1682293322364,
            "catchQuestion": "How many <b class=\"r\">red<\/b> marbles did your opponent report drawing? ",
            "catchKey": -1,
            "catchResponse": -1,
            "catchTime": 1682293308892,
            "trialTime": 0
        },
        {
            "exptPart": "trial",
            "trialNumber": 78,
            "roleCurrent": "receiver",
            "marblesSampled": 100,
            "probRed": 0.5,
            "practiceLambda": 5,
            "trialLambda": 8.1,
            "instructedLambda": "dishonest_big",
            "sd": 8.1,
            "drawnRed": 60,
            "reportedRed": 69,
            "inferredRed": 74,
            "playerTrialScore": -14,
            "oppTrialScore": 14,
            "playerTotalScore": -668,
            "oppTotalScore": 597,
            "waitTime": 7371.399305701761,
            "responseTime": 1682293334704,
            "catchQuestion": "How many <b class=\"r\">red<\/b> marbles did your opponent report drawing? ",
            "catchKey": -1,
            "catchResponse": -1,
            "catchTime": 1682293308892,
            "trialTime": 0
        },
        {
            "exptPart": "trial",
            "trialNumber": 79,
            "roleCurrent": "receiver",
            "marblesSampled": 100,
            "probRed": 0.5,
            "practiceLambda": 5,
            "trialLambda": 8.1,
            "instructedLambda": "dishonest_big",
            "sd": 8.1,
            "drawnRed": 43,
            "reportedRed": 52,
            "inferredRed": 56,
            "playerTrialScore": -13,
            "oppTrialScore": 13,
            "playerTotalScore": -681,
            "oppTotalScore": 610,
            "waitTime": 6482.3050295797675,
            "responseTime": 1682293345333,
            "catchQuestion": "How many <b class=\"r\">red<\/b> marbles did your opponent report drawing? ",
            "catchKey": -1,
            "catchResponse": -1,
            "catchTime": 1682293308892,
            "trialTime": 0
        },
        {
            "exptPart": "trial",
            "trialNumber": 80,
            "roleCurrent": "receiver",
            "marblesSampled": 100,
            "probRed": 0.5,
            "practiceLambda": 5,
            "trialLambda": 8.1,
            "instructedLambda": "dishonest_big",
            "sd": 8.1,
            "drawnRed": 42,
            "reportedRed": 53,
            "inferredRed": 57,
            "playerTrialScore": -15,
            "oppTrialScore": 15,
            "playerTotalScore": -696,
            "oppTotalScore": 625,
            "waitTime": 7093.809376453191,
            "responseTime": 1682293356224,
            "catchQuestion": "How many <b class=\"r\">red<\/b> marbles did your opponent report drawing? ",
            "catchKey": 53,
            "catchResponse": 53,
            "catchTime": 1682293356224,
            "trialTime": 0
        },
        {
            "exptPart": "trial",
            "trialNumber": 81,
            "roleCurrent": "receiver",
            "marblesSampled": 100,
            "probRed": 0.5,
            "practiceLambda": 5,
            "trialLambda": 8.1,
            "instructedLambda": "dishonest_big",
            "sd": 8.1,
            "drawnRed": 55,
            "reportedRed": 72,
            "inferredRed": 73,
            "playerTrialScore": -18,
            "oppTrialScore": 18,
            "playerTotalScore": -714,
            "oppTotalScore": 643,
            "waitTime": 6493.82953310933,
            "responseTime": 1682293377298,
            "catchQuestion": "How many <b class=\"r\">red<\/b> marbles did your opponent report drawing? ",
            "catchKey": -1,
            "catchResponse": -1,
            "catchTime": 1682293356224,
            "trialTime": 0
        },
        {
            "exptPart": "trial",
            "trialNumber": 82,
            "roleCurrent": "receiver",
            "marblesSampled": 100,
            "probRed": 0.5,
            "practiceLambda": 5,
            "trialLambda": 8.1,
            "instructedLambda": "dishonest_big",
            "sd": 8.1,
            "drawnRed": 52,
            "reportedRed": 77,
            "inferredRed": 80,
            "playerTrialScore": -28,
            "oppTrialScore": 28,
            "playerTotalScore": -742,
            "oppTotalScore": 671,
            "waitTime": 6711.308410946155,
            "responseTime": 1682293387231,
            "catchQuestion": "How many <b class=\"r\">red<\/b> marbles did your opponent report drawing? ",
            "catchKey": -1,
            "catchResponse": -1,
            "catchTime": 1682293356224,
            "trialTime": 0
        },
        {
            "exptPart": "trial",
            "trialNumber": 83,
            "roleCurrent": "receiver",
            "marblesSampled": 100,
            "probRed": 0.5,
            "practiceLambda": 5,
            "trialLambda": 8.1,
            "instructedLambda": "dishonest_big",
            "sd": 8.1,
            "drawnRed": 38,
            "reportedRed": 41,
            "inferredRed": 45,
            "playerTrialScore": -7,
            "oppTrialScore": 7,
            "playerTotalScore": -749,
            "oppTotalScore": 678,
            "waitTime": 5269.804765387624,
            "responseTime": 1682293395816,
            "catchQuestion": "How many <b class=\"r\">red<\/b> marbles did your opponent report drawing? ",
            "catchKey": -1,
            "catchResponse": -1,
            "catchTime": 1682293356224,
            "trialTime": 0
        },
        {
            "exptPart": "trial",
            "trialNumber": 84,
            "roleCurrent": "receiver",
            "marblesSampled": 100,
            "probRed": 0.5,
            "practiceLambda": 5,
            "trialLambda": 8.1,
            "instructedLambda": "dishonest_big",
            "sd": 8.1,
            "drawnRed": 63,
            "reportedRed": 76,
            "inferredRed": 82,
            "playerTrialScore": -19,
            "oppTrialScore": 19,
            "playerTotalScore": -768,
            "oppTotalScore": 697,
            "waitTime": 7265.2138286840245,
            "responseTime": 1682293406672,
            "catchQuestion": "How many <b class=\"r\">red<\/b> marbles did your opponent report drawing? ",
            "catchKey": -1,
            "catchResponse": -1,
            "catchTime": 1682293356224,
            "trialTime": 0
        },
        {
            "exptPart": "trial",
            "trialNumber": 85,
            "roleCurrent": "receiver",
            "marblesSampled": 100,
            "probRed": 0.5,
            "practiceLambda": 5,
            "trialLambda": 8.1,
            "instructedLambda": "dishonest_big",
            "sd": 8.1,
            "drawnRed": 71,
            "reportedRed": 79,
            "inferredRed": 79,
            "playerTrialScore": -8,
            "oppTrialScore": 8,
            "playerTotalScore": -776,
            "oppTotalScore": 705,
            "waitTime": 6343.678954551193,
            "responseTime": 1682293416664,
            "catchQuestion": "How many <b class=\"r\">red<\/b> marbles did your opponent report drawing? ",
            "catchKey": -1,
            "catchResponse": -1,
            "catchTime": 1682293356224,
            "trialTime": 0
        },
        {
            "exptPart": "trial",
            "trialNumber": 86,
            "roleCurrent": "receiver",
            "marblesSampled": 100,
            "probRed": 0.5,
            "practiceLambda": 5,
            "trialLambda": 8.1,
            "instructedLambda": "dishonest_big",
            "sd": 8.1,
            "drawnRed": 69,
            "reportedRed": 80,
            "inferredRed": 84,
            "playerTrialScore": -15,
            "oppTrialScore": 15,
            "playerTotalScore": -791,
            "oppTotalScore": 720,
            "waitTime": 6402.65959945603,
            "responseTime": 1682293427061,
            "catchQuestion": "How many <b class=\"r\">red<\/b> marbles did your opponent report drawing? ",
            "catchKey": -1,
            "catchResponse": -1,
            "catchTime": 1682293356224,
            "trialTime": 0
        },
        {
            "exptPart": "trial",
            "trialNumber": 87,
            "roleCurrent": "receiver",
            "marblesSampled": 100,
            "probRed": 0.5,
            "practiceLambda": 5,
            "trialLambda": 8.1,
            "instructedLambda": "dishonest_big",
            "sd": 8.1,
            "drawnRed": 23,
            "reportedRed": 46,
            "inferredRed": 50,
            "playerTrialScore": -27,
            "oppTrialScore": 27,
            "playerTotalScore": -818,
            "oppTotalScore": 747,
            "waitTime": 5711.159465617864,
            "responseTime": 1682293436782,
            "catchQuestion": "How many <b class=\"r\">red<\/b> marbles did your opponent report drawing? ",
            "catchKey": -1,
            "catchResponse": -1,
            "catchTime": 1682293356224,
            "trialTime": 0
        },
        {
            "exptPart": "trial",
            "trialNumber": 88,
            "roleCurrent": "receiver",
            "marblesSampled": 100,
            "probRed": 0.5,
            "practiceLambda": 5,
            "trialLambda": 8.1,
            "instructedLambda": "dishonest_big",
            "sd": 8.1,
            "drawnRed": 57,
            "reportedRed": 56,
            "inferredRed": 67,
            "playerTrialScore": -10,
            "oppTrialScore": 10,
            "playerTotalScore": -828,
            "oppTotalScore": 757,
            "waitTime": 6276.820757742458,
            "responseTime": 1682293447707,
            "catchQuestion": "How many <b class=\"r\">red<\/b> marbles did your opponent report drawing? ",
            "catchKey": 56,
            "catchResponse": 56,
            "catchTime": 1682293447707,
            "trialTime": 0
        },
        {
            "exptPart": "trial",
            "trialNumber": 89,
            "roleCurrent": "receiver",
            "marblesSampled": 100,
            "probRed": 0.5,
            "practiceLambda": 5,
            "trialLambda": 8.1,
            "instructedLambda": "dishonest_big",
            "sd": 8.1,
            "drawnRed": 18,
            "reportedRed": 35,
            "inferredRed": 42,
            "playerTrialScore": -24,
            "oppTrialScore": 24,
            "playerTotalScore": -852,
            "oppTotalScore": 781,
            "waitTime": 5752.681177605506,
            "responseTime": 1682293460777,
            "catchQuestion": "How many <b class=\"r\">red<\/b> marbles did your opponent report drawing? ",
            "catchKey": -1,
            "catchResponse": -1,
            "catchTime": 1682293447707,
            "trialTime": 0
        },
        {
            "exptPart": "trial",
            "trialNumber": 90,
            "roleCurrent": "receiver",
            "marblesSampled": 100,
            "probRed": 0.5,
            "practiceLambda": 5,
            "trialLambda": 8.1,
            "instructedLambda": "dishonest_big",
            "sd": 8.1,
            "drawnRed": 44,
            "reportedRed": 49,
            "inferredRed": 53,
            "playerTrialScore": -9,
            "oppTrialScore": 9,
            "playerTotalScore": -861,
            "oppTotalScore": 790,
            "waitTime": 6212.73996694824,
            "responseTime": 1682293475862,
            "catchQuestion": "How many <b class=\"r\">red<\/b> marbles did your opponent report drawing? ",
            "catchKey": -1,
            "catchResponse": -1,
            "catchTime": 1682293475862,
            "trialTime": 0
        },
        {
            "exptPart": "trial",
            "trialNumber": 91,
            "roleCurrent": "receiver",
            "marblesSampled": 100,
            "probRed": 0.5,
            "practiceLambda": 5,
            "trialLambda": 8.1,
            "instructedLambda": "dishonest_big",
            "sd": 8.1,
            "drawnRed": 43,
            "reportedRed": 56,
            "inferredRed": 58,
            "playerTrialScore": -15,
            "oppTrialScore": 15,
            "playerTotalScore": -876,
            "oppTotalScore": 805,
            "waitTime": 5371.766973322359,
            "responseTime": 1682293490514,
            "catchQuestion": "How many <b class=\"r\">red<\/b> marbles did your opponent report drawing? ",
            "catchKey": -1,
            "catchResponse": -1,
            "catchTime": 1682293475862,
            "trialTime": 0
        },
        {
            "exptPart": "trial",
            "trialNumber": 92,
            "roleCurrent": "receiver",
            "marblesSampled": 100,
            "probRed": 0.5,
            "practiceLambda": 5,
            "trialLambda": 8.1,
            "instructedLambda": "dishonest_big",
            "sd": 8.1,
            "drawnRed": 47,
            "reportedRed": 46,
            "inferredRed": 48,
            "playerTrialScore": -1,
            "oppTrialScore": 1,
            "playerTotalScore": -877,
            "oppTotalScore": 806,
            "waitTime": 5372.408768552958,
            "responseTime": 1682293499567,
            "catchQuestion": "How many <b class=\"r\">red<\/b> marbles did your opponent report drawing? ",
            "catchKey": -1,
            "catchResponse": -1,
            "catchTime": 1682293475862,
            "trialTime": 0
        },
        {
            "exptPart": "trial",
            "trialNumber": 93,
            "roleCurrent": "receiver",
            "marblesSampled": 100,
            "probRed": 0.5,
            "practiceLambda": 5,
            "trialLambda": 8.1,
            "instructedLambda": "dishonest_big",
            "sd": 8.1,
            "drawnRed": 46,
            "reportedRed": 50,
            "inferredRed": 50,
            "playerTrialScore": -4,
            "oppTrialScore": 4,
            "playerTotalScore": -881,
            "oppTotalScore": 810,
            "waitTime": 6537.516762943142,
            "responseTime": 1682293511172,
            "catchQuestion": "How many <b class=\"r\">red<\/b> marbles did your opponent report drawing? ",
            "catchKey": -1,
            "catchResponse": -1,
            "catchTime": 1682293475862,
            "trialTime": 0
        },
        {
            "exptPart": "trial",
            "trialNumber": 94,
            "roleCurrent": "receiver",
            "marblesSampled": 100,
            "probRed": 0.5,
            "practiceLambda": 5,
            "trialLambda": 8.1,
            "instructedLambda": "dishonest_big",
            "sd": 8.1,
            "drawnRed": 62,
            "reportedRed": 74,
            "inferredRed": 78,
            "playerTrialScore": -16,
            "oppTrialScore": 16,
            "playerTotalScore": -897,
            "oppTotalScore": 826,
            "waitTime": 6665.741364547948,
            "responseTime": 1682293522327,
            "catchQuestion": "How many <b class=\"r\">red<\/b> marbles did your opponent report drawing? ",
            "catchKey": -1,
            "catchResponse": -1,
            "catchTime": 1682293475862,
            "trialTime": 0
        },
        {
            "exptPart": "trial",
            "trialNumber": 95,
            "roleCurrent": "receiver",
            "marblesSampled": 100,
            "probRed": 0.5,
            "practiceLambda": 5,
            "trialLambda": 8.1,
            "instructedLambda": "dishonest_big",
            "sd": 8.1,
            "drawnRed": 24,
            "reportedRed": 31,
            "inferredRed": 35,
            "playerTrialScore": -11,
            "oppTrialScore": 11,
            "playerTotalScore": -908,
            "oppTotalScore": 837,
            "waitTime": 6001.880966902651,
            "responseTime": 1682293531422,
            "catchQuestion": "How many <b class=\"r\">red<\/b> marbles did your opponent report drawing? ",
            "catchKey": -1,
            "catchResponse": -1,
            "catchTime": 1682293475862,
            "trialTime": 0
        },
        {
            "exptPart": "trial",
            "trialNumber": 96,
            "roleCurrent": "receiver",
            "marblesSampled": 100,
            "probRed": 0.5,
            "practiceLambda": 5,
            "trialLambda": 8.1,
            "instructedLambda": "dishonest_big",
            "sd": 8.1,
            "drawnRed": 80,
            "reportedRed": 88,
            "inferredRed": 87,
            "playerTrialScore": -7,
            "oppTrialScore": 7,
            "playerTotalScore": -915,
            "oppTotalScore": 844,
            "waitTime": 6099.892593615612,
            "responseTime": 1682293541759,
            "catchQuestion": "How many <b class=\"r\">red<\/b> marbles did your opponent report drawing? ",
            "catchKey": -1,
            "catchResponse": -1,
            "catchTime": 1682293475862,
            "trialTime": 0
        },
        {
            "exptPart": "trial",
            "trialNumber": 97,
            "roleCurrent": "receiver",
            "marblesSampled": 100,
            "probRed": 0.5,
            "practiceLambda": 5,
            "trialLambda": 8.1,
            "instructedLambda": "dishonest_big",
            "sd": 8.1,
            "drawnRed": 60,
            "reportedRed": 64,
            "inferredRed": 64,
            "playerTrialScore": -4,
            "oppTrialScore": 4,
            "playerTotalScore": -919,
            "oppTotalScore": 848,
            "waitTime": 5272.401167838324,
            "responseTime": 1682293551957,
            "catchQuestion": "How many <b class=\"r\">red<\/b> marbles did your opponent report drawing? ",
            "catchKey": 64,
            "catchResponse": 64,
            "catchTime": 1682293551957,
            "trialTime": 0
        },
        {
            "exptPart": "trial",
            "trialNumber": 98,
            "roleCurrent": "receiver",
            "marblesSampled": 100,
            "probRed": 0.5,
            "practiceLambda": 5,
            "trialLambda": 8.1,
            "instructedLambda": "dishonest_big",
            "sd": 8.1,
            "drawnRed": 76,
            "reportedRed": 72,
            "inferredRed": 72,
            "playerTrialScore": -4,
            "oppTrialScore": 0,
            "playerTotalScore": -923,
            "oppTotalScore": 848,
            "waitTime": 6110.5350184089275,
            "responseTime": 1682293567213,
            "catchQuestion": "How many <b class=\"r\">red<\/b> marbles did your opponent report drawing? ",
            "catchKey": -1,
            "catchResponse": -1,
            "catchTime": 1682293551957,
            "trialTime": 0
        },
        {
            "exptPart": "trial",
            "trialNumber": 99,
            "roleCurrent": "receiver",
            "marblesSampled": 100,
            "probRed": 0.5,
            "practiceLambda": 5,
            "trialLambda": 8.1,
            "instructedLambda": "dishonest_big",
            "sd": 8.1,
            "drawnRed": 34,
            "reportedRed": 44,
            "inferredRed": 44,
            "playerTrialScore": -10,
            "oppTrialScore": 10,
            "playerTotalScore": -933,
            "oppTotalScore": 858,
            "waitTime": 7364.643486426107,
            "responseTime": 1682293578073,
            "catchQuestion": "How many <b class=\"r\">red<\/b> marbles did your opponent report drawing? ",
            "catchKey": -1,
            "catchResponse": -1,
            "catchTime": 1682293551957,
            "trialTime": 0
        },
        {
            "exptPart": "trial",
            "trialNumber": 100,
            "roleCurrent": "receiver",
            "marblesSampled": 100,
            "probRed": 0.5,
            "practiceLambda": 5,
            "trialLambda": 8.1,
            "instructedLambda": "dishonest_big",
            "sd": 8.1,
            "drawnRed": 33,
            "reportedRed": 37,
            "inferredRed": 37,
            "playerTrialScore": -4,
            "oppTrialScore": 4,
            "playerTotalScore": -937,
            "oppTotalScore": 862,
            "waitTime": 5652.791173269201,
            "responseTime": 1682293587437,
            "catchQuestion": "How many <b class=\"r\">red<\/b> marbles did your opponent report drawing? ",
            "catchKey": -1,
            "catchResponse": -1,
            "catchTime": 1682293587437,
            "trialTime": 0
        }
    ]
}