{
    "client": {
        "type": "sona",
        "experiment_id": 2228,
        "credit_token": "b315147ae43241ea9c65086cb510cfb7",
        "survey_code": "33504",
        "sid": "sona-33504",
        "window": {
            "width": 1440,
            "height": 735
        },
        "screen": {
            "width": 1440,
            "height": 900
        },
        "userAgent": "Mozilla\/5.0 (Macintosh; Intel Mac OS X 10_15_7) AppleWebKit\/537.36 (KHTML, like Gecko) Chrome\/112.0.0.0 Safari\/537.36",
        "score": 0,
        "bonus": 0
    },
    "expt": {
        "saveURL": "submit.simple.php",
        "trials": 100,
        "practiceTrials": 2,
        "marblesSampled": 100,
        "probRed": 0.5,
        "practiceLambdaAI": 5,
        "lambdaAI": 0.3,
        "sd": 8.1,
        "roles": [
            "sender",
            "receiver"
        ],
        "cost": "unif",
        "goal": "over",
        "oppDishonesty": "dishonest_small",
        "catchTrials": [
            48,
            65,
            12,
            96,
            36,
            74,
            5,
            8,
            86,
            14
        ],
        "scoreTotal": {
            "player": -2270,
            "opp": 133
        },
        "sona": {
            "experiment_id": 2228,
            "credit_token": "b315147ae43241ea9c65086cb510cfb7"
        },
        "pilot": false,
        "debug": false
    },
    "trials": [
        {
            "exptPart": "practice",
            "trialNumber": 1,
            "roleCurrent": "sender",
            "marblesSampled": 100,
            "probRed": 0.5,
            "practiceLambda": 5,
            "trialLambda": 0.3,
            "instructedLambda": "dishonest_small",
            "sd": 8.1,
            "drawnRed": 53,
            "reportedRed": 53,
            "inferredRed": 47,
            "playerTrialScore": 0,
            "oppTrialScore": -6,
            "playerTotalScore": 0,
            "oppTotalScore": -6,
            "waitTime": 2367.1996407617435,
            "responseTime": 1682385183930,
            "catchQuestion": "How many <b class=\"r\">red<\/b> marbles did you actually draw (before any changes)? ",
            "catchKey": 53,
            "catchResponse": 20,
            "catchTime": 1682385183931,
            "trialTime": 0
        },
        {
            "exptPart": "practice",
            "trialNumber": 2,
            "roleCurrent": "receiver",
            "marblesSampled": 100,
            "probRed": 0.5,
            "practiceLambda": 5,
            "trialLambda": 0.3,
            "instructedLambda": "dishonest_small",
            "sd": 8.1,
            "drawnRed": 24,
            "reportedRed": 43,
            "inferredRed": 40,
            "playerTrialScore": -16,
            "oppTrialScore": 16,
            "playerTotalScore": -16,
            "oppTotalScore": 10,
            "waitTime": 6820.350881068951,
            "responseTime": 1682385207146,
            "catchQuestion": "How many <b class=\"r\">red<\/b> marbles did your opponent report drawing? ",
            "catchKey": 43,
            "catchResponse": 43,
            "catchTime": 1682385207146,
            "trialTime": 0
        },
        {
            "exptPart": "trial",
            "trialNumber": 1,
            "roleCurrent": "receiver",
            "marblesSampled": 100,
            "probRed": 0.5,
            "practiceLambda": 5,
            "trialLambda": 0.3,
            "instructedLambda": "dishonest_small",
            "sd": 8.1,
            "drawnRed": 81,
            "reportedRed": 64,
            "inferredRed": 60,
            "playerTrialScore": -21,
            "oppTrialScore": 0,
            "playerTotalScore": -21,
            "oppTotalScore": 0,
            "waitTime": 6000.307293243243,
            "responseTime": 1682385225109,
            "catchQuestion": "How many <b class=\"r\">red<\/b> marbles did your opponent report drawing? ",
            "catchKey": -1,
            "catchResponse": -1,
            "catchTime": 1682385207146,
            "trialTime": 0
        },
        {
            "exptPart": "trial",
            "trialNumber": 2,
            "roleCurrent": "receiver",
            "marblesSampled": 100,
            "probRed": 0.5,
            "practiceLambda": 5,
            "trialLambda": 0.3,
            "instructedLambda": "dishonest_small",
            "sd": 8.1,
            "drawnRed": 49,
            "reportedRed": 66,
            "inferredRed": 60,
            "playerTrialScore": -11,
            "oppTrialScore": 11,
            "playerTotalScore": -32,
            "oppTotalScore": 11,
            "waitTime": 7465.987332248558,
            "responseTime": 1682385236971,
            "catchQuestion": "How many <b class=\"r\">red<\/b> marbles did your opponent report drawing? ",
            "catchKey": -1,
            "catchResponse": -1,
            "catchTime": 1682385207146,
            "trialTime": 0
        },
        {
            "exptPart": "trial",
            "trialNumber": 3,
            "roleCurrent": "receiver",
            "marblesSampled": 100,
            "probRed": 0.5,
            "practiceLambda": 5,
            "trialLambda": 0.3,
            "instructedLambda": "dishonest_small",
            "sd": 8.1,
            "drawnRed": 91,
            "reportedRed": 99,
            "inferredRed": 100,
            "playerTrialScore": -9,
            "oppTrialScore": 9,
            "playerTotalScore": -41,
            "oppTotalScore": 20,
            "waitTime": 5937.707968746463,
            "responseTime": 1682385247475,
            "catchQuestion": "How many <b class=\"r\">red<\/b> marbles did your opponent report drawing? ",
            "catchKey": -1,
            "catchResponse": -1,
            "catchTime": 1682385207146,
            "trialTime": 0
        },
        {
            "exptPart": "trial",
            "trialNumber": 4,
            "roleCurrent": "receiver",
            "marblesSampled": 100,
            "probRed": 0.5,
            "practiceLambda": 5,
            "trialLambda": 0.3,
            "instructedLambda": "dishonest_small",
            "sd": 8.1,
            "drawnRed": 32,
            "reportedRed": 36,
            "inferredRed": 20,
            "playerTrialScore": -12,
            "oppTrialScore": 0,
            "playerTotalScore": -53,
            "oppTotalScore": 20,
            "waitTime": 5958.927471612458,
            "responseTime": 1682385257404,
            "catchQuestion": "How many <b class=\"r\">red<\/b> marbles did your opponent report drawing? ",
            "catchKey": -1,
            "catchResponse": -1,
            "catchTime": 1682385207146,
            "trialTime": 0
        },
        {
            "exptPart": "trial",
            "trialNumber": 5,
            "roleCurrent": "receiver",
            "marblesSampled": 100,
            "probRed": 0.5,
            "practiceLambda": 5,
            "trialLambda": 0.3,
            "instructedLambda": "dishonest_small",
            "sd": 8.1,
            "drawnRed": 56,
            "reportedRed": 55,
            "inferredRed": 30,
            "playerTrialScore": -26,
            "oppTrialScore": 0,
            "playerTotalScore": -79,
            "oppTotalScore": 20,
            "waitTime": 5583.279384698642,
            "responseTime": 1682385265697,
            "catchQuestion": "How many <b class=\"r\">red<\/b> marbles did your opponent report drawing? ",
            "catchKey": -1,
            "catchResponse": -1,
            "catchTime": 1682385207146,
            "trialTime": 0
        },
        {
            "exptPart": "trial",
            "trialNumber": 6,
            "roleCurrent": "receiver",
            "marblesSampled": 100,
            "probRed": 0.5,
            "practiceLambda": 5,
            "trialLambda": 0.3,
            "instructedLambda": "dishonest_small",
            "sd": 8.1,
            "drawnRed": 87,
            "reportedRed": 68,
            "inferredRed": 20,
            "playerTrialScore": -67,
            "oppTrialScore": 0,
            "playerTotalScore": -146,
            "oppTotalScore": 20,
            "waitTime": 6346.564533117849,
            "responseTime": 1682385274784,
            "catchQuestion": "How many <b class=\"r\">red<\/b> marbles did your opponent report drawing? ",
            "catchKey": 68,
            "catchResponse": 68,
            "catchTime": 1682385274784,
            "trialTime": 0
        },
        {
            "exptPart": "trial",
            "trialNumber": 7,
            "roleCurrent": "receiver",
            "marblesSampled": 100,
            "probRed": 0.5,
            "practiceLambda": 5,
            "trialLambda": 0.3,
            "instructedLambda": "dishonest_small",
            "sd": 8.1,
            "drawnRed": 56,
            "reportedRed": 67,
            "inferredRed": 20,
            "playerTrialScore": -36,
            "oppTrialScore": 0,
            "playerTotalScore": -182,
            "oppTotalScore": 20,
            "waitTime": 7416.999550349617,
            "responseTime": 1682385291233,
            "catchQuestion": "How many <b class=\"r\">red<\/b> marbles did your opponent report drawing? ",
            "catchKey": -1,
            "catchResponse": -1,
            "catchTime": 1682385274784,
            "trialTime": 0
        },
        {
            "exptPart": "trial",
            "trialNumber": 8,
            "roleCurrent": "receiver",
            "marblesSampled": 100,
            "probRed": 0.5,
            "practiceLambda": 5,
            "trialLambda": 0.3,
            "instructedLambda": "dishonest_small",
            "sd": 8.1,
            "drawnRed": 38,
            "reportedRed": 31,
            "inferredRed": 3,
            "playerTrialScore": -35,
            "oppTrialScore": 0,
            "playerTotalScore": -217,
            "oppTotalScore": 20,
            "waitTime": 7158.107461877385,
            "responseTime": 1682385300202,
            "catchQuestion": "How many <b class=\"r\">red<\/b> marbles did your opponent report drawing? ",
            "catchKey": -1,
            "catchResponse": -1,
            "catchTime": 1682385274784,
            "trialTime": 0
        },
        {
            "exptPart": "trial",
            "trialNumber": 9,
            "roleCurrent": "receiver",
            "marblesSampled": 100,
            "probRed": 0.5,
            "practiceLambda": 5,
            "trialLambda": 0.3,
            "instructedLambda": "dishonest_small",
            "sd": 8.1,
            "drawnRed": 51,
            "reportedRed": 50,
            "inferredRed": 22,
            "playerTrialScore": -29,
            "oppTrialScore": 0,
            "playerTotalScore": -246,
            "oppTotalScore": 20,
            "waitTime": 5156.560390740133,
            "responseTime": 1682385306967,
            "catchQuestion": "How many <b class=\"r\">red<\/b> marbles did your opponent report drawing? ",
            "catchKey": 50,
            "catchResponse": 50,
            "catchTime": 1682385306968,
            "trialTime": 0
        },
        {
            "exptPart": "trial",
            "trialNumber": 10,
            "roleCurrent": "receiver",
            "marblesSampled": 100,
            "probRed": 0.5,
            "practiceLambda": 5,
            "trialLambda": 0.3,
            "instructedLambda": "dishonest_small",
            "sd": 8.1,
            "drawnRed": 5,
            "reportedRed": 10,
            "inferredRed": 2,
            "playerTrialScore": -3,
            "oppTrialScore": 0,
            "playerTotalScore": -249,
            "oppTotalScore": 20,
            "waitTime": 6405.3934138274135,
            "responseTime": 1682385319266,
            "catchQuestion": "How many <b class=\"r\">red<\/b> marbles did your opponent report drawing? ",
            "catchKey": -1,
            "catchResponse": -1,
            "catchTime": 1682385319266,
            "trialTime": 0
        },
        {
            "exptPart": "trial",
            "trialNumber": 11,
            "roleCurrent": "receiver",
            "marblesSampled": 100,
            "probRed": 0.5,
            "practiceLambda": 5,
            "trialLambda": 0.3,
            "instructedLambda": "dishonest_small",
            "sd": 8.1,
            "drawnRed": 11,
            "reportedRed": 22,
            "inferredRed": 23,
            "playerTrialScore": -12,
            "oppTrialScore": 12,
            "playerTotalScore": -261,
            "oppTotalScore": 32,
            "waitTime": 5961.42995067566,
            "responseTime": 1682385331327,
            "catchQuestion": "How many <b class=\"r\">red<\/b> marbles did your opponent report drawing? ",
            "catchKey": -1,
            "catchResponse": -1,
            "catchTime": 1682385319266,
            "trialTime": 0
        },
        {
            "exptPart": "trial",
            "trialNumber": 12,
            "roleCurrent": "receiver",
            "marblesSampled": 100,
            "probRed": 0.5,
            "practiceLambda": 5,
            "trialLambda": 0.3,
            "instructedLambda": "dishonest_small",
            "sd": 8.1,
            "drawnRed": 44,
            "reportedRed": 47,
            "inferredRed": 12,
            "playerTrialScore": -32,
            "oppTrialScore": 0,
            "playerTotalScore": -293,
            "oppTotalScore": 32,
            "waitTime": 7257.368689808718,
            "responseTime": 1682385341022,
            "catchQuestion": "How many <b class=\"r\">red<\/b> marbles did your opponent report drawing? ",
            "catchKey": -1,
            "catchResponse": -1,
            "catchTime": 1682385319266,
            "trialTime": 0
        },
        {
            "exptPart": "trial",
            "trialNumber": 13,
            "roleCurrent": "receiver",
            "marblesSampled": 100,
            "probRed": 0.5,
            "practiceLambda": 5,
            "trialLambda": 0.3,
            "instructedLambda": "dishonest_small",
            "sd": 8.1,
            "drawnRed": 32,
            "reportedRed": 31,
            "inferredRed": 20,
            "playerTrialScore": -12,
            "oppTrialScore": 0,
            "playerTotalScore": -305,
            "oppTotalScore": 32,
            "waitTime": 5252.8049903927495,
            "responseTime": 1682385349872,
            "catchQuestion": "How many <b class=\"r\">red<\/b> marbles did your opponent report drawing? ",
            "catchKey": 31,
            "catchResponse": 31,
            "catchTime": 1682385349872,
            "trialTime": 0
        },
        {
            "exptPart": "trial",
            "trialNumber": 14,
            "roleCurrent": "receiver",
            "marblesSampled": 100,
            "probRed": 0.5,
            "practiceLambda": 5,
            "trialLambda": 0.3,
            "instructedLambda": "dishonest_small",
            "sd": 8.1,
            "drawnRed": 58,
            "reportedRed": 63,
            "inferredRed": 20,
            "playerTrialScore": -38,
            "oppTrialScore": 0,
            "playerTotalScore": -343,
            "oppTotalScore": 32,
            "waitTime": 5624.459483212733,
            "responseTime": 1682385363314,
            "catchQuestion": "How many <b class=\"r\">red<\/b> marbles did your opponent report drawing? ",
            "catchKey": -1,
            "catchResponse": -1,
            "catchTime": 1682385349872,
            "trialTime": 0
        },
        {
            "exptPart": "trial",
            "trialNumber": 15,
            "roleCurrent": "receiver",
            "marblesSampled": 100,
            "probRed": 0.5,
            "practiceLambda": 5,
            "trialLambda": 0.3,
            "instructedLambda": "dishonest_small",
            "sd": 8.1,
            "drawnRed": 64,
            "reportedRed": 57,
            "inferredRed": 30,
            "playerTrialScore": -34,
            "oppTrialScore": 0,
            "playerTotalScore": -377,
            "oppTotalScore": 32,
            "waitTime": 5562.842959178425,
            "responseTime": 1682385371420,
            "catchQuestion": "How many <b class=\"r\">red<\/b> marbles did your opponent report drawing? ",
            "catchKey": 57,
            "catchResponse": 57,
            "catchTime": 1682385371420,
            "trialTime": 0
        },
        {
            "exptPart": "trial",
            "trialNumber": 16,
            "roleCurrent": "receiver",
            "marblesSampled": 100,
            "probRed": 0.5,
            "practiceLambda": 5,
            "trialLambda": 0.3,
            "instructedLambda": "dishonest_small",
            "sd": 8.1,
            "drawnRed": 57,
            "reportedRed": 60,
            "inferredRed": 4,
            "playerTrialScore": -53,
            "oppTrialScore": 0,
            "playerTotalScore": -430,
            "oppTotalScore": 32,
            "waitTime": 5660.710948319485,
            "responseTime": 1682385386312,
            "catchQuestion": "How many <b class=\"r\">red<\/b> marbles did your opponent report drawing? ",
            "catchKey": -1,
            "catchResponse": -1,
            "catchTime": 1682385371420,
            "trialTime": 0
        },
        {
            "exptPart": "trial",
            "trialNumber": 17,
            "roleCurrent": "receiver",
            "marblesSampled": 100,
            "probRed": 0.5,
            "practiceLambda": 5,
            "trialLambda": 0.3,
            "instructedLambda": "dishonest_small",
            "sd": 8.1,
            "drawnRed": 47,
            "reportedRed": 39,
            "inferredRed": 3,
            "playerTrialScore": -44,
            "oppTrialScore": 0,
            "playerTotalScore": -474,
            "oppTotalScore": 32,
            "waitTime": 5136.402261319818,
            "responseTime": 1682385393761,
            "catchQuestion": "How many <b class=\"r\">red<\/b> marbles did your opponent report drawing? ",
            "catchKey": -1,
            "catchResponse": -1,
            "catchTime": 1682385371420,
            "trialTime": 0
        },
        {
            "exptPart": "trial",
            "trialNumber": 18,
            "roleCurrent": "receiver",
            "marblesSampled": 100,
            "probRed": 0.5,
            "practiceLambda": 5,
            "trialLambda": 0.3,
            "instructedLambda": "dishonest_small",
            "sd": 8.1,
            "drawnRed": 31,
            "reportedRed": 16,
            "inferredRed": 2,
            "playerTrialScore": -29,
            "oppTrialScore": 0,
            "playerTotalScore": -503,
            "oppTotalScore": 32,
            "waitTime": 5985.027109817672,
            "responseTime": 1682385401574,
            "catchQuestion": "How many <b class=\"r\">red<\/b> marbles did your opponent report drawing? ",
            "catchKey": -1,
            "catchResponse": -1,
            "catchTime": 1682385371420,
            "trialTime": 0
        },
        {
            "exptPart": "trial",
            "trialNumber": 19,
            "roleCurrent": "receiver",
            "marblesSampled": 100,
            "probRed": 0.5,
            "practiceLambda": 5,
            "trialLambda": 0.3,
            "instructedLambda": "dishonest_small",
            "sd": 8.1,
            "drawnRed": 61,
            "reportedRed": 69,
            "inferredRed": 44,
            "playerTrialScore": -17,
            "oppTrialScore": 0,
            "playerTotalScore": -520,
            "oppTotalScore": 32,
            "waitTime": 6011.328434388495,
            "responseTime": 1682385409174,
            "catchQuestion": "How many <b class=\"r\">red<\/b> marbles did your opponent report drawing? ",
            "catchKey": -1,
            "catchResponse": -1,
            "catchTime": 1682385371420,
            "trialTime": 0
        },
        {
            "exptPart": "trial",
            "trialNumber": 20,
            "roleCurrent": "receiver",
            "marblesSampled": 100,
            "probRed": 0.5,
            "practiceLambda": 5,
            "trialLambda": 0.3,
            "instructedLambda": "dishonest_small",
            "sd": 8.1,
            "drawnRed": 52,
            "reportedRed": 50,
            "inferredRed": 5,
            "playerTrialScore": -47,
            "oppTrialScore": 0,
            "playerTotalScore": -567,
            "oppTotalScore": 32,
            "waitTime": 6103.4676994209585,
            "responseTime": 1682385416746,
            "catchQuestion": "How many <b class=\"r\">red<\/b> marbles did your opponent report drawing? ",
            "catchKey": -1,
            "catchResponse": -1,
            "catchTime": 1682385416746,
            "trialTime": 0
        },
        {
            "exptPart": "trial",
            "trialNumber": 21,
            "roleCurrent": "receiver",
            "marblesSampled": 100,
            "probRed": 0.5,
            "practiceLambda": 5,
            "trialLambda": 0.3,
            "instructedLambda": "dishonest_small",
            "sd": 8.1,
            "drawnRed": 43,
            "reportedRed": 36,
            "inferredRed": 2,
            "playerTrialScore": -41,
            "oppTrialScore": 0,
            "playerTotalScore": -608,
            "oppTotalScore": 32,
            "waitTime": 7239.250475324703,
            "responseTime": 1682385427895,
            "catchQuestion": "How many <b class=\"r\">red<\/b> marbles did your opponent report drawing? ",
            "catchKey": -1,
            "catchResponse": -1,
            "catchTime": 1682385416746,
            "trialTime": 0
        },
        {
            "exptPart": "trial",
            "trialNumber": 22,
            "roleCurrent": "receiver",
            "marblesSampled": 100,
            "probRed": 0.5,
            "practiceLambda": 5,
            "trialLambda": 0.3,
            "instructedLambda": "dishonest_small",
            "sd": 8.1,
            "drawnRed": 30,
            "reportedRed": 57,
            "inferredRed": 4,
            "playerTrialScore": -26,
            "oppTrialScore": 0,
            "playerTotalScore": -634,
            "oppTotalScore": 32,
            "waitTime": 5439.633476630041,
            "responseTime": 1682385435978,
            "catchQuestion": "How many <b class=\"r\">red<\/b> marbles did your opponent report drawing? ",
            "catchKey": -1,
            "catchResponse": -1,
            "catchTime": 1682385416746,
            "trialTime": 0
        },
        {
            "exptPart": "trial",
            "trialNumber": 23,
            "roleCurrent": "receiver",
            "marblesSampled": 100,
            "probRed": 0.5,
            "practiceLambda": 5,
            "trialLambda": 0.3,
            "instructedLambda": "dishonest_small",
            "sd": 8.1,
            "drawnRed": 53,
            "reportedRed": 46,
            "inferredRed": 23,
            "playerTrialScore": -30,
            "oppTrialScore": 0,
            "playerTotalScore": -664,
            "oppTotalScore": 32,
            "waitTime": 5827.190714151641,
            "responseTime": 1682385443679,
            "catchQuestion": "How many <b class=\"r\">red<\/b> marbles did your opponent report drawing? ",
            "catchKey": -1,
            "catchResponse": -1,
            "catchTime": 1682385416746,
            "trialTime": 0
        },
        {
            "exptPart": "trial",
            "trialNumber": 24,
            "roleCurrent": "receiver",
            "marblesSampled": 100,
            "probRed": 0.5,
            "practiceLambda": 5,
            "trialLambda": 0.3,
            "instructedLambda": "dishonest_small",
            "sd": 8.1,
            "drawnRed": 53,
            "reportedRed": 63,
            "inferredRed": 6,
            "playerTrialScore": -47,
            "oppTrialScore": 0,
            "playerTotalScore": -711,
            "oppTotalScore": 32,
            "waitTime": 5576.379848407052,
            "responseTime": 1682385451819,
            "catchQuestion": "How many <b class=\"r\">red<\/b> marbles did your opponent report drawing? ",
            "catchKey": -1,
            "catchResponse": -1,
            "catchTime": 1682385416746,
            "trialTime": 0
        },
        {
            "exptPart": "trial",
            "trialNumber": 25,
            "roleCurrent": "receiver",
            "marblesSampled": 100,
            "probRed": 0.5,
            "practiceLambda": 5,
            "trialLambda": 0.3,
            "instructedLambda": "dishonest_small",
            "sd": 8.1,
            "drawnRed": 33,
            "reportedRed": 44,
            "inferredRed": 23,
            "playerTrialScore": -10,
            "oppTrialScore": 0,
            "playerTotalScore": -721,
            "oppTotalScore": 32,
            "waitTime": 6442.813363203508,
            "responseTime": 1682385460501,
            "catchQuestion": "How many <b class=\"r\">red<\/b> marbles did your opponent report drawing? ",
            "catchKey": -1,
            "catchResponse": -1,
            "catchTime": 1682385416746,
            "trialTime": 0
        },
        {
            "exptPart": "trial",
            "trialNumber": 26,
            "roleCurrent": "receiver",
            "marblesSampled": 100,
            "probRed": 0.5,
            "practiceLambda": 5,
            "trialLambda": 0.3,
            "instructedLambda": "dishonest_small",
            "sd": 8.1,
            "drawnRed": 39,
            "reportedRed": 39,
            "inferredRed": 3,
            "playerTrialScore": -36,
            "oppTrialScore": 0,
            "playerTotalScore": -757,
            "oppTotalScore": 32,
            "waitTime": 5419.324935562139,
            "responseTime": 1682385467761,
            "catchQuestion": "How many <b class=\"r\">red<\/b> marbles did your opponent report drawing? ",
            "catchKey": -1,
            "catchResponse": -1,
            "catchTime": 1682385416746,
            "trialTime": 0
        },
        {
            "exptPart": "trial",
            "trialNumber": 27,
            "roleCurrent": "receiver",
            "marblesSampled": 100,
            "probRed": 0.5,
            "practiceLambda": 5,
            "trialLambda": 0.3,
            "instructedLambda": "dishonest_small",
            "sd": 8.1,
            "drawnRed": 43,
            "reportedRed": 36,
            "inferredRed": 44,
            "playerTrialScore": -1,
            "oppTrialScore": 1,
            "playerTotalScore": -758,
            "oppTotalScore": 33,
            "waitTime": 6780.832571827772,
            "responseTime": 1682385475979,
            "catchQuestion": "How many <b class=\"r\">red<\/b> marbles did your opponent report drawing? ",
            "catchKey": -1,
            "catchResponse": -1,
            "catchTime": 1682385416746,
            "trialTime": 0
        },
        {
            "exptPart": "trial",
            "trialNumber": 28,
            "roleCurrent": "receiver",
            "marblesSampled": 100,
            "probRed": 0.5,
            "practiceLambda": 5,
            "trialLambda": 0.3,
            "instructedLambda": "dishonest_small",
            "sd": 8.1,
            "drawnRed": 87,
            "reportedRed": 88,
            "inferredRed": 34,
            "playerTrialScore": -53,
            "oppTrialScore": 0,
            "playerTotalScore": -811,
            "oppTotalScore": 33,
            "waitTime": 5273.94072753786,
            "responseTime": 1682385483773,
            "catchQuestion": "How many <b class=\"r\">red<\/b> marbles did your opponent report drawing? ",
            "catchKey": -1,
            "catchResponse": -1,
            "catchTime": 1682385416746,
            "trialTime": 0
        },
        {
            "exptPart": "trial",
            "trialNumber": 29,
            "roleCurrent": "receiver",
            "marblesSampled": 100,
            "probRed": 0.5,
            "practiceLambda": 5,
            "trialLambda": 0.3,
            "instructedLambda": "dishonest_small",
            "sd": 8.1,
            "drawnRed": 72,
            "reportedRed": 72,
            "inferredRed": 53,
            "playerTrialScore": -19,
            "oppTrialScore": 0,
            "playerTotalScore": -830,
            "oppTotalScore": 33,
            "waitTime": 6060.029966263611,
            "responseTime": 1682385492133,
            "catchQuestion": "How many <b class=\"r\">red<\/b> marbles did your opponent report drawing? ",
            "catchKey": -1,
            "catchResponse": -1,
            "catchTime": 1682385416746,
            "trialTime": 0
        },
        {
            "exptPart": "trial",
            "trialNumber": 30,
            "roleCurrent": "receiver",
            "marblesSampled": 100,
            "probRed": 0.5,
            "practiceLambda": 5,
            "trialLambda": 0.3,
            "instructedLambda": "dishonest_small",
            "sd": 8.1,
            "drawnRed": 46,
            "reportedRed": 51,
            "inferredRed": 24,
            "playerTrialScore": -22,
            "oppTrialScore": 0,
            "playerTotalScore": -852,
            "oppTotalScore": 33,
            "waitTime": 6268.084666469236,
            "responseTime": 1682385499906,
            "catchQuestion": "How many <b class=\"r\">red<\/b> marbles did your opponent report drawing? ",
            "catchKey": -1,
            "catchResponse": -1,
            "catchTime": 1682385499907,
            "trialTime": 0
        },
        {
            "exptPart": "trial",
            "trialNumber": 31,
            "roleCurrent": "receiver",
            "marblesSampled": 100,
            "probRed": 0.5,
            "practiceLambda": 5,
            "trialLambda": 0.3,
            "instructedLambda": "dishonest_small",
            "sd": 8.1,
            "drawnRed": 58,
            "reportedRed": 38,
            "inferredRed": 45,
            "playerTrialScore": -13,
            "oppTrialScore": 0,
            "playerTotalScore": -865,
            "oppTotalScore": 33,
            "waitTime": 6910.84450460253,
            "responseTime": 1682385509435,
            "catchQuestion": "How many <b class=\"r\">red<\/b> marbles did your opponent report drawing? ",
            "catchKey": -1,
            "catchResponse": -1,
            "catchTime": 1682385499907,
            "trialTime": 0
        },
        {
            "exptPart": "trial",
            "trialNumber": 32,
            "roleCurrent": "receiver",
            "marblesSampled": 100,
            "probRed": 0.5,
            "practiceLambda": 5,
            "trialLambda": 0.3,
            "instructedLambda": "dishonest_small",
            "sd": 8.1,
            "drawnRed": 35,
            "reportedRed": 50,
            "inferredRed": 12,
            "playerTrialScore": -23,
            "oppTrialScore": 0,
            "playerTotalScore": -888,
            "oppTotalScore": 33,
            "waitTime": 5185.5055591899345,
            "responseTime": 1682385516849,
            "catchQuestion": "How many <b class=\"r\">red<\/b> marbles did your opponent report drawing? ",
            "catchKey": -1,
            "catchResponse": -1,
            "catchTime": 1682385499907,
            "trialTime": 0
        },
        {
            "exptPart": "trial",
            "trialNumber": 33,
            "roleCurrent": "receiver",
            "marblesSampled": 100,
            "probRed": 0.5,
            "practiceLambda": 5,
            "trialLambda": 0.3,
            "instructedLambda": "dishonest_small",
            "sd": 8.1,
            "drawnRed": 60,
            "reportedRed": 66,
            "inferredRed": 34,
            "playerTrialScore": -26,
            "oppTrialScore": 0,
            "playerTotalScore": -914,
            "oppTotalScore": 33,
            "waitTime": 6332.561726407448,
            "responseTime": 1682385524644,
            "catchQuestion": "How many <b class=\"r\">red<\/b> marbles did your opponent report drawing? ",
            "catchKey": -1,
            "catchResponse": -1,
            "catchTime": 1682385499907,
            "trialTime": 0
        },
        {
            "exptPart": "trial",
            "trialNumber": 34,
            "roleCurrent": "receiver",
            "marblesSampled": 100,
            "probRed": 0.5,
            "practiceLambda": 5,
            "trialLambda": 0.3,
            "instructedLambda": "dishonest_small",
            "sd": 8.1,
            "drawnRed": 84,
            "reportedRed": 83,
            "inferredRed": 44,
            "playerTrialScore": -40,
            "oppTrialScore": 0,
            "playerTotalScore": -954,
            "oppTotalScore": 33,
            "waitTime": 6758.785296861144,
            "responseTime": 1682385532985,
            "catchQuestion": "How many <b class=\"r\">red<\/b> marbles did your opponent report drawing? ",
            "catchKey": -1,
            "catchResponse": -1,
            "catchTime": 1682385499907,
            "trialTime": 0
        },
        {
            "exptPart": "trial",
            "trialNumber": 35,
            "roleCurrent": "receiver",
            "marblesSampled": 100,
            "probRed": 0.5,
            "practiceLambda": 5,
            "trialLambda": 0.3,
            "instructedLambda": "dishonest_small",
            "sd": 8.1,
            "drawnRed": 28,
            "reportedRed": 25,
            "inferredRed": 3,
            "playerTrialScore": -25,
            "oppTrialScore": 0,
            "playerTotalScore": -979,
            "oppTotalScore": 33,
            "waitTime": 6540.854214795962,
            "responseTime": 1682385542877,
            "catchQuestion": "How many <b class=\"r\">red<\/b> marbles did your opponent report drawing? ",
            "catchKey": -1,
            "catchResponse": -1,
            "catchTime": 1682385499907,
            "trialTime": 0
        },
        {
            "exptPart": "trial",
            "trialNumber": 36,
            "roleCurrent": "receiver",
            "marblesSampled": 100,
            "probRed": 0.5,
            "practiceLambda": 5,
            "trialLambda": 0.3,
            "instructedLambda": "dishonest_small",
            "sd": 8.1,
            "drawnRed": 50,
            "reportedRed": 52,
            "inferredRed": 22,
            "playerTrialScore": -28,
            "oppTrialScore": 0,
            "playerTotalScore": -1007,
            "oppTotalScore": 33,
            "waitTime": 5898.6158245162005,
            "responseTime": 1682385550974,
            "catchQuestion": "How many <b class=\"r\">red<\/b> marbles did your opponent report drawing? ",
            "catchKey": -1,
            "catchResponse": -1,
            "catchTime": 1682385499907,
            "trialTime": 0
        },
        {
            "exptPart": "trial",
            "trialNumber": 37,
            "roleCurrent": "receiver",
            "marblesSampled": 100,
            "probRed": 0.5,
            "practiceLambda": 5,
            "trialLambda": 0.3,
            "instructedLambda": "dishonest_small",
            "sd": 8.1,
            "drawnRed": 26,
            "reportedRed": 24,
            "inferredRed": 12,
            "playerTrialScore": -14,
            "oppTrialScore": 0,
            "playerTotalScore": -1021,
            "oppTotalScore": 33,
            "waitTime": 6571.11782357564,
            "responseTime": 1682385560321,
            "catchQuestion": "How many <b class=\"r\">red<\/b> marbles did your opponent report drawing? ",
            "catchKey": 24,
            "catchResponse": 24,
            "catchTime": 1682385560321,
            "trialTime": 0
        },
        {
            "exptPart": "trial",
            "trialNumber": 38,
            "roleCurrent": "receiver",
            "marblesSampled": 100,
            "probRed": 0.5,
            "practiceLambda": 5,
            "trialLambda": 0.3,
            "instructedLambda": "dishonest_small",
            "sd": 8.1,
            "drawnRed": 75,
            "reportedRed": 78,
            "inferredRed": 44,
            "playerTrialScore": -31,
            "oppTrialScore": 0,
            "playerTotalScore": -1052,
            "oppTotalScore": 33,
            "waitTime": 7138.678316946788,
            "responseTime": 1682385574278,
            "catchQuestion": "How many <b class=\"r\">red<\/b> marbles did your opponent report drawing? ",
            "catchKey": -1,
            "catchResponse": -1,
            "catchTime": 1682385560321,
            "trialTime": 0
        },
        {
            "exptPart": "trial",
            "trialNumber": 39,
            "roleCurrent": "receiver",
            "marblesSampled": 100,
            "probRed": 0.5,
            "practiceLambda": 5,
            "trialLambda": 0.3,
            "instructedLambda": "dishonest_small",
            "sd": 8.1,
            "drawnRed": 49,
            "reportedRed": 49,
            "inferredRed": 23,
            "playerTrialScore": -26,
            "oppTrialScore": 0,
            "playerTotalScore": -1078,
            "oppTotalScore": 33,
            "waitTime": 5658.615280579719,
            "responseTime": 1682385581893,
            "catchQuestion": "How many <b class=\"r\">red<\/b> marbles did your opponent report drawing? ",
            "catchKey": -1,
            "catchResponse": -1,
            "catchTime": 1682385560321,
            "trialTime": 0
        },
        {
            "exptPart": "trial",
            "trialNumber": 40,
            "roleCurrent": "receiver",
            "marblesSampled": 100,
            "probRed": 0.5,
            "practiceLambda": 5,
            "trialLambda": 0.3,
            "instructedLambda": "dishonest_small",
            "sd": 8.1,
            "drawnRed": 54,
            "reportedRed": 42,
            "inferredRed": 2,
            "playerTrialScore": -52,
            "oppTrialScore": 0,
            "playerTotalScore": -1130,
            "oppTotalScore": 33,
            "waitTime": 6329.722917983561,
            "responseTime": 1682385590285,
            "catchQuestion": "How many <b class=\"r\">red<\/b> marbles did your opponent report drawing? ",
            "catchKey": -1,
            "catchResponse": -1,
            "catchTime": 1682385590285,
            "trialTime": 0
        },
        {
            "exptPart": "trial",
            "trialNumber": 41,
            "roleCurrent": "receiver",
            "marblesSampled": 100,
            "probRed": 0.5,
            "practiceLambda": 5,
            "trialLambda": 0.3,
            "instructedLambda": "dishonest_small",
            "sd": 8.1,
            "drawnRed": 40,
            "reportedRed": 33,
            "inferredRed": 45,
            "playerTrialScore": -5,
            "oppTrialScore": 5,
            "playerTotalScore": -1135,
            "oppTotalScore": 38,
            "waitTime": 5411.667815643046,
            "responseTime": 1682385605065,
            "catchQuestion": "How many <b class=\"r\">red<\/b> marbles did your opponent report drawing? ",
            "catchKey": -1,
            "catchResponse": -1,
            "catchTime": 1682385590285,
            "trialTime": 0
        },
        {
            "exptPart": "trial",
            "trialNumber": 42,
            "roleCurrent": "receiver",
            "marblesSampled": 100,
            "probRed": 0.5,
            "practiceLambda": 5,
            "trialLambda": 0.3,
            "instructedLambda": "dishonest_small",
            "sd": 8.1,
            "drawnRed": 48,
            "reportedRed": 50,
            "inferredRed": 23,
            "playerTrialScore": -25,
            "oppTrialScore": 0,
            "playerTotalScore": -1160,
            "oppTotalScore": 38,
            "waitTime": 5646.210717726395,
            "responseTime": 1682385614116,
            "catchQuestion": "How many <b class=\"r\">red<\/b> marbles did your opponent report drawing? ",
            "catchKey": -1,
            "catchResponse": -1,
            "catchTime": 1682385590285,
            "trialTime": 0
        },
        {
            "exptPart": "trial",
            "trialNumber": 43,
            "roleCurrent": "receiver",
            "marblesSampled": 100,
            "probRed": 0.5,
            "practiceLambda": 5,
            "trialLambda": 0.3,
            "instructedLambda": "dishonest_small",
            "sd": 8.1,
            "drawnRed": 31,
            "reportedRed": 37,
            "inferredRed": 34,
            "playerTrialScore": -3,
            "oppTrialScore": 3,
            "playerTotalScore": -1163,
            "oppTotalScore": 41,
            "waitTime": 5196.2544010906,
            "responseTime": 1682385621081,
            "catchQuestion": "How many <b class=\"r\">red<\/b> marbles did your opponent report drawing? ",
            "catchKey": -1,
            "catchResponse": -1,
            "catchTime": 1682385590285,
            "trialTime": 0
        },
        {
            "exptPart": "trial",
            "trialNumber": 44,
            "roleCurrent": "receiver",
            "marblesSampled": 100,
            "probRed": 0.5,
            "practiceLambda": 5,
            "trialLambda": 0.3,
            "instructedLambda": "dishonest_small",
            "sd": 8.1,
            "drawnRed": 57,
            "reportedRed": 56,
            "inferredRed": 44,
            "playerTrialScore": -13,
            "oppTrialScore": 0,
            "playerTotalScore": -1176,
            "oppTotalScore": 41,
            "waitTime": 6328.382018772989,
            "responseTime": 1682385630002,
            "catchQuestion": "How many <b class=\"r\">red<\/b> marbles did your opponent report drawing? ",
            "catchKey": -1,
            "catchResponse": -1,
            "catchTime": 1682385590285,
            "trialTime": 0
        },
        {
            "exptPart": "trial",
            "trialNumber": 45,
            "roleCurrent": "receiver",
            "marblesSampled": 100,
            "probRed": 0.5,
            "practiceLambda": 5,
            "trialLambda": 0.3,
            "instructedLambda": "dishonest_small",
            "sd": 8.1,
            "drawnRed": 86,
            "reportedRed": 79,
            "inferredRed": 45,
            "playerTrialScore": -41,
            "oppTrialScore": 0,
            "playerTotalScore": -1217,
            "oppTotalScore": 41,
            "waitTime": 6383.459863241941,
            "responseTime": 1682385639318,
            "catchQuestion": "How many <b class=\"r\">red<\/b> marbles did your opponent report drawing? ",
            "catchKey": -1,
            "catchResponse": -1,
            "catchTime": 1682385590285,
            "trialTime": 0
        },
        {
            "exptPart": "trial",
            "trialNumber": 46,
            "roleCurrent": "receiver",
            "marblesSampled": 100,
            "probRed": 0.5,
            "practiceLambda": 5,
            "trialLambda": 0.3,
            "instructedLambda": "dishonest_small",
            "sd": 8.1,
            "drawnRed": 60,
            "reportedRed": 54,
            "inferredRed": 33,
            "playerTrialScore": -27,
            "oppTrialScore": 0,
            "playerTotalScore": -1244,
            "oppTotalScore": 41,
            "waitTime": 6474.4707511482575,
            "responseTime": 1682385648480,
            "catchQuestion": "How many <b class=\"r\">red<\/b> marbles did your opponent report drawing? ",
            "catchKey": -1,
            "catchResponse": -1,
            "catchTime": 1682385590285,
            "trialTime": 0
        },
        {
            "exptPart": "trial",
            "trialNumber": 47,
            "roleCurrent": "receiver",
            "marblesSampled": 100,
            "probRed": 0.5,
            "practiceLambda": 5,
            "trialLambda": 0.3,
            "instructedLambda": "dishonest_small",
            "sd": 8.1,
            "drawnRed": 73,
            "reportedRed": 66,
            "inferredRed": 45,
            "playerTrialScore": -28,
            "oppTrialScore": 0,
            "playerTotalScore": -1272,
            "oppTotalScore": 41,
            "waitTime": 5293.994811620587,
            "responseTime": 1682385656601,
            "catchQuestion": "How many <b class=\"r\">red<\/b> marbles did your opponent report drawing? ",
            "catchKey": -1,
            "catchResponse": -1,
            "catchTime": 1682385590285,
            "trialTime": 0
        },
        {
            "exptPart": "trial",
            "trialNumber": 48,
            "roleCurrent": "receiver",
            "marblesSampled": 100,
            "probRed": 0.5,
            "practiceLambda": 5,
            "trialLambda": 0.3,
            "instructedLambda": "dishonest_small",
            "sd": 8.1,
            "drawnRed": 25,
            "reportedRed": 31,
            "inferredRed": 2,
            "playerTrialScore": -23,
            "oppTrialScore": 0,
            "playerTotalScore": -1295,
            "oppTotalScore": 41,
            "waitTime": 6481.329213069325,
            "responseTime": 1682385665394,
            "catchQuestion": "How many <b class=\"r\">red<\/b> marbles did your opponent report drawing? ",
            "catchKey": -1,
            "catchResponse": -1,
            "catchTime": 1682385590285,
            "trialTime": 0
        },
        {
            "exptPart": "trial",
            "trialNumber": 49,
            "roleCurrent": "receiver",
            "marblesSampled": 100,
            "probRed": 0.5,
            "practiceLambda": 5,
            "trialLambda": 0.3,
            "instructedLambda": "dishonest_small",
            "sd": 8.1,
            "drawnRed": 50,
            "reportedRed": 45,
            "inferredRed": 45,
            "playerTrialScore": -5,
            "oppTrialScore": 0,
            "playerTotalScore": -1300,
            "oppTotalScore": 41,
            "waitTime": 5981.26818249914,
            "responseTime": 1682385673779,
            "catchQuestion": "How many <b class=\"r\">red<\/b> marbles did your opponent report drawing? ",
            "catchKey": 45,
            "catchResponse": 45,
            "catchTime": 1682385673779,
            "trialTime": 0
        },
        {
            "exptPart": "trial",
            "trialNumber": 50,
            "roleCurrent": "receiver",
            "marblesSampled": 100,
            "probRed": 0.5,
            "practiceLambda": 5,
            "trialLambda": 0.3,
            "instructedLambda": "dishonest_small",
            "sd": 8.1,
            "drawnRed": 31,
            "reportedRed": 44,
            "inferredRed": 34,
            "playerTrialScore": -3,
            "oppTrialScore": 3,
            "playerTotalScore": -1303,
            "oppTotalScore": 44,
            "waitTime": 5598.641757596526,
            "responseTime": 1682385684316,
            "catchQuestion": "How many <b class=\"r\">red<\/b> marbles did your opponent report drawing? ",
            "catchKey": -1,
            "catchResponse": -1,
            "catchTime": 1682385684316,
            "trialTime": 0
        },
        {
            "exptPart": "trial",
            "trialNumber": 51,
            "roleCurrent": "receiver",
            "marblesSampled": 100,
            "probRed": 0.5,
            "practiceLambda": 5,
            "trialLambda": 0.3,
            "instructedLambda": "dishonest_small",
            "sd": 8.1,
            "drawnRed": 61,
            "reportedRed": 57,
            "inferredRed": 3,
            "playerTrialScore": -58,
            "oppTrialScore": 0,
            "playerTotalScore": -1361,
            "oppTotalScore": 44,
            "waitTime": 5991.377546041338,
            "responseTime": 1682385693104,
            "catchQuestion": "How many <b class=\"r\">red<\/b> marbles did your opponent report drawing? ",
            "catchKey": -1,
            "catchResponse": -1,
            "catchTime": 1682385684316,
            "trialTime": 0
        },
        {
            "exptPart": "trial",
            "trialNumber": 52,
            "roleCurrent": "receiver",
            "marblesSampled": 100,
            "probRed": 0.5,
            "practiceLambda": 5,
            "trialLambda": 0.3,
            "instructedLambda": "dishonest_small",
            "sd": 8.1,
            "drawnRed": 36,
            "reportedRed": 45,
            "inferredRed": 33,
            "playerTrialScore": -3,
            "oppTrialScore": 0,
            "playerTotalScore": -1364,
            "oppTotalScore": 44,
            "waitTime": 5779.357169615285,
            "responseTime": 1682385701408,
            "catchQuestion": "How many <b class=\"r\">red<\/b> marbles did your opponent report drawing? ",
            "catchKey": -1,
            "catchResponse": -1,
            "catchTime": 1682385684316,
            "trialTime": 0
        },
        {
            "exptPart": "trial",
            "trialNumber": 53,
            "roleCurrent": "receiver",
            "marblesSampled": 100,
            "probRed": 0.5,
            "practiceLambda": 5,
            "trialLambda": 0.3,
            "instructedLambda": "dishonest_small",
            "sd": 8.1,
            "drawnRed": 46,
            "reportedRed": 38,
            "inferredRed": 33,
            "playerTrialScore": -13,
            "oppTrialScore": 0,
            "playerTotalScore": -1377,
            "oppTotalScore": 44,
            "waitTime": 5390.299498314904,
            "responseTime": 1682385708945,
            "catchQuestion": "How many <b class=\"r\">red<\/b> marbles did your opponent report drawing? ",
            "catchKey": -1,
            "catchResponse": -1,
            "catchTime": 1682385684316,
            "trialTime": 0
        },
        {
            "exptPart": "trial",
            "trialNumber": 54,
            "roleCurrent": "receiver",
            "marblesSampled": 100,
            "probRed": 0.5,
            "practiceLambda": 5,
            "trialLambda": 0.3,
            "instructedLambda": "dishonest_small",
            "sd": 8.1,
            "drawnRed": 23,
            "reportedRed": 23,
            "inferredRed": 24,
            "playerTrialScore": -1,
            "oppTrialScore": 1,
            "playerTotalScore": -1378,
            "oppTotalScore": 45,
            "waitTime": 5232.361778653716,
            "responseTime": 1682385716351,
            "catchQuestion": "How many <b class=\"r\">red<\/b> marbles did your opponent report drawing? ",
            "catchKey": -1,
            "catchResponse": -1,
            "catchTime": 1682385684316,
            "trialTime": 0
        },
        {
            "exptPart": "trial",
            "trialNumber": 55,
            "roleCurrent": "receiver",
            "marblesSampled": 100,
            "probRed": 0.5,
            "practiceLambda": 5,
            "trialLambda": 0.3,
            "instructedLambda": "dishonest_small",
            "sd": 8.1,
            "drawnRed": 27,
            "reportedRed": 34,
            "inferredRed": 34,
            "playerTrialScore": -7,
            "oppTrialScore": 7,
            "playerTotalScore": -1385,
            "oppTotalScore": 52,
            "waitTime": 5300.21012000229,
            "responseTime": 1682385724520,
            "catchQuestion": "How many <b class=\"r\">red<\/b> marbles did your opponent report drawing? ",
            "catchKey": -1,
            "catchResponse": -1,
            "catchTime": 1682385684316,
            "trialTime": 0
        },
        {
            "exptPart": "trial",
            "trialNumber": 56,
            "roleCurrent": "receiver",
            "marblesSampled": 100,
            "probRed": 0.5,
            "practiceLambda": 5,
            "trialLambda": 0.3,
            "instructedLambda": "dishonest_small",
            "sd": 8.1,
            "drawnRed": 87,
            "reportedRed": 94,
            "inferredRed": 99,
            "playerTrialScore": -12,
            "oppTrialScore": 12,
            "playerTotalScore": -1397,
            "oppTotalScore": 64,
            "waitTime": 6907.481721728154,
            "responseTime": 1682385735065,
            "catchQuestion": "How many <b class=\"r\">red<\/b> marbles did your opponent report drawing? ",
            "catchKey": -1,
            "catchResponse": -1,
            "catchTime": 1682385684316,
            "trialTime": 0
        },
        {
            "exptPart": "trial",
            "trialNumber": 57,
            "roleCurrent": "receiver",
            "marblesSampled": 100,
            "probRed": 0.5,
            "practiceLambda": 5,
            "trialLambda": 0.3,
            "instructedLambda": "dishonest_small",
            "sd": 8.1,
            "drawnRed": 60,
            "reportedRed": 58,
            "inferredRed": 66,
            "playerTrialScore": -6,
            "oppTrialScore": 6,
            "playerTotalScore": -1403,
            "oppTotalScore": 70,
            "waitTime": 5529.383133277406,
            "responseTime": 1682385744070,
            "catchQuestion": "How many <b class=\"r\">red<\/b> marbles did your opponent report drawing? ",
            "catchKey": -1,
            "catchResponse": -1,
            "catchTime": 1682385684316,
            "trialTime": 0
        },
        {
            "exptPart": "trial",
            "trialNumber": 58,
            "roleCurrent": "receiver",
            "marblesSampled": 100,
            "probRed": 0.5,
            "practiceLambda": 5,
            "trialLambda": 0.3,
            "instructedLambda": "dishonest_small",
            "sd": 8.1,
            "drawnRed": 64,
            "reportedRed": 69,
            "inferredRed": 34,
            "playerTrialScore": -30,
            "oppTrialScore": 0,
            "playerTotalScore": -1433,
            "oppTotalScore": 70,
            "waitTime": 6272.7528076878225,
            "responseTime": 1682385752635,
            "catchQuestion": "How many <b class=\"r\">red<\/b> marbles did your opponent report drawing? ",
            "catchKey": -1,
            "catchResponse": -1,
            "catchTime": 1682385684316,
            "trialTime": 0
        },
        {
            "exptPart": "trial",
            "trialNumber": 59,
            "roleCurrent": "receiver",
            "marblesSampled": 100,
            "probRed": 0.5,
            "practiceLambda": 5,
            "trialLambda": 0.3,
            "instructedLambda": "dishonest_small",
            "sd": 8.1,
            "drawnRed": 21,
            "reportedRed": 38,
            "inferredRed": 56,
            "playerTrialScore": -35,
            "oppTrialScore": 35,
            "playerTotalScore": -1468,
            "oppTotalScore": 105,
            "waitTime": 6491.89586158408,
            "responseTime": 1682385760686,
            "catchQuestion": "How many <b class=\"r\">red<\/b> marbles did your opponent report drawing? ",
            "catchKey": -1,
            "catchResponse": -1,
            "catchTime": 1682385684316,
            "trialTime": 0
        },
        {
            "exptPart": "trial",
            "trialNumber": 60,
            "roleCurrent": "receiver",
            "marblesSampled": 100,
            "probRed": 0.5,
            "practiceLambda": 5,
            "trialLambda": 0.3,
            "instructedLambda": "dishonest_small",
            "sd": 8.1,
            "drawnRed": 44,
            "reportedRed": 55,
            "inferredRed": 23,
            "playerTrialScore": -21,
            "oppTrialScore": 0,
            "playerTotalScore": -1489,
            "oppTotalScore": 105,
            "waitTime": 5793.2418545386545,
            "responseTime": 1682385767901,
            "catchQuestion": "How many <b class=\"r\">red<\/b> marbles did your opponent report drawing? ",
            "catchKey": -1,
            "catchResponse": -1,
            "catchTime": 1682385767901,
            "trialTime": 0
        },
        {
            "exptPart": "trial",
            "trialNumber": 61,
            "roleCurrent": "receiver",
            "marblesSampled": 100,
            "probRed": 0.5,
            "practiceLambda": 5,
            "trialLambda": 0.3,
            "instructedLambda": "dishonest_small",
            "sd": 8.1,
            "drawnRed": 44,
            "reportedRed": 31,
            "inferredRed": 33,
            "playerTrialScore": -11,
            "oppTrialScore": 0,
            "playerTotalScore": -1500,
            "oppTotalScore": 105,
            "waitTime": 5625.993915423502,
            "responseTime": 1682385777099,
            "catchQuestion": "How many <b class=\"r\">red<\/b> marbles did your opponent report drawing? ",
            "catchKey": -1,
            "catchResponse": -1,
            "catchTime": 1682385767901,
            "trialTime": 0
        },
        {
            "exptPart": "trial",
            "trialNumber": 62,
            "roleCurrent": "receiver",
            "marblesSampled": 100,
            "probRed": 0.5,
            "practiceLambda": 5,
            "trialLambda": 0.3,
            "instructedLambda": "dishonest_small",
            "sd": 8.1,
            "drawnRed": 41,
            "reportedRed": 52,
            "inferredRed": 12,
            "playerTrialScore": -29,
            "oppTrialScore": 0,
            "playerTotalScore": -1529,
            "oppTotalScore": 105,
            "waitTime": 6802.140111550745,
            "responseTime": 1682385785333,
            "catchQuestion": "How many <b class=\"r\">red<\/b> marbles did your opponent report drawing? ",
            "catchKey": -1,
            "catchResponse": -1,
            "catchTime": 1682385767901,
            "trialTime": 0
        },
        {
            "exptPart": "trial",
            "trialNumber": 63,
            "roleCurrent": "receiver",
            "marblesSampled": 100,
            "probRed": 0.5,
            "practiceLambda": 5,
            "trialLambda": 0.3,
            "instructedLambda": "dishonest_small",
            "sd": 8.1,
            "drawnRed": 22,
            "reportedRed": 28,
            "inferredRed": 2,
            "playerTrialScore": -20,
            "oppTrialScore": 0,
            "playerTotalScore": -1549,
            "oppTotalScore": 105,
            "waitTime": 5998.162900329804,
            "responseTime": 1682385793204,
            "catchQuestion": "How many <b class=\"r\">red<\/b> marbles did your opponent report drawing? ",
            "catchKey": -1,
            "catchResponse": -1,
            "catchTime": 1682385767901,
            "trialTime": 0
        },
        {
            "exptPart": "trial",
            "trialNumber": 64,
            "roleCurrent": "receiver",
            "marblesSampled": 100,
            "probRed": 0.5,
            "practiceLambda": 5,
            "trialLambda": 0.3,
            "instructedLambda": "dishonest_small",
            "sd": 8.1,
            "drawnRed": 50,
            "reportedRed": 59,
            "inferredRed": 45,
            "playerTrialScore": -5,
            "oppTrialScore": 0,
            "playerTotalScore": -1554,
            "oppTotalScore": 105,
            "waitTime": 5721.875214826782,
            "responseTime": 1682385801518,
            "catchQuestion": "How many <b class=\"r\">red<\/b> marbles did your opponent report drawing? ",
            "catchKey": -1,
            "catchResponse": -1,
            "catchTime": 1682385767901,
            "trialTime": 0
        },
        {
            "exptPart": "trial",
            "trialNumber": 65,
            "roleCurrent": "receiver",
            "marblesSampled": 100,
            "probRed": 0.5,
            "practiceLambda": 5,
            "trialLambda": 0.3,
            "instructedLambda": "dishonest_small",
            "sd": 8.1,
            "drawnRed": 54,
            "reportedRed": 41,
            "inferredRed": 22,
            "playerTrialScore": -32,
            "oppTrialScore": 0,
            "playerTotalScore": -1586,
            "oppTotalScore": 105,
            "waitTime": 5259.987522156824,
            "responseTime": 1682385809367,
            "catchQuestion": "How many <b class=\"r\">red<\/b> marbles did your opponent report drawing? ",
            "catchKey": -1,
            "catchResponse": -1,
            "catchTime": 1682385767901,
            "trialTime": 0
        },
        {
            "exptPart": "trial",
            "trialNumber": 66,
            "roleCurrent": "receiver",
            "marblesSampled": 100,
            "probRed": 0.5,
            "practiceLambda": 5,
            "trialLambda": 0.3,
            "instructedLambda": "dishonest_small",
            "sd": 8.1,
            "drawnRed": 26,
            "reportedRed": 20,
            "inferredRed": 12,
            "playerTrialScore": -14,
            "oppTrialScore": 0,
            "playerTotalScore": -1600,
            "oppTotalScore": 105,
            "waitTime": 5151.371023977657,
            "responseTime": 1682385816689,
            "catchQuestion": "How many <b class=\"r\">red<\/b> marbles did your opponent report drawing? ",
            "catchKey": 20,
            "catchResponse": 20,
            "catchTime": 1682385816689,
            "trialTime": 0
        },
        {
            "exptPart": "trial",
            "trialNumber": 67,
            "roleCurrent": "receiver",
            "marblesSampled": 100,
            "probRed": 0.5,
            "practiceLambda": 5,
            "trialLambda": 0.3,
            "instructedLambda": "dishonest_small",
            "sd": 8.1,
            "drawnRed": 46,
            "reportedRed": 39,
            "inferredRed": 23,
            "playerTrialScore": -23,
            "oppTrialScore": 0,
            "playerTotalScore": -1623,
            "oppTotalScore": 105,
            "waitTime": 5988.236459706298,
            "responseTime": 1682385828042,
            "catchQuestion": "How many <b class=\"r\">red<\/b> marbles did your opponent report drawing? ",
            "catchKey": -1,
            "catchResponse": -1,
            "catchTime": 1682385816689,
            "trialTime": 0
        },
        {
            "exptPart": "trial",
            "trialNumber": 68,
            "roleCurrent": "receiver",
            "marblesSampled": 100,
            "probRed": 0.5,
            "practiceLambda": 5,
            "trialLambda": 0.3,
            "instructedLambda": "dishonest_small",
            "sd": 8.1,
            "drawnRed": 45,
            "reportedRed": 42,
            "inferredRed": 2,
            "playerTrialScore": -43,
            "oppTrialScore": 0,
            "playerTotalScore": -1666,
            "oppTotalScore": 105,
            "waitTime": 7236.759275261909,
            "responseTime": 1682385837162,
            "catchQuestion": "How many <b class=\"r\">red<\/b> marbles did your opponent report drawing? ",
            "catchKey": -1,
            "catchResponse": -1,
            "catchTime": 1682385816689,
            "trialTime": 0
        },
        {
            "exptPart": "trial",
            "trialNumber": 69,
            "roleCurrent": "receiver",
            "marblesSampled": 100,
            "probRed": 0.5,
            "practiceLambda": 5,
            "trialLambda": 0.3,
            "instructedLambda": "dishonest_small",
            "sd": 8.1,
            "drawnRed": 22,
            "reportedRed": 29,
            "inferredRed": 2,
            "playerTrialScore": -20,
            "oppTrialScore": 0,
            "playerTotalScore": -1686,
            "oppTotalScore": 105,
            "waitTime": 5431.273536746841,
            "responseTime": 1682385853681,
            "catchQuestion": "How many <b class=\"r\">red<\/b> marbles did your opponent report drawing? ",
            "catchKey": -1,
            "catchResponse": -1,
            "catchTime": 1682385816689,
            "trialTime": 0
        },
        {
            "exptPart": "trial",
            "trialNumber": 70,
            "roleCurrent": "receiver",
            "marblesSampled": 100,
            "probRed": 0.5,
            "practiceLambda": 5,
            "trialLambda": 0.3,
            "instructedLambda": "dishonest_small",
            "sd": 8.1,
            "drawnRed": 13,
            "reportedRed": 23,
            "inferredRed": 12,
            "playerTrialScore": -1,
            "oppTrialScore": 0,
            "playerTotalScore": -1687,
            "oppTotalScore": 105,
            "waitTime": 5444.870393376031,
            "responseTime": 1682385861701,
            "catchQuestion": "How many <b class=\"r\">red<\/b> marbles did your opponent report drawing? ",
            "catchKey": -1,
            "catchResponse": -1,
            "catchTime": 1682385861701,
            "trialTime": 0
        },
        {
            "exptPart": "trial",
            "trialNumber": 71,
            "roleCurrent": "receiver",
            "marblesSampled": 100,
            "probRed": 0.5,
            "practiceLambda": 5,
            "trialLambda": 0.3,
            "instructedLambda": "dishonest_small",
            "sd": 8.1,
            "drawnRed": 46,
            "reportedRed": 58,
            "inferredRed": 32,
            "playerTrialScore": -14,
            "oppTrialScore": 0,
            "playerTotalScore": -1701,
            "oppTotalScore": 105,
            "waitTime": 6465.208973694141,
            "responseTime": 1682385871760,
            "catchQuestion": "How many <b class=\"r\">red<\/b> marbles did your opponent report drawing? ",
            "catchKey": -1,
            "catchResponse": -1,
            "catchTime": 1682385861701,
            "trialTime": 0
        },
        {
            "exptPart": "trial",
            "trialNumber": 72,
            "roleCurrent": "receiver",
            "marblesSampled": 100,
            "probRed": 0.5,
            "practiceLambda": 5,
            "trialLambda": 0.3,
            "instructedLambda": "dishonest_small",
            "sd": 8.1,
            "drawnRed": 18,
            "reportedRed": 14,
            "inferredRed": 12,
            "playerTrialScore": -6,
            "oppTrialScore": 0,
            "playerTotalScore": -1707,
            "oppTotalScore": 105,
            "waitTime": 7328.948426532819,
            "responseTime": 1682385881240,
            "catchQuestion": "How many <b class=\"r\">red<\/b> marbles did your opponent report drawing? ",
            "catchKey": -1,
            "catchResponse": -1,
            "catchTime": 1682385861701,
            "trialTime": 0
        },
        {
            "exptPart": "trial",
            "trialNumber": 73,
            "roleCurrent": "receiver",
            "marblesSampled": 100,
            "probRed": 0.5,
            "practiceLambda": 5,
            "trialLambda": 0.3,
            "instructedLambda": "dishonest_small",
            "sd": 8.1,
            "drawnRed": 50,
            "reportedRed": 55,
            "inferredRed": 23,
            "playerTrialScore": -27,
            "oppTrialScore": 0,
            "playerTotalScore": -1734,
            "oppTotalScore": 105,
            "waitTime": 6770.040838879577,
            "responseTime": 1682385890240,
            "catchQuestion": "How many <b class=\"r\">red<\/b> marbles did your opponent report drawing? ",
            "catchKey": -1,
            "catchResponse": -1,
            "catchTime": 1682385861701,
            "trialTime": 0
        },
        {
            "exptPart": "trial",
            "trialNumber": 74,
            "roleCurrent": "receiver",
            "marblesSampled": 100,
            "probRed": 0.5,
            "practiceLambda": 5,
            "trialLambda": 0.3,
            "instructedLambda": "dishonest_small",
            "sd": 8.1,
            "drawnRed": 49,
            "reportedRed": 37,
            "inferredRed": 23,
            "playerTrialScore": -26,
            "oppTrialScore": 0,
            "playerTotalScore": -1760,
            "oppTotalScore": 105,
            "waitTime": 6437.056984197598,
            "responseTime": 1682385899434,
            "catchQuestion": "How many <b class=\"r\">red<\/b> marbles did your opponent report drawing? ",
            "catchKey": -1,
            "catchResponse": -1,
            "catchTime": 1682385861701,
            "trialTime": 0
        },
        {
            "exptPart": "trial",
            "trialNumber": 75,
            "roleCurrent": "receiver",
            "marblesSampled": 100,
            "probRed": 0.5,
            "practiceLambda": 5,
            "trialLambda": 0.3,
            "instructedLambda": "dishonest_small",
            "sd": 8.1,
            "drawnRed": 41,
            "reportedRed": 55,
            "inferredRed": 22,
            "playerTrialScore": -19,
            "oppTrialScore": 0,
            "playerTotalScore": -1779,
            "oppTotalScore": 105,
            "waitTime": 6014.352412141496,
            "responseTime": 1682385907105,
            "catchQuestion": "How many <b class=\"r\">red<\/b> marbles did your opponent report drawing? ",
            "catchKey": 55,
            "catchResponse": 55,
            "catchTime": 1682385907105,
            "trialTime": 0
        },
        {
            "exptPart": "trial",
            "trialNumber": 76,
            "roleCurrent": "receiver",
            "marblesSampled": 100,
            "probRed": 0.5,
            "practiceLambda": 5,
            "trialLambda": 0.3,
            "instructedLambda": "dishonest_small",
            "sd": 8.1,
            "drawnRed": 43,
            "reportedRed": 45,
            "inferredRed": 23,
            "playerTrialScore": -20,
            "oppTrialScore": 0,
            "playerTotalScore": -1799,
            "oppTotalScore": 105,
            "waitTime": 7128.88265987207,
            "responseTime": 1682385919932,
            "catchQuestion": "How many <b class=\"r\">red<\/b> marbles did your opponent report drawing? ",
            "catchKey": -1,
            "catchResponse": -1,
            "catchTime": 1682385907105,
            "trialTime": 0
        },
        {
            "exptPart": "trial",
            "trialNumber": 77,
            "roleCurrent": "receiver",
            "marblesSampled": 100,
            "probRed": 0.5,
            "practiceLambda": 5,
            "trialLambda": 0.3,
            "instructedLambda": "dishonest_small",
            "sd": 8.1,
            "drawnRed": 44,
            "reportedRed": 47,
            "inferredRed": 12,
            "playerTrialScore": -32,
            "oppTrialScore": 0,
            "playerTotalScore": -1831,
            "oppTotalScore": 105,
            "waitTime": 7029.309889462505,
            "responseTime": 1682385928785,
            "catchQuestion": "How many <b class=\"r\">red<\/b> marbles did your opponent report drawing? ",
            "catchKey": -1,
            "catchResponse": -1,
            "catchTime": 1682385907105,
            "trialTime": 0
        },
        {
            "exptPart": "trial",
            "trialNumber": 78,
            "roleCurrent": "receiver",
            "marblesSampled": 100,
            "probRed": 0.5,
            "practiceLambda": 5,
            "trialLambda": 0.3,
            "instructedLambda": "dishonest_small",
            "sd": 8.1,
            "drawnRed": 81,
            "reportedRed": 83,
            "inferredRed": 34,
            "playerTrialScore": -47,
            "oppTrialScore": 0,
            "playerTotalScore": -1878,
            "oppTotalScore": 105,
            "waitTime": 5460.483486204429,
            "responseTime": 1682385935566,
            "catchQuestion": "How many <b class=\"r\">red<\/b> marbles did your opponent report drawing? ",
            "catchKey": -1,
            "catchResponse": -1,
            "catchTime": 1682385907105,
            "trialTime": 0
        },
        {
            "exptPart": "trial",
            "trialNumber": 79,
            "roleCurrent": "receiver",
            "marblesSampled": 100,
            "probRed": 0.5,
            "practiceLambda": 5,
            "trialLambda": 0.3,
            "instructedLambda": "dishonest_small",
            "sd": 8.1,
            "drawnRed": 21,
            "reportedRed": 17,
            "inferredRed": 23,
            "playerTrialScore": -2,
            "oppTrialScore": 2,
            "playerTotalScore": -1880,
            "oppTotalScore": 107,
            "waitTime": 5642.667623406804,
            "responseTime": 1682385942594,
            "catchQuestion": "How many <b class=\"r\">red<\/b> marbles did your opponent report drawing? ",
            "catchKey": -1,
            "catchResponse": -1,
            "catchTime": 1682385907105,
            "trialTime": 0
        },
        {
            "exptPart": "trial",
            "trialNumber": 80,
            "roleCurrent": "receiver",
            "marblesSampled": 100,
            "probRed": 0.5,
            "practiceLambda": 5,
            "trialLambda": 0.3,
            "instructedLambda": "dishonest_small",
            "sd": 8.1,
            "drawnRed": 53,
            "reportedRed": 50,
            "inferredRed": 54,
            "playerTrialScore": -1,
            "oppTrialScore": 1,
            "playerTotalScore": -1881,
            "oppTotalScore": 108,
            "waitTime": 5760.575204822163,
            "responseTime": 1682385950308,
            "catchQuestion": "How many <b class=\"r\">red<\/b> marbles did your opponent report drawing? ",
            "catchKey": -1,
            "catchResponse": -1,
            "catchTime": 1682385950308,
            "trialTime": 0
        },
        {
            "exptPart": "trial",
            "trialNumber": 81,
            "roleCurrent": "receiver",
            "marblesSampled": 100,
            "probRed": 0.5,
            "practiceLambda": 5,
            "trialLambda": 0.3,
            "instructedLambda": "dishonest_small",
            "sd": 8.1,
            "drawnRed": 47,
            "reportedRed": 65,
            "inferredRed": 23,
            "playerTrialScore": -24,
            "oppTrialScore": 0,
            "playerTotalScore": -1905,
            "oppTotalScore": 108,
            "waitTime": 7420.073166258217,
            "responseTime": 1682385960763,
            "catchQuestion": "How many <b class=\"r\">red<\/b> marbles did your opponent report drawing? ",
            "catchKey": -1,
            "catchResponse": -1,
            "catchTime": 1682385950308,
            "trialTime": 0
        },
        {
            "exptPart": "trial",
            "trialNumber": 82,
            "roleCurrent": "receiver",
            "marblesSampled": 100,
            "probRed": 0.5,
            "practiceLambda": 5,
            "trialLambda": 0.3,
            "instructedLambda": "dishonest_small",
            "sd": 8.1,
            "drawnRed": 16,
            "reportedRed": 36,
            "inferredRed": 34,
            "playerTrialScore": -18,
            "oppTrialScore": 18,
            "playerTotalScore": -1923,
            "oppTotalScore": 126,
            "waitTime": 5646.89963113316,
            "responseTime": 1682385968319,
            "catchQuestion": "How many <b class=\"r\">red<\/b> marbles did your opponent report drawing? ",
            "catchKey": -1,
            "catchResponse": -1,
            "catchTime": 1682385950308,
            "trialTime": 0
        },
        {
            "exptPart": "trial",
            "trialNumber": 83,
            "roleCurrent": "receiver",
            "marblesSampled": 100,
            "probRed": 0.5,
            "practiceLambda": 5,
            "trialLambda": 0.3,
            "instructedLambda": "dishonest_small",
            "sd": 8.1,
            "drawnRed": 63,
            "reportedRed": 78,
            "inferredRed": 56,
            "playerTrialScore": -7,
            "oppTrialScore": 0,
            "playerTotalScore": -1930,
            "oppTotalScore": 126,
            "waitTime": 6685.312931054746,
            "responseTime": 1682385978477,
            "catchQuestion": "How many <b class=\"r\">red<\/b> marbles did your opponent report drawing? ",
            "catchKey": -1,
            "catchResponse": -1,
            "catchTime": 1682385950308,
            "trialTime": 0
        },
        {
            "exptPart": "trial",
            "trialNumber": 84,
            "roleCurrent": "receiver",
            "marblesSampled": 100,
            "probRed": 0.5,
            "practiceLambda": 5,
            "trialLambda": 0.3,
            "instructedLambda": "dishonest_small",
            "sd": 8.1,
            "drawnRed": 54,
            "reportedRed": 55,
            "inferredRed": 3,
            "playerTrialScore": -51,
            "oppTrialScore": 0,
            "playerTotalScore": -1981,
            "oppTotalScore": 126,
            "waitTime": 6185.416121335375,
            "responseTime": 1682385986123,
            "catchQuestion": "How many <b class=\"r\">red<\/b> marbles did your opponent report drawing? ",
            "catchKey": -1,
            "catchResponse": -1,
            "catchTime": 1682385950308,
            "trialTime": 0
        },
        {
            "exptPart": "trial",
            "trialNumber": 85,
            "roleCurrent": "receiver",
            "marblesSampled": 100,
            "probRed": 0.5,
            "practiceLambda": 5,
            "trialLambda": 0.3,
            "instructedLambda": "dishonest_small",
            "sd": 8.1,
            "drawnRed": 42,
            "reportedRed": 32,
            "inferredRed": 43,
            "playerTrialScore": -1,
            "oppTrialScore": 1,
            "playerTotalScore": -1982,
            "oppTotalScore": 127,
            "waitTime": 5352.742738226177,
            "responseTime": 1682385994205,
            "catchQuestion": "How many <b class=\"r\">red<\/b> marbles did your opponent report drawing? ",
            "catchKey": -1,
            "catchResponse": -1,
            "catchTime": 1682385950308,
            "trialTime": 0
        },
        {
            "exptPart": "trial",
            "trialNumber": 86,
            "roleCurrent": "receiver",
            "marblesSampled": 100,
            "probRed": 0.5,
            "practiceLambda": 5,
            "trialLambda": 0.3,
            "instructedLambda": "dishonest_small",
            "sd": 8.1,
            "drawnRed": 50,
            "reportedRed": 45,
            "inferredRed": 34,
            "playerTrialScore": -16,
            "oppTrialScore": 0,
            "playerTotalScore": -1998,
            "oppTotalScore": 127,
            "waitTime": 6957.193846502951,
            "responseTime": 1682386003526,
            "catchQuestion": "How many <b class=\"r\">red<\/b> marbles did your opponent report drawing? ",
            "catchKey": -1,
            "catchResponse": -1,
            "catchTime": 1682385950308,
            "trialTime": 0
        },
        {
            "exptPart": "trial",
            "trialNumber": 87,
            "roleCurrent": "receiver",
            "marblesSampled": 100,
            "probRed": 0.5,
            "practiceLambda": 5,
            "trialLambda": 0.3,
            "instructedLambda": "dishonest_small",
            "sd": 8.1,
            "drawnRed": 70,
            "reportedRed": 60,
            "inferredRed": 67,
            "playerTrialScore": -3,
            "oppTrialScore": 0,
            "playerTotalScore": -2001,
            "oppTotalScore": 127,
            "waitTime": 5762.375419918315,
            "responseTime": 1682386013895,
            "catchQuestion": "How many <b class=\"r\">red<\/b> marbles did your opponent report drawing? ",
            "catchKey": 60,
            "catchResponse": 60,
            "catchTime": 1682386013896,
            "trialTime": 0
        },
        {
            "exptPart": "trial",
            "trialNumber": 88,
            "roleCurrent": "receiver",
            "marblesSampled": 100,
            "probRed": 0.5,
            "practiceLambda": 5,
            "trialLambda": 0.3,
            "instructedLambda": "dishonest_small",
            "sd": 8.1,
            "drawnRed": 67,
            "reportedRed": 55,
            "inferredRed": 34,
            "playerTrialScore": -33,
            "oppTrialScore": 0,
            "playerTotalScore": -2034,
            "oppTotalScore": 127,
            "waitTime": 5383.571462287004,
            "responseTime": 1682386024743,
            "catchQuestion": "How many <b class=\"r\">red<\/b> marbles did your opponent report drawing? ",
            "catchKey": -1,
            "catchResponse": -1,
            "catchTime": 1682386013896,
            "trialTime": 0
        },
        {
            "exptPart": "trial",
            "trialNumber": 89,
            "roleCurrent": "receiver",
            "marblesSampled": 100,
            "probRed": 0.5,
            "practiceLambda": 5,
            "trialLambda": 0.3,
            "instructedLambda": "dishonest_small",
            "sd": 8.1,
            "drawnRed": 65,
            "reportedRed": 84,
            "inferredRed": 45,
            "playerTrialScore": -20,
            "oppTrialScore": 0,
            "playerTotalScore": -2054,
            "oppTotalScore": 127,
            "waitTime": 7331.666416974113,
            "responseTime": 1682386033736,
            "catchQuestion": "How many <b class=\"r\">red<\/b> marbles did your opponent report drawing? ",
            "catchKey": -1,
            "catchResponse": -1,
            "catchTime": 1682386013896,
            "trialTime": 0
        },
        {
            "exptPart": "trial",
            "trialNumber": 90,
            "roleCurrent": "receiver",
            "marblesSampled": 100,
            "probRed": 0.5,
            "practiceLambda": 5,
            "trialLambda": 0.3,
            "instructedLambda": "dishonest_small",
            "sd": 8.1,
            "drawnRed": 70,
            "reportedRed": 60,
            "inferredRed": 34,
            "playerTrialScore": -36,
            "oppTrialScore": 0,
            "playerTotalScore": -2090,
            "oppTotalScore": 127,
            "waitTime": 5910.800979914305,
            "responseTime": 1682386041407,
            "catchQuestion": "How many <b class=\"r\">red<\/b> marbles did your opponent report drawing? ",
            "catchKey": -1,
            "catchResponse": -1,
            "catchTime": 1682386041407,
            "trialTime": 0
        },
        {
            "exptPart": "trial",
            "trialNumber": 91,
            "roleCurrent": "receiver",
            "marblesSampled": 100,
            "probRed": 0.5,
            "practiceLambda": 5,
            "trialLambda": 0.3,
            "instructedLambda": "dishonest_small",
            "sd": 8.1,
            "drawnRed": 56,
            "reportedRed": 43,
            "inferredRed": 34,
            "playerTrialScore": -22,
            "oppTrialScore": 0,
            "playerTotalScore": -2112,
            "oppTotalScore": 127,
            "waitTime": 7268.528129983251,
            "responseTime": 1682386052140,
            "catchQuestion": "How many <b class=\"r\">red<\/b> marbles did your opponent report drawing? ",
            "catchKey": -1,
            "catchResponse": -1,
            "catchTime": 1682386041407,
            "trialTime": 0
        },
        {
            "exptPart": "trial",
            "trialNumber": 92,
            "roleCurrent": "receiver",
            "marblesSampled": 100,
            "probRed": 0.5,
            "practiceLambda": 5,
            "trialLambda": 0.3,
            "instructedLambda": "dishonest_small",
            "sd": 8.1,
            "drawnRed": 62,
            "reportedRed": 60,
            "inferredRed": 44,
            "playerTrialScore": -18,
            "oppTrialScore": 0,
            "playerTotalScore": -2130,
            "oppTotalScore": 127,
            "waitTime": 5949.752901381156,
            "responseTime": 1682386060622,
            "catchQuestion": "How many <b class=\"r\">red<\/b> marbles did your opponent report drawing? ",
            "catchKey": -1,
            "catchResponse": -1,
            "catchTime": 1682386041407,
            "trialTime": 0
        },
        {
            "exptPart": "trial",
            "trialNumber": 93,
            "roleCurrent": "receiver",
            "marblesSampled": 100,
            "probRed": 0.5,
            "practiceLambda": 5,
            "trialLambda": 0.3,
            "instructedLambda": "dishonest_small",
            "sd": 8.1,
            "drawnRed": 55,
            "reportedRed": 59,
            "inferredRed": 34,
            "playerTrialScore": -21,
            "oppTrialScore": 0,
            "playerTotalScore": -2151,
            "oppTotalScore": 127,
            "waitTime": 6892.235792234693,
            "responseTime": 1682386069992,
            "catchQuestion": "How many <b class=\"r\">red<\/b> marbles did your opponent report drawing? ",
            "catchKey": -1,
            "catchResponse": -1,
            "catchTime": 1682386041407,
            "trialTime": 0
        },
        {
            "exptPart": "trial",
            "trialNumber": 94,
            "roleCurrent": "receiver",
            "marblesSampled": 100,
            "probRed": 0.5,
            "practiceLambda": 5,
            "trialLambda": 0.3,
            "instructedLambda": "dishonest_small",
            "sd": 8.1,
            "drawnRed": 16,
            "reportedRed": 7,
            "inferredRed": 4,
            "playerTrialScore": -12,
            "oppTrialScore": 0,
            "playerTotalScore": -2163,
            "oppTotalScore": 127,
            "waitTime": 5308.951957970729,
            "responseTime": 1682386078179,
            "catchQuestion": "How many <b class=\"r\">red<\/b> marbles did your opponent report drawing? ",
            "catchKey": -1,
            "catchResponse": -1,
            "catchTime": 1682386041407,
            "trialTime": 0
        },
        {
            "exptPart": "trial",
            "trialNumber": 95,
            "roleCurrent": "receiver",
            "marblesSampled": 100,
            "probRed": 0.5,
            "practiceLambda": 5,
            "trialLambda": 0.3,
            "instructedLambda": "dishonest_small",
            "sd": 8.1,
            "drawnRed": 34,
            "reportedRed": 38,
            "inferredRed": 13,
            "playerTrialScore": -21,
            "oppTrialScore": 0,
            "playerTotalScore": -2184,
            "oppTotalScore": 127,
            "waitTime": 6238.4325923260285,
            "responseTime": 1682386087055,
            "catchQuestion": "How many <b class=\"r\">red<\/b> marbles did your opponent report drawing? ",
            "catchKey": -1,
            "catchResponse": -1,
            "catchTime": 1682386041407,
            "trialTime": 0
        },
        {
            "exptPart": "trial",
            "trialNumber": 96,
            "roleCurrent": "receiver",
            "marblesSampled": 100,
            "probRed": 0.5,
            "practiceLambda": 5,
            "trialLambda": 0.3,
            "instructedLambda": "dishonest_small",
            "sd": 8.1,
            "drawnRed": 78,
            "reportedRed": 70,
            "inferredRed": 32,
            "playerTrialScore": -46,
            "oppTrialScore": 0,
            "playerTotalScore": -2230,
            "oppTotalScore": 127,
            "waitTime": 5203.814369835316,
            "responseTime": 1682386094303,
            "catchQuestion": "How many <b class=\"r\">red<\/b> marbles did your opponent report drawing? ",
            "catchKey": -1,
            "catchResponse": -1,
            "catchTime": 1682386041407,
            "trialTime": 0
        },
        {
            "exptPart": "trial",
            "trialNumber": 97,
            "roleCurrent": "receiver",
            "marblesSampled": 100,
            "probRed": 0.5,
            "practiceLambda": 5,
            "trialLambda": 0.3,
            "instructedLambda": "dishonest_small",
            "sd": 8.1,
            "drawnRed": 65,
            "reportedRed": 69,
            "inferredRed": 43,
            "playerTrialScore": -22,
            "oppTrialScore": 0,
            "playerTotalScore": -2252,
            "oppTotalScore": 127,
            "waitTime": 6722.637400167259,
            "responseTime": 1682386103721,
            "catchQuestion": "How many <b class=\"r\">red<\/b> marbles did your opponent report drawing? ",
            "catchKey": 69,
            "catchResponse": 69,
            "catchTime": 1682386103721,
            "trialTime": 0
        },
        {
            "exptPart": "trial",
            "trialNumber": 98,
            "roleCurrent": "receiver",
            "marblesSampled": 100,
            "probRed": 0.5,
            "practiceLambda": 5,
            "trialLambda": 0.3,
            "instructedLambda": "dishonest_small",
            "sd": 8.1,
            "drawnRed": 46,
            "reportedRed": 39,
            "inferredRed": 34,
            "playerTrialScore": -12,
            "oppTrialScore": 0,
            "playerTotalScore": -2264,
            "oppTotalScore": 127,
            "waitTime": 6003.4077189247,
            "responseTime": 1682386117333,
            "catchQuestion": "How many <b class=\"r\">red<\/b> marbles did your opponent report drawing? ",
            "catchKey": -1,
            "catchResponse": -1,
            "catchTime": 1682386103721,
            "trialTime": 0
        },
        {
            "exptPart": "trial",
            "trialNumber": 99,
            "roleCurrent": "receiver",
            "marblesSampled": 100,
            "probRed": 0.5,
            "practiceLambda": 5,
            "trialLambda": 0.3,
            "instructedLambda": "dishonest_small",
            "sd": 8.1,
            "drawnRed": 33,
            "reportedRed": 37,
            "inferredRed": 34,
            "playerTrialScore": -1,
            "oppTrialScore": 1,
            "playerTotalScore": -2265,
            "oppTotalScore": 128,
            "waitTime": 6231.80982254095,
            "responseTime": 1682386125139,
            "catchQuestion": "How many <b class=\"r\">red<\/b> marbles did your opponent report drawing? ",
            "catchKey": -1,
            "catchResponse": -1,
            "catchTime": 1682386103721,
            "trialTime": 0
        },
        {
            "exptPart": "trial",
            "trialNumber": 100,
            "roleCurrent": "receiver",
            "marblesSampled": 100,
            "probRed": 0.5,
            "practiceLambda": 5,
            "trialLambda": 0.3,
            "instructedLambda": "dishonest_small",
            "sd": 8.1,
            "drawnRed": 18,
            "reportedRed": 18,
            "inferredRed": 23,
            "playerTrialScore": -5,
            "oppTrialScore": 5,
            "playerTotalScore": -2270,
            "oppTotalScore": 133,
            "waitTime": 6106.410787063032,
            "responseTime": 1682386132697,
            "catchQuestion": "How many <b class=\"r\">red<\/b> marbles did your opponent report drawing? ",
            "catchKey": -1,
            "catchResponse": -1,
            "catchTime": 1682386132697,
            "trialTime": 0
        }
    ]
}