{
    "client": {
        "type": "sona",
        "experiment_id": 2228,
        "credit_token": "b315147ae43241ea9c65086cb510cfb7",
        "survey_code": "45845",
        "sid": "sona-45845",
        "window": {
            "width": 1440,
            "height": 743
        },
        "screen": {
            "width": 1440,
            "height": 900
        },
        "userAgent": "Mozilla\/5.0 (Macintosh; Intel Mac OS X 10_15_7) AppleWebKit\/537.36 (KHTML, like Gecko) Chrome\/112.0.0.0 Safari\/537.36",
        "score": 0,
        "bonus": 0
    },
    "expt": {
        "saveURL": "submit.simple.php",
        "trials": 100,
        "practiceTrials": 2,
        "marblesSampled": 100,
        "probRed": 0.5,
        "practiceLambdaAI": 5,
        "lambdaAI": 8.1,
        "sd": 8.1,
        "roles": [
            "sender",
            "receiver"
        ],
        "cost": "unif",
        "goal": "over",
        "oppDishonesty": "dishonest_small",
        "catchTrials": [
            87,
            18,
            71,
            89,
            45,
            33,
            84,
            83,
            85,
            61
        ],
        "scoreTotal": {
            "player": -949,
            "opp": 567
        },
        "sona": {
            "experiment_id": 2228,
            "credit_token": "b315147ae43241ea9c65086cb510cfb7"
        },
        "pilot": false,
        "debug": false
    },
    "trials": [
        {
            "exptPart": "practice",
            "trialNumber": 1,
            "roleCurrent": "sender",
            "marblesSampled": 100,
            "probRed": 0.5,
            "practiceLambda": 5,
            "trialLambda": 8.1,
            "instructedLambda": "dishonest_small",
            "sd": 8.1,
            "drawnRed": 71,
            "reportedRed": 43,
            "inferredRed": 45,
            "playerTrialScore": 0,
            "oppTrialScore": -26,
            "playerTotalScore": 0,
            "oppTotalScore": -26,
            "waitTime": 3050.5658597868705,
            "responseTime": 1682397899560,
            "catchQuestion": "How many <b class=\"r\">red<\/b> marbles did you actually draw (before any changes)? ",
            "catchKey": 71,
            "catchResponse": 43,
            "catchTime": 1682397899560,
            "trialTime": 0
        },
        {
            "exptPart": "practice",
            "trialNumber": 2,
            "roleCurrent": "receiver",
            "marblesSampled": 100,
            "probRed": 0.5,
            "practiceLambda": 5,
            "trialLambda": 8.1,
            "instructedLambda": "dishonest_small",
            "sd": 8.1,
            "drawnRed": 16,
            "reportedRed": 38,
            "inferredRed": 43,
            "playerTrialScore": -27,
            "oppTrialScore": 27,
            "playerTotalScore": -27,
            "oppTotalScore": 1,
            "waitTime": 6521.244883698633,
            "responseTime": 1682398051006,
            "catchQuestion": "How many <b class=\"r\">red<\/b> marbles did your opponent report drawing? ",
            "catchKey": 38,
            "catchResponse": 45,
            "catchTime": 1682398051006,
            "trialTime": 0
        },
        {
            "exptPart": "trial",
            "trialNumber": 1,
            "roleCurrent": "receiver",
            "marblesSampled": 100,
            "probRed": 0.5,
            "practiceLambda": 5,
            "trialLambda": 8.1,
            "instructedLambda": "dishonest_small",
            "sd": 8.1,
            "drawnRed": 40,
            "reportedRed": 52,
            "inferredRed": 38,
            "playerTrialScore": -2,
            "oppTrialScore": 0,
            "playerTotalScore": -2,
            "oppTotalScore": 0,
            "waitTime": 6123.7939200581495,
            "responseTime": 1682398089247,
            "catchQuestion": "How many <b class=\"r\">red<\/b> marbles did your opponent report drawing? ",
            "catchKey": -1,
            "catchResponse": -1,
            "catchTime": 1682398051006,
            "trialTime": 0
        },
        {
            "exptPart": "trial",
            "trialNumber": 2,
            "roleCurrent": "receiver",
            "marblesSampled": 100,
            "probRed": 0.5,
            "practiceLambda": 5,
            "trialLambda": 8.1,
            "instructedLambda": "dishonest_small",
            "sd": 8.1,
            "drawnRed": 45,
            "reportedRed": 41,
            "inferredRed": 40,
            "playerTrialScore": -5,
            "oppTrialScore": 0,
            "playerTotalScore": -7,
            "oppTotalScore": 0,
            "waitTime": 5129.993131651836,
            "responseTime": 1682398104709,
            "catchQuestion": "How many <b class=\"r\">red<\/b> marbles did your opponent report drawing? ",
            "catchKey": -1,
            "catchResponse": -1,
            "catchTime": 1682398051006,
            "trialTime": 0
        },
        {
            "exptPart": "trial",
            "trialNumber": 3,
            "roleCurrent": "receiver",
            "marblesSampled": 100,
            "probRed": 0.5,
            "practiceLambda": 5,
            "trialLambda": 8.1,
            "instructedLambda": "dishonest_small",
            "sd": 8.1,
            "drawnRed": 93,
            "reportedRed": 100,
            "inferredRed": 50,
            "playerTrialScore": -43,
            "oppTrialScore": 0,
            "playerTotalScore": -50,
            "oppTotalScore": 0,
            "waitTime": 5178.939771369976,
            "responseTime": 1682398117948,
            "catchQuestion": "How many <b class=\"r\">red<\/b> marbles did your opponent report drawing? ",
            "catchKey": -1,
            "catchResponse": -1,
            "catchTime": 1682398051006,
            "trialTime": 0
        },
        {
            "exptPart": "trial",
            "trialNumber": 4,
            "roleCurrent": "receiver",
            "marblesSampled": 100,
            "probRed": 0.5,
            "practiceLambda": 5,
            "trialLambda": 8.1,
            "instructedLambda": "dishonest_small",
            "sd": 8.1,
            "drawnRed": 41,
            "reportedRed": 54,
            "inferredRed": 52,
            "playerTrialScore": -11,
            "oppTrialScore": 11,
            "playerTotalScore": -61,
            "oppTotalScore": 11,
            "waitTime": 7138.073746464978,
            "responseTime": 1682398151027,
            "catchQuestion": "How many <b class=\"r\">red<\/b> marbles did your opponent report drawing? ",
            "catchKey": -1,
            "catchResponse": -1,
            "catchTime": 1682398051006,
            "trialTime": 0
        },
        {
            "exptPart": "trial",
            "trialNumber": 5,
            "roleCurrent": "receiver",
            "marblesSampled": 100,
            "probRed": 0.5,
            "practiceLambda": 5,
            "trialLambda": 8.1,
            "instructedLambda": "dishonest_small",
            "sd": 8.1,
            "drawnRed": 83,
            "reportedRed": 86,
            "inferredRed": 73,
            "playerTrialScore": -10,
            "oppTrialScore": 0,
            "playerTotalScore": -71,
            "oppTotalScore": 11,
            "waitTime": 7350.3572956448115,
            "responseTime": 1682398172727,
            "catchQuestion": "How many <b class=\"r\">red<\/b> marbles did your opponent report drawing? ",
            "catchKey": -1,
            "catchResponse": -1,
            "catchTime": 1682398051006,
            "trialTime": 0
        },
        {
            "exptPart": "trial",
            "trialNumber": 6,
            "roleCurrent": "receiver",
            "marblesSampled": 100,
            "probRed": 0.5,
            "practiceLambda": 5,
            "trialLambda": 8.1,
            "instructedLambda": "dishonest_small",
            "sd": 8.1,
            "drawnRed": 19,
            "reportedRed": 27,
            "inferredRed": 20,
            "playerTrialScore": -1,
            "oppTrialScore": 1,
            "playerTotalScore": -72,
            "oppTotalScore": 12,
            "waitTime": 5935.685463978322,
            "responseTime": 1682398204103,
            "catchQuestion": "How many <b class=\"r\">red<\/b> marbles did your opponent report drawing? ",
            "catchKey": -1,
            "catchResponse": -1,
            "catchTime": 1682398051006,
            "trialTime": 0
        },
        {
            "exptPart": "trial",
            "trialNumber": 7,
            "roleCurrent": "receiver",
            "marblesSampled": 100,
            "probRed": 0.5,
            "practiceLambda": 5,
            "trialLambda": 8.1,
            "instructedLambda": "dishonest_small",
            "sd": 8.1,
            "drawnRed": 38,
            "reportedRed": 50,
            "inferredRed": 40,
            "playerTrialScore": -2,
            "oppTrialScore": 2,
            "playerTotalScore": -74,
            "oppTotalScore": 14,
            "waitTime": 5625.476596659675,
            "responseTime": 1682398222540,
            "catchQuestion": "How many <b class=\"r\">red<\/b> marbles did your opponent report drawing? ",
            "catchKey": -1,
            "catchResponse": -1,
            "catchTime": 1682398051006,
            "trialTime": 0
        },
        {
            "exptPart": "trial",
            "trialNumber": 8,
            "roleCurrent": "receiver",
            "marblesSampled": 100,
            "probRed": 0.5,
            "practiceLambda": 5,
            "trialLambda": 8.1,
            "instructedLambda": "dishonest_small",
            "sd": 8.1,
            "drawnRed": 39,
            "reportedRed": 43,
            "inferredRed": 52,
            "playerTrialScore": -13,
            "oppTrialScore": 13,
            "playerTotalScore": -87,
            "oppTotalScore": 27,
            "waitTime": 5193.411336802254,
            "responseTime": 1682398235329,
            "catchQuestion": "How many <b class=\"r\">red<\/b> marbles did your opponent report drawing? ",
            "catchKey": -1,
            "catchResponse": -1,
            "catchTime": 1682398051006,
            "trialTime": 0
        },
        {
            "exptPart": "trial",
            "trialNumber": 9,
            "roleCurrent": "receiver",
            "marblesSampled": 100,
            "probRed": 0.5,
            "practiceLambda": 5,
            "trialLambda": 8.1,
            "instructedLambda": "dishonest_small",
            "sd": 8.1,
            "drawnRed": 21,
            "reportedRed": 29,
            "inferredRed": 30,
            "playerTrialScore": -9,
            "oppTrialScore": 9,
            "playerTotalScore": -96,
            "oppTotalScore": 36,
            "waitTime": 7000.6287185729725,
            "responseTime": 1682398270636,
            "catchQuestion": "How many <b class=\"r\">red<\/b> marbles did your opponent report drawing? ",
            "catchKey": -1,
            "catchResponse": -1,
            "catchTime": 1682398051006,
            "trialTime": 0
        },
        {
            "exptPart": "trial",
            "trialNumber": 10,
            "roleCurrent": "receiver",
            "marblesSampled": 100,
            "probRed": 0.5,
            "practiceLambda": 5,
            "trialLambda": 8.1,
            "instructedLambda": "dishonest_small",
            "sd": 8.1,
            "drawnRed": 26,
            "reportedRed": 26,
            "inferredRed": 28,
            "playerTrialScore": -2,
            "oppTrialScore": 2,
            "playerTotalScore": -98,
            "oppTotalScore": 38,
            "waitTime": 5679.790482248531,
            "responseTime": 1682398294682,
            "catchQuestion": "How many <b class=\"r\">red<\/b> marbles did your opponent report drawing? ",
            "catchKey": -1,
            "catchResponse": -1,
            "catchTime": 1682398294682,
            "trialTime": 0
        },
        {
            "exptPart": "trial",
            "trialNumber": 11,
            "roleCurrent": "receiver",
            "marblesSampled": 100,
            "probRed": 0.5,
            "practiceLambda": 5,
            "trialLambda": 8.1,
            "instructedLambda": "dishonest_small",
            "sd": 8.1,
            "drawnRed": 30,
            "reportedRed": 48,
            "inferredRed": 50,
            "playerTrialScore": -20,
            "oppTrialScore": 20,
            "playerTotalScore": -118,
            "oppTotalScore": 58,
            "waitTime": 6885.12398837412,
            "responseTime": 1682398327531,
            "catchQuestion": "How many <b class=\"r\">red<\/b> marbles did your opponent report drawing? ",
            "catchKey": -1,
            "catchResponse": -1,
            "catchTime": 1682398294682,
            "trialTime": 0
        },
        {
            "exptPart": "trial",
            "trialNumber": 12,
            "roleCurrent": "receiver",
            "marblesSampled": 100,
            "probRed": 0.5,
            "practiceLambda": 5,
            "trialLambda": 8.1,
            "instructedLambda": "dishonest_small",
            "sd": 8.1,
            "drawnRed": 33,
            "reportedRed": 51,
            "inferredRed": 49,
            "playerTrialScore": -16,
            "oppTrialScore": 16,
            "playerTotalScore": -134,
            "oppTotalScore": 74,
            "waitTime": 5935.198379888264,
            "responseTime": 1682398342060,
            "catchQuestion": "How many <b class=\"r\">red<\/b> marbles did your opponent report drawing? ",
            "catchKey": -1,
            "catchResponse": -1,
            "catchTime": 1682398294682,
            "trialTime": 0
        },
        {
            "exptPart": "trial",
            "trialNumber": 13,
            "roleCurrent": "receiver",
            "marblesSampled": 100,
            "probRed": 0.5,
            "practiceLambda": 5,
            "trialLambda": 8.1,
            "instructedLambda": "dishonest_small",
            "sd": 8.1,
            "drawnRed": 74,
            "reportedRed": 80,
            "inferredRed": 75,
            "playerTrialScore": -1,
            "oppTrialScore": 1,
            "playerTotalScore": -135,
            "oppTotalScore": 75,
            "waitTime": 5275.738731535689,
            "responseTime": 1682398380954,
            "catchQuestion": "How many <b class=\"r\">red<\/b> marbles did your opponent report drawing? ",
            "catchKey": -1,
            "catchResponse": -1,
            "catchTime": 1682398294682,
            "trialTime": 0
        },
        {
            "exptPart": "trial",
            "trialNumber": 14,
            "roleCurrent": "receiver",
            "marblesSampled": 100,
            "probRed": 0.5,
            "practiceLambda": 5,
            "trialLambda": 8.1,
            "instructedLambda": "dishonest_small",
            "sd": 8.1,
            "drawnRed": 79,
            "reportedRed": 91,
            "inferredRed": 9,
            "playerTrialScore": -70,
            "oppTrialScore": 0,
            "playerTotalScore": -205,
            "oppTotalScore": 75,
            "waitTime": 6708.236753342583,
            "responseTime": 1682398395816,
            "catchQuestion": "How many <b class=\"r\">red<\/b> marbles did your opponent report drawing? ",
            "catchKey": -1,
            "catchResponse": -1,
            "catchTime": 1682398294682,
            "trialTime": 0
        },
        {
            "exptPart": "trial",
            "trialNumber": 15,
            "roleCurrent": "receiver",
            "marblesSampled": 100,
            "probRed": 0.5,
            "practiceLambda": 5,
            "trialLambda": 8.1,
            "instructedLambda": "dishonest_small",
            "sd": 8.1,
            "drawnRed": 68,
            "reportedRed": 80,
            "inferredRed": 99,
            "playerTrialScore": -31,
            "oppTrialScore": 31,
            "playerTotalScore": -236,
            "oppTotalScore": 106,
            "waitTime": 6217.740838339609,
            "responseTime": 1682398412533,
            "catchQuestion": "How many <b class=\"r\">red<\/b> marbles did your opponent report drawing? ",
            "catchKey": -1,
            "catchResponse": -1,
            "catchTime": 1682398294682,
            "trialTime": 0
        },
        {
            "exptPart": "trial",
            "trialNumber": 16,
            "roleCurrent": "receiver",
            "marblesSampled": 100,
            "probRed": 0.5,
            "practiceLambda": 5,
            "trialLambda": 8.1,
            "instructedLambda": "dishonest_small",
            "sd": 8.1,
            "drawnRed": 52,
            "reportedRed": 50,
            "inferredRed": 45,
            "playerTrialScore": -7,
            "oppTrialScore": 0,
            "playerTotalScore": -243,
            "oppTotalScore": 106,
            "waitTime": 6123.240021863288,
            "responseTime": 1682398425270,
            "catchQuestion": "How many <b class=\"r\">red<\/b> marbles did your opponent report drawing? ",
            "catchKey": -1,
            "catchResponse": -1,
            "catchTime": 1682398294682,
            "trialTime": 0
        },
        {
            "exptPart": "trial",
            "trialNumber": 17,
            "roleCurrent": "receiver",
            "marblesSampled": 100,
            "probRed": 0.5,
            "practiceLambda": 5,
            "trialLambda": 8.1,
            "instructedLambda": "dishonest_small",
            "sd": 8.1,
            "drawnRed": 40,
            "reportedRed": 51,
            "inferredRed": 43,
            "playerTrialScore": -3,
            "oppTrialScore": 3,
            "playerTotalScore": -246,
            "oppTotalScore": 109,
            "waitTime": 6199.670873745265,
            "responseTime": 1682398452271,
            "catchQuestion": "How many <b class=\"r\">red<\/b> marbles did your opponent report drawing? ",
            "catchKey": -1,
            "catchResponse": -1,
            "catchTime": 1682398294682,
            "trialTime": 0
        },
        {
            "exptPart": "trial",
            "trialNumber": 18,
            "roleCurrent": "receiver",
            "marblesSampled": 100,
            "probRed": 0.5,
            "practiceLambda": 5,
            "trialLambda": 8.1,
            "instructedLambda": "dishonest_small",
            "sd": 8.1,
            "drawnRed": 35,
            "reportedRed": 45,
            "inferredRed": 38,
            "playerTrialScore": -3,
            "oppTrialScore": 3,
            "playerTotalScore": -249,
            "oppTotalScore": 112,
            "waitTime": 5829.898204951905,
            "responseTime": 1682398472467,
            "catchQuestion": "How many <b class=\"r\">red<\/b> marbles did your opponent report drawing? ",
            "catchKey": -1,
            "catchResponse": -1,
            "catchTime": 1682398294682,
            "trialTime": 0
        },
        {
            "exptPart": "trial",
            "trialNumber": 19,
            "roleCurrent": "receiver",
            "marblesSampled": 100,
            "probRed": 0.5,
            "practiceLambda": 5,
            "trialLambda": 8.1,
            "instructedLambda": "dishonest_small",
            "sd": 8.1,
            "drawnRed": 84,
            "reportedRed": 100,
            "inferredRed": 100,
            "playerTrialScore": -16,
            "oppTrialScore": 16,
            "playerTotalScore": -265,
            "oppTotalScore": 128,
            "waitTime": 5743.841481987807,
            "responseTime": 1682398486055,
            "catchQuestion": "How many <b class=\"r\">red<\/b> marbles did your opponent report drawing? ",
            "catchKey": 100,
            "catchResponse": 100,
            "catchTime": 1682398486055,
            "trialTime": 0
        },
        {
            "exptPart": "trial",
            "trialNumber": 20,
            "roleCurrent": "receiver",
            "marblesSampled": 100,
            "probRed": 0.5,
            "practiceLambda": 5,
            "trialLambda": 8.1,
            "instructedLambda": "dishonest_small",
            "sd": 8.1,
            "drawnRed": 51,
            "reportedRed": 72,
            "inferredRed": 75,
            "playerTrialScore": -24,
            "oppTrialScore": 24,
            "playerTotalScore": -289,
            "oppTotalScore": 152,
            "waitTime": 5646.534613935674,
            "responseTime": 1682398506707,
            "catchQuestion": "How many <b class=\"r\">red<\/b> marbles did your opponent report drawing? ",
            "catchKey": -1,
            "catchResponse": -1,
            "catchTime": 1682398506707,
            "trialTime": 0
        },
        {
            "exptPart": "trial",
            "trialNumber": 21,
            "roleCurrent": "receiver",
            "marblesSampled": 100,
            "probRed": 0.5,
            "practiceLambda": 5,
            "trialLambda": 8.1,
            "instructedLambda": "dishonest_small",
            "sd": 8.1,
            "drawnRed": 28,
            "reportedRed": 30,
            "inferredRed": 25,
            "playerTrialScore": -3,
            "oppTrialScore": 0,
            "playerTotalScore": -292,
            "oppTotalScore": 152,
            "waitTime": 6437.04646579907,
            "responseTime": 1682398546990,
            "catchQuestion": "How many <b class=\"r\">red<\/b> marbles did your opponent report drawing? ",
            "catchKey": -1,
            "catchResponse": -1,
            "catchTime": 1682398506707,
            "trialTime": 0
        },
        {
            "exptPart": "trial",
            "trialNumber": 22,
            "roleCurrent": "receiver",
            "marblesSampled": 100,
            "probRed": 0.5,
            "practiceLambda": 5,
            "trialLambda": 8.1,
            "instructedLambda": "dishonest_small",
            "sd": 8.1,
            "drawnRed": 65,
            "reportedRed": 74,
            "inferredRed": 80,
            "playerTrialScore": -15,
            "oppTrialScore": 15,
            "playerTotalScore": -307,
            "oppTotalScore": 167,
            "waitTime": 7300.614773003813,
            "responseTime": 1682398562344,
            "catchQuestion": "How many <b class=\"r\">red<\/b> marbles did your opponent report drawing? ",
            "catchKey": -1,
            "catchResponse": -1,
            "catchTime": 1682398506707,
            "trialTime": 0
        },
        {
            "exptPart": "trial",
            "trialNumber": 23,
            "roleCurrent": "receiver",
            "marblesSampled": 100,
            "probRed": 0.5,
            "practiceLambda": 5,
            "trialLambda": 8.1,
            "instructedLambda": "dishonest_small",
            "sd": 8.1,
            "drawnRed": 73,
            "reportedRed": 86,
            "inferredRed": 86,
            "playerTrialScore": -13,
            "oppTrialScore": 13,
            "playerTotalScore": -320,
            "oppTotalScore": 180,
            "waitTime": 7495.7438028373745,
            "responseTime": 1682398580273,
            "catchQuestion": "How many <b class=\"r\">red<\/b> marbles did your opponent report drawing? ",
            "catchKey": -1,
            "catchResponse": -1,
            "catchTime": 1682398506707,
            "trialTime": 0
        },
        {
            "exptPart": "trial",
            "trialNumber": 24,
            "roleCurrent": "receiver",
            "marblesSampled": 100,
            "probRed": 0.5,
            "practiceLambda": 5,
            "trialLambda": 8.1,
            "instructedLambda": "dishonest_small",
            "sd": 8.1,
            "drawnRed": 71,
            "reportedRed": 74,
            "inferredRed": 70,
            "playerTrialScore": -1,
            "oppTrialScore": 0,
            "playerTotalScore": -321,
            "oppTotalScore": 180,
            "waitTime": 7473.356448860411,
            "responseTime": 1682398593679,
            "catchQuestion": "How many <b class=\"r\">red<\/b> marbles did your opponent report drawing? ",
            "catchKey": -1,
            "catchResponse": -1,
            "catchTime": 1682398506707,
            "trialTime": 0
        },
        {
            "exptPart": "trial",
            "trialNumber": 25,
            "roleCurrent": "receiver",
            "marblesSampled": 100,
            "probRed": 0.5,
            "practiceLambda": 5,
            "trialLambda": 8.1,
            "instructedLambda": "dishonest_small",
            "sd": 8.1,
            "drawnRed": 69,
            "reportedRed": 71,
            "inferredRed": 52,
            "playerTrialScore": -17,
            "oppTrialScore": 0,
            "playerTotalScore": -338,
            "oppTotalScore": 180,
            "waitTime": 6693.08495864118,
            "responseTime": 1682398608291,
            "catchQuestion": "How many <b class=\"r\">red<\/b> marbles did your opponent report drawing? ",
            "catchKey": -1,
            "catchResponse": -1,
            "catchTime": 1682398506707,
            "trialTime": 0
        },
        {
            "exptPart": "trial",
            "trialNumber": 26,
            "roleCurrent": "receiver",
            "marblesSampled": 100,
            "probRed": 0.5,
            "practiceLambda": 5,
            "trialLambda": 8.1,
            "instructedLambda": "dishonest_small",
            "sd": 8.1,
            "drawnRed": 36,
            "reportedRed": 42,
            "inferredRed": 40,
            "playerTrialScore": -4,
            "oppTrialScore": 4,
            "playerTotalScore": -342,
            "oppTotalScore": 184,
            "waitTime": 7366.742372869005,
            "responseTime": 1682398629332,
            "catchQuestion": "How many <b class=\"r\">red<\/b> marbles did your opponent report drawing? ",
            "catchKey": -1,
            "catchResponse": -1,
            "catchTime": 1682398506707,
            "trialTime": 0
        },
        {
            "exptPart": "trial",
            "trialNumber": 27,
            "roleCurrent": "receiver",
            "marblesSampled": 100,
            "probRed": 0.5,
            "practiceLambda": 5,
            "trialLambda": 8.1,
            "instructedLambda": "dishonest_small",
            "sd": 8.1,
            "drawnRed": 60,
            "reportedRed": 76,
            "inferredRed": 70,
            "playerTrialScore": -10,
            "oppTrialScore": 10,
            "playerTotalScore": -352,
            "oppTotalScore": 194,
            "waitTime": 5419.219167626266,
            "responseTime": 1682398639154,
            "catchQuestion": "How many <b class=\"r\">red<\/b> marbles did your opponent report drawing? ",
            "catchKey": -1,
            "catchResponse": -1,
            "catchTime": 1682398506707,
            "trialTime": 0
        },
        {
            "exptPart": "trial",
            "trialNumber": 28,
            "roleCurrent": "receiver",
            "marblesSampled": 100,
            "probRed": 0.5,
            "practiceLambda": 5,
            "trialLambda": 8.1,
            "instructedLambda": "dishonest_small",
            "sd": 8.1,
            "drawnRed": 58,
            "reportedRed": 63,
            "inferredRed": 60,
            "playerTrialScore": -2,
            "oppTrialScore": 2,
            "playerTotalScore": -354,
            "oppTotalScore": 196,
            "waitTime": 6914.500533868819,
            "responseTime": 1682398650441,
            "catchQuestion": "How many <b class=\"r\">red<\/b> marbles did your opponent report drawing? ",
            "catchKey": -1,
            "catchResponse": -1,
            "catchTime": 1682398506707,
            "trialTime": 0
        },
        {
            "exptPart": "trial",
            "trialNumber": 29,
            "roleCurrent": "receiver",
            "marblesSampled": 100,
            "probRed": 0.5,
            "practiceLambda": 5,
            "trialLambda": 8.1,
            "instructedLambda": "dishonest_small",
            "sd": 8.1,
            "drawnRed": 19,
            "reportedRed": 50,
            "inferredRed": 45,
            "playerTrialScore": -26,
            "oppTrialScore": 26,
            "playerTotalScore": -380,
            "oppTotalScore": 222,
            "waitTime": 5565.9314076260125,
            "responseTime": 1682398659622,
            "catchQuestion": "How many <b class=\"r\">red<\/b> marbles did your opponent report drawing? ",
            "catchKey": -1,
            "catchResponse": -1,
            "catchTime": 1682398506707,
            "trialTime": 0
        },
        {
            "exptPart": "trial",
            "trialNumber": 30,
            "roleCurrent": "receiver",
            "marblesSampled": 100,
            "probRed": 0.5,
            "practiceLambda": 5,
            "trialLambda": 8.1,
            "instructedLambda": "dishonest_small",
            "sd": 8.1,
            "drawnRed": 33,
            "reportedRed": 43,
            "inferredRed": 40,
            "playerTrialScore": -7,
            "oppTrialScore": 7,
            "playerTotalScore": -387,
            "oppTotalScore": 229,
            "waitTime": 6706.869337590224,
            "responseTime": 1682398670322,
            "catchQuestion": "How many <b class=\"r\">red<\/b> marbles did your opponent report drawing? ",
            "catchKey": -1,
            "catchResponse": -1,
            "catchTime": 1682398670323,
            "trialTime": 0
        },
        {
            "exptPart": "trial",
            "trialNumber": 31,
            "roleCurrent": "receiver",
            "marblesSampled": 100,
            "probRed": 0.5,
            "practiceLambda": 5,
            "trialLambda": 8.1,
            "instructedLambda": "dishonest_small",
            "sd": 8.1,
            "drawnRed": 71,
            "reportedRed": 77,
            "inferredRed": 70,
            "playerTrialScore": -1,
            "oppTrialScore": 0,
            "playerTotalScore": -388,
            "oppTotalScore": 229,
            "waitTime": 6223.219573063893,
            "responseTime": 1682398685745,
            "catchQuestion": "How many <b class=\"r\">red<\/b> marbles did your opponent report drawing? ",
            "catchKey": -1,
            "catchResponse": -1,
            "catchTime": 1682398670323,
            "trialTime": 0
        },
        {
            "exptPart": "trial",
            "trialNumber": 32,
            "roleCurrent": "receiver",
            "marblesSampled": 100,
            "probRed": 0.5,
            "practiceLambda": 5,
            "trialLambda": 8.1,
            "instructedLambda": "dishonest_small",
            "sd": 8.1,
            "drawnRed": 53,
            "reportedRed": 62,
            "inferredRed": 65,
            "playerTrialScore": -12,
            "oppTrialScore": 12,
            "playerTotalScore": -400,
            "oppTotalScore": 241,
            "waitTime": 6856.446883601711,
            "responseTime": 1682398697371,
            "catchQuestion": "How many <b class=\"r\">red<\/b> marbles did your opponent report drawing? ",
            "catchKey": -1,
            "catchResponse": -1,
            "catchTime": 1682398670323,
            "trialTime": 0
        },
        {
            "exptPart": "trial",
            "trialNumber": 33,
            "roleCurrent": "receiver",
            "marblesSampled": 100,
            "probRed": 0.5,
            "practiceLambda": 5,
            "trialLambda": 8.1,
            "instructedLambda": "dishonest_small",
            "sd": 8.1,
            "drawnRed": 66,
            "reportedRed": 63,
            "inferredRed": 59,
            "playerTrialScore": -7,
            "oppTrialScore": 0,
            "playerTotalScore": -407,
            "oppTotalScore": 241,
            "waitTime": 5789.815129081337,
            "responseTime": 1682398715181,
            "catchQuestion": "How many <b class=\"r\">red<\/b> marbles did your opponent report drawing? ",
            "catchKey": -1,
            "catchResponse": -1,
            "catchTime": 1682398670323,
            "trialTime": 0
        },
        {
            "exptPart": "trial",
            "trialNumber": 34,
            "roleCurrent": "receiver",
            "marblesSampled": 100,
            "probRed": 0.5,
            "practiceLambda": 5,
            "trialLambda": 8.1,
            "instructedLambda": "dishonest_small",
            "sd": 8.1,
            "drawnRed": 54,
            "reportedRed": 62,
            "inferredRed": 60,
            "playerTrialScore": -6,
            "oppTrialScore": 6,
            "playerTotalScore": -413,
            "oppTotalScore": 247,
            "waitTime": 5142.484182504277,
            "responseTime": 1682398733562,
            "catchQuestion": "How many <b class=\"r\">red<\/b> marbles did your opponent report drawing? ",
            "catchKey": 62,
            "catchResponse": 62,
            "catchTime": 1682398733562,
            "trialTime": 0
        },
        {
            "exptPart": "trial",
            "trialNumber": 35,
            "roleCurrent": "receiver",
            "marblesSampled": 100,
            "probRed": 0.5,
            "practiceLambda": 5,
            "trialLambda": 8.1,
            "instructedLambda": "dishonest_small",
            "sd": 8.1,
            "drawnRed": 31,
            "reportedRed": 37,
            "inferredRed": 30,
            "playerTrialScore": -1,
            "oppTrialScore": 0,
            "playerTotalScore": -414,
            "oppTotalScore": 247,
            "waitTime": 5743.582271883586,
            "responseTime": 1682398760953,
            "catchQuestion": "How many <b class=\"r\">red<\/b> marbles did your opponent report drawing? ",
            "catchKey": -1,
            "catchResponse": -1,
            "catchTime": 1682398733562,
            "trialTime": 0
        },
        {
            "exptPart": "trial",
            "trialNumber": 36,
            "roleCurrent": "receiver",
            "marblesSampled": 100,
            "probRed": 0.5,
            "practiceLambda": 5,
            "trialLambda": 8.1,
            "instructedLambda": "dishonest_small",
            "sd": 8.1,
            "drawnRed": 42,
            "reportedRed": 46,
            "inferredRed": 40,
            "playerTrialScore": -2,
            "oppTrialScore": 0,
            "playerTotalScore": -416,
            "oppTotalScore": 247,
            "waitTime": 5816.209978669718,
            "responseTime": 1682398839405,
            "catchQuestion": "How many <b class=\"r\">red<\/b> marbles did your opponent report drawing? ",
            "catchKey": -1,
            "catchResponse": -1,
            "catchTime": 1682398733562,
            "trialTime": 0
        },
        {
            "exptPart": "trial",
            "trialNumber": 37,
            "roleCurrent": "receiver",
            "marblesSampled": 100,
            "probRed": 0.5,
            "practiceLambda": 5,
            "trialLambda": 8.1,
            "instructedLambda": "dishonest_small",
            "sd": 8.1,
            "drawnRed": 35,
            "reportedRed": 37,
            "inferredRed": 35,
            "playerTrialScore": 0,
            "oppTrialScore": 0,
            "playerTotalScore": -416,
            "oppTotalScore": 247,
            "waitTime": 5685.205259917122,
            "responseTime": 1682398892769,
            "catchQuestion": "How many <b class=\"r\">red<\/b> marbles did your opponent report drawing? ",
            "catchKey": -1,
            "catchResponse": -1,
            "catchTime": 1682398733562,
            "trialTime": 0
        },
        {
            "exptPart": "trial",
            "trialNumber": 38,
            "roleCurrent": "receiver",
            "marblesSampled": 100,
            "probRed": 0.5,
            "practiceLambda": 5,
            "trialLambda": 8.1,
            "instructedLambda": "dishonest_small",
            "sd": 8.1,
            "drawnRed": 46,
            "reportedRed": 40,
            "inferredRed": 35,
            "playerTrialScore": -11,
            "oppTrialScore": 0,
            "playerTotalScore": -427,
            "oppTotalScore": 247,
            "waitTime": 5792.272745818694,
            "responseTime": 1682398937090,
            "catchQuestion": "How many <b class=\"r\">red<\/b> marbles did your opponent report drawing? ",
            "catchKey": -1,
            "catchResponse": -1,
            "catchTime": 1682398733562,
            "trialTime": 0
        },
        {
            "exptPart": "trial",
            "trialNumber": 39,
            "roleCurrent": "receiver",
            "marblesSampled": 100,
            "probRed": 0.5,
            "practiceLambda": 5,
            "trialLambda": 8.1,
            "instructedLambda": "dishonest_small",
            "sd": 8.1,
            "drawnRed": 38,
            "reportedRed": 44,
            "inferredRed": 32,
            "playerTrialScore": -6,
            "oppTrialScore": 0,
            "playerTotalScore": -433,
            "oppTotalScore": 247,
            "waitTime": 7467.21923650877,
            "responseTime": 1682398967431,
            "catchQuestion": "How many <b class=\"r\">red<\/b> marbles did your opponent report drawing? ",
            "catchKey": -1,
            "catchResponse": -1,
            "catchTime": 1682398733562,
            "trialTime": 0
        },
        {
            "exptPart": "trial",
            "trialNumber": 40,
            "roleCurrent": "receiver",
            "marblesSampled": 100,
            "probRed": 0.5,
            "practiceLambda": 5,
            "trialLambda": 8.1,
            "instructedLambda": "dishonest_small",
            "sd": 8.1,
            "drawnRed": 44,
            "reportedRed": 42,
            "inferredRed": 45,
            "playerTrialScore": -1,
            "oppTrialScore": 1,
            "playerTotalScore": -434,
            "oppTotalScore": 248,
            "waitTime": 7384.390664191874,
            "responseTime": 1682399014078,
            "catchQuestion": "How many <b class=\"r\">red<\/b> marbles did your opponent report drawing? ",
            "catchKey": -1,
            "catchResponse": -1,
            "catchTime": 1682399014078,
            "trialTime": 0
        },
        {
            "exptPart": "trial",
            "trialNumber": 41,
            "roleCurrent": "receiver",
            "marblesSampled": 100,
            "probRed": 0.5,
            "practiceLambda": 5,
            "trialLambda": 8.1,
            "instructedLambda": "dishonest_small",
            "sd": 8.1,
            "drawnRed": 72,
            "reportedRed": 75,
            "inferredRed": 56,
            "playerTrialScore": -16,
            "oppTrialScore": 0,
            "playerTotalScore": -450,
            "oppTotalScore": 248,
            "waitTime": 7285.3348163588,
            "responseTime": 1682399033106,
            "catchQuestion": "How many <b class=\"r\">red<\/b> marbles did your opponent report drawing? ",
            "catchKey": -1,
            "catchResponse": -1,
            "catchTime": 1682399014078,
            "trialTime": 0
        },
        {
            "exptPart": "trial",
            "trialNumber": 42,
            "roleCurrent": "receiver",
            "marblesSampled": 100,
            "probRed": 0.5,
            "practiceLambda": 5,
            "trialLambda": 8.1,
            "instructedLambda": "dishonest_small",
            "sd": 8.1,
            "drawnRed": 44,
            "reportedRed": 44,
            "inferredRed": 42,
            "playerTrialScore": -2,
            "oppTrialScore": 0,
            "playerTotalScore": -452,
            "oppTotalScore": 248,
            "waitTime": 6590.539452862405,
            "responseTime": 1682399044425,
            "catchQuestion": "How many <b class=\"r\">red<\/b> marbles did your opponent report drawing? ",
            "catchKey": -1,
            "catchResponse": -1,
            "catchTime": 1682399014078,
            "trialTime": 0
        },
        {
            "exptPart": "trial",
            "trialNumber": 43,
            "roleCurrent": "receiver",
            "marblesSampled": 100,
            "probRed": 0.5,
            "practiceLambda": 5,
            "trialLambda": 8.1,
            "instructedLambda": "dishonest_small",
            "sd": 8.1,
            "drawnRed": 55,
            "reportedRed": 66,
            "inferredRed": 57,
            "playerTrialScore": -2,
            "oppTrialScore": 2,
            "playerTotalScore": -454,
            "oppTotalScore": 250,
            "waitTime": 6335.093337723107,
            "responseTime": 1682399057182,
            "catchQuestion": "How many <b class=\"r\">red<\/b> marbles did your opponent report drawing? ",
            "catchKey": -1,
            "catchResponse": -1,
            "catchTime": 1682399014078,
            "trialTime": 0
        },
        {
            "exptPart": "trial",
            "trialNumber": 44,
            "roleCurrent": "receiver",
            "marblesSampled": 100,
            "probRed": 0.5,
            "practiceLambda": 5,
            "trialLambda": 8.1,
            "instructedLambda": "dishonest_small",
            "sd": 8.1,
            "drawnRed": 71,
            "reportedRed": 84,
            "inferredRed": 73,
            "playerTrialScore": -2,
            "oppTrialScore": 2,
            "playerTotalScore": -456,
            "oppTotalScore": 252,
            "waitTime": 6124.009469161025,
            "responseTime": 1682399097827,
            "catchQuestion": "How many <b class=\"r\">red<\/b> marbles did your opponent report drawing? ",
            "catchKey": -1,
            "catchResponse": -1,
            "catchTime": 1682399014078,
            "trialTime": 0
        },
        {
            "exptPart": "trial",
            "trialNumber": 45,
            "roleCurrent": "receiver",
            "marblesSampled": 100,
            "probRed": 0.5,
            "practiceLambda": 5,
            "trialLambda": 8.1,
            "instructedLambda": "dishonest_small",
            "sd": 8.1,
            "drawnRed": 68,
            "reportedRed": 79,
            "inferredRed": 64,
            "playerTrialScore": -4,
            "oppTrialScore": 0,
            "playerTotalScore": -460,
            "oppTotalScore": 252,
            "waitTime": 7216.4105466552855,
            "responseTime": 1682399117897,
            "catchQuestion": "How many <b class=\"r\">red<\/b> marbles did your opponent report drawing? ",
            "catchKey": -1,
            "catchResponse": -1,
            "catchTime": 1682399014078,
            "trialTime": 0
        },
        {
            "exptPart": "trial",
            "trialNumber": 46,
            "roleCurrent": "receiver",
            "marblesSampled": 100,
            "probRed": 0.5,
            "practiceLambda": 5,
            "trialLambda": 8.1,
            "instructedLambda": "dishonest_small",
            "sd": 8.1,
            "drawnRed": 50,
            "reportedRed": 57,
            "inferredRed": 60,
            "playerTrialScore": -10,
            "oppTrialScore": 10,
            "playerTotalScore": -470,
            "oppTotalScore": 262,
            "waitTime": 6496.6321413287515,
            "responseTime": 1682399130021,
            "catchQuestion": "How many <b class=\"r\">red<\/b> marbles did your opponent report drawing? ",
            "catchKey": 57,
            "catchResponse": 77,
            "catchTime": 1682399130021,
            "trialTime": 0
        },
        {
            "exptPart": "trial",
            "trialNumber": 47,
            "roleCurrent": "receiver",
            "marblesSampled": 100,
            "probRed": 0.5,
            "practiceLambda": 5,
            "trialLambda": 8.1,
            "instructedLambda": "dishonest_small",
            "sd": 8.1,
            "drawnRed": 37,
            "reportedRed": 38,
            "inferredRed": 30,
            "playerTrialScore": -7,
            "oppTrialScore": 0,
            "playerTotalScore": -477,
            "oppTotalScore": 262,
            "waitTime": 6175.075403384155,
            "responseTime": 1682399208195,
            "catchQuestion": "How many <b class=\"r\">red<\/b> marbles did your opponent report drawing? ",
            "catchKey": -1,
            "catchResponse": -1,
            "catchTime": 1682399130021,
            "trialTime": 0
        },
        {
            "exptPart": "trial",
            "trialNumber": 48,
            "roleCurrent": "receiver",
            "marblesSampled": 100,
            "probRed": 0.5,
            "practiceLambda": 5,
            "trialLambda": 8.1,
            "instructedLambda": "dishonest_small",
            "sd": 8.1,
            "drawnRed": 46,
            "reportedRed": 51,
            "inferredRed": 45,
            "playerTrialScore": -1,
            "oppTrialScore": 0,
            "playerTotalScore": -478,
            "oppTotalScore": 262,
            "waitTime": 7196.857625647877,
            "responseTime": 1682399223342,
            "catchQuestion": "How many <b class=\"r\">red<\/b> marbles did your opponent report drawing? ",
            "catchKey": -1,
            "catchResponse": -1,
            "catchTime": 1682399130021,
            "trialTime": 0
        },
        {
            "exptPart": "trial",
            "trialNumber": 49,
            "roleCurrent": "receiver",
            "marblesSampled": 100,
            "probRed": 0.5,
            "practiceLambda": 5,
            "trialLambda": 8.1,
            "instructedLambda": "dishonest_small",
            "sd": 8.1,
            "drawnRed": 51,
            "reportedRed": 56,
            "inferredRed": 47,
            "playerTrialScore": -4,
            "oppTrialScore": 0,
            "playerTotalScore": -482,
            "oppTotalScore": 262,
            "waitTime": 6409.028684025748,
            "responseTime": 1682399252929,
            "catchQuestion": "How many <b class=\"r\">red<\/b> marbles did your opponent report drawing? ",
            "catchKey": -1,
            "catchResponse": -1,
            "catchTime": 1682399130021,
            "trialTime": 0
        },
        {
            "exptPart": "trial",
            "trialNumber": 50,
            "roleCurrent": "receiver",
            "marblesSampled": 100,
            "probRed": 0.5,
            "practiceLambda": 5,
            "trialLambda": 8.1,
            "instructedLambda": "dishonest_small",
            "sd": 8.1,
            "drawnRed": 75,
            "reportedRed": 76,
            "inferredRed": 80,
            "playerTrialScore": -5,
            "oppTrialScore": 5,
            "playerTotalScore": -487,
            "oppTotalScore": 267,
            "waitTime": 5659.383560943597,
            "responseTime": 1682399270360,
            "catchQuestion": "How many <b class=\"r\">red<\/b> marbles did your opponent report drawing? ",
            "catchKey": -1,
            "catchResponse": -1,
            "catchTime": 1682399270360,
            "trialTime": 0
        },
        {
            "exptPart": "trial",
            "trialNumber": 51,
            "roleCurrent": "receiver",
            "marblesSampled": 100,
            "probRed": 0.5,
            "practiceLambda": 5,
            "trialLambda": 8.1,
            "instructedLambda": "dishonest_small",
            "sd": 8.1,
            "drawnRed": 52,
            "reportedRed": 60,
            "inferredRed": 54,
            "playerTrialScore": -2,
            "oppTrialScore": 2,
            "playerTotalScore": -489,
            "oppTotalScore": 269,
            "waitTime": 6592.851837705474,
            "responseTime": 1682399284172,
            "catchQuestion": "How many <b class=\"r\">red<\/b> marbles did your opponent report drawing? ",
            "catchKey": -1,
            "catchResponse": -1,
            "catchTime": 1682399270360,
            "trialTime": 0
        },
        {
            "exptPart": "trial",
            "trialNumber": 52,
            "roleCurrent": "receiver",
            "marblesSampled": 100,
            "probRed": 0.5,
            "practiceLambda": 5,
            "trialLambda": 8.1,
            "instructedLambda": "dishonest_small",
            "sd": 8.1,
            "drawnRed": 23,
            "reportedRed": 36,
            "inferredRed": 23,
            "playerTrialScore": 0,
            "oppTrialScore": 0,
            "playerTotalScore": -489,
            "oppTotalScore": 269,
            "waitTime": 6444.896436611381,
            "responseTime": 1682399305220,
            "catchQuestion": "How many <b class=\"r\">red<\/b> marbles did your opponent report drawing? ",
            "catchKey": -1,
            "catchResponse": -1,
            "catchTime": 1682399270360,
            "trialTime": 0
        },
        {
            "exptPart": "trial",
            "trialNumber": 53,
            "roleCurrent": "receiver",
            "marblesSampled": 100,
            "probRed": 0.5,
            "practiceLambda": 5,
            "trialLambda": 8.1,
            "instructedLambda": "dishonest_small",
            "sd": 8.1,
            "drawnRed": 43,
            "reportedRed": 47,
            "inferredRed": 34,
            "playerTrialScore": -9,
            "oppTrialScore": 0,
            "playerTotalScore": -498,
            "oppTotalScore": 269,
            "waitTime": 6328.484558139334,
            "responseTime": 1682399330124,
            "catchQuestion": "How many <b class=\"r\">red<\/b> marbles did your opponent report drawing? ",
            "catchKey": -1,
            "catchResponse": -1,
            "catchTime": 1682399270360,
            "trialTime": 0
        },
        {
            "exptPart": "trial",
            "trialNumber": 54,
            "roleCurrent": "receiver",
            "marblesSampled": 100,
            "probRed": 0.5,
            "practiceLambda": 5,
            "trialLambda": 8.1,
            "instructedLambda": "dishonest_small",
            "sd": 8.1,
            "drawnRed": 53,
            "reportedRed": 44,
            "inferredRed": 34,
            "playerTrialScore": -19,
            "oppTrialScore": 0,
            "playerTotalScore": -517,
            "oppTotalScore": 269,
            "waitTime": 5294.254294348189,
            "responseTime": 1682399350722,
            "catchQuestion": "How many <b class=\"r\">red<\/b> marbles did your opponent report drawing? ",
            "catchKey": -1,
            "catchResponse": -1,
            "catchTime": 1682399270360,
            "trialTime": 0
        },
        {
            "exptPart": "trial",
            "trialNumber": 55,
            "roleCurrent": "receiver",
            "marblesSampled": 100,
            "probRed": 0.5,
            "practiceLambda": 5,
            "trialLambda": 8.1,
            "instructedLambda": "dishonest_small",
            "sd": 8.1,
            "drawnRed": 65,
            "reportedRed": 62,
            "inferredRed": 60,
            "playerTrialScore": -5,
            "oppTrialScore": 0,
            "playerTotalScore": -522,
            "oppTotalScore": 269,
            "waitTime": 7041.448680985717,
            "responseTime": 1682399369771,
            "catchQuestion": "How many <b class=\"r\">red<\/b> marbles did your opponent report drawing? ",
            "catchKey": -1,
            "catchResponse": -1,
            "catchTime": 1682399270360,
            "trialTime": 0
        },
        {
            "exptPart": "trial",
            "trialNumber": 56,
            "roleCurrent": "receiver",
            "marblesSampled": 100,
            "probRed": 0.5,
            "practiceLambda": 5,
            "trialLambda": 8.1,
            "instructedLambda": "dishonest_small",
            "sd": 8.1,
            "drawnRed": 65,
            "reportedRed": 74,
            "inferredRed": 45,
            "playerTrialScore": -20,
            "oppTrialScore": 0,
            "playerTotalScore": -542,
            "oppTotalScore": 269,
            "waitTime": 6223.104091058277,
            "responseTime": 1682399384427,
            "catchQuestion": "How many <b class=\"r\">red<\/b> marbles did your opponent report drawing? ",
            "catchKey": -1,
            "catchResponse": -1,
            "catchTime": 1682399270360,
            "trialTime": 0
        },
        {
            "exptPart": "trial",
            "trialNumber": 57,
            "roleCurrent": "receiver",
            "marblesSampled": 100,
            "probRed": 0.5,
            "practiceLambda": 5,
            "trialLambda": 8.1,
            "instructedLambda": "dishonest_small",
            "sd": 8.1,
            "drawnRed": 10,
            "reportedRed": 23,
            "inferredRed": 19,
            "playerTrialScore": -9,
            "oppTrialScore": 9,
            "playerTotalScore": -551,
            "oppTotalScore": 278,
            "waitTime": 5396.083593980435,
            "responseTime": 1682399406299,
            "catchQuestion": "How many <b class=\"r\">red<\/b> marbles did your opponent report drawing? ",
            "catchKey": -1,
            "catchResponse": -1,
            "catchTime": 1682399270360,
            "trialTime": 0
        },
        {
            "exptPart": "trial",
            "trialNumber": 58,
            "roleCurrent": "receiver",
            "marblesSampled": 100,
            "probRed": 0.5,
            "practiceLambda": 5,
            "trialLambda": 8.1,
            "instructedLambda": "dishonest_small",
            "sd": 8.1,
            "drawnRed": 24,
            "reportedRed": 35,
            "inferredRed": 40,
            "playerTrialScore": -16,
            "oppTrialScore": 16,
            "playerTotalScore": -567,
            "oppTotalScore": 294,
            "waitTime": 6091.063722077148,
            "responseTime": 1682399438369,
            "catchQuestion": "How many <b class=\"r\">red<\/b> marbles did your opponent report drawing? ",
            "catchKey": -1,
            "catchResponse": -1,
            "catchTime": 1682399270360,
            "trialTime": 0
        },
        {
            "exptPart": "trial",
            "trialNumber": 59,
            "roleCurrent": "receiver",
            "marblesSampled": 100,
            "probRed": 0.5,
            "practiceLambda": 5,
            "trialLambda": 8.1,
            "instructedLambda": "dishonest_small",
            "sd": 8.1,
            "drawnRed": 69,
            "reportedRed": 70,
            "inferredRed": 60,
            "playerTrialScore": -9,
            "oppTrialScore": 0,
            "playerTotalScore": -576,
            "oppTotalScore": 294,
            "waitTime": 5382.745453899286,
            "responseTime": 1682399472740,
            "catchQuestion": "How many <b class=\"r\">red<\/b> marbles did your opponent report drawing? ",
            "catchKey": -1,
            "catchResponse": -1,
            "catchTime": 1682399270360,
            "trialTime": 0
        },
        {
            "exptPart": "trial",
            "trialNumber": 60,
            "roleCurrent": "receiver",
            "marblesSampled": 100,
            "probRed": 0.5,
            "practiceLambda": 5,
            "trialLambda": 8.1,
            "instructedLambda": "dishonest_small",
            "sd": 8.1,
            "drawnRed": 48,
            "reportedRed": 54,
            "inferredRed": 50,
            "playerTrialScore": -2,
            "oppTrialScore": 2,
            "playerTotalScore": -578,
            "oppTotalScore": 296,
            "waitTime": 5961.529332351279,
            "responseTime": 1682399482876,
            "catchQuestion": "How many <b class=\"r\">red<\/b> marbles did your opponent report drawing? ",
            "catchKey": -1,
            "catchResponse": -1,
            "catchTime": 1682399482876,
            "trialTime": 0
        },
        {
            "exptPart": "trial",
            "trialNumber": 61,
            "roleCurrent": "receiver",
            "marblesSampled": 100,
            "probRed": 0.5,
            "practiceLambda": 5,
            "trialLambda": 8.1,
            "instructedLambda": "dishonest_small",
            "sd": 8.1,
            "drawnRed": 47,
            "reportedRed": 66,
            "inferredRed": 55,
            "playerTrialScore": -8,
            "oppTrialScore": 8,
            "playerTotalScore": -586,
            "oppTotalScore": 304,
            "waitTime": 5160.843177163873,
            "responseTime": 1682399519350,
            "catchQuestion": "How many <b class=\"r\">red<\/b> marbles did your opponent report drawing? ",
            "catchKey": -1,
            "catchResponse": -1,
            "catchTime": 1682399482876,
            "trialTime": 0
        },
        {
            "exptPart": "trial",
            "trialNumber": 62,
            "roleCurrent": "receiver",
            "marblesSampled": 100,
            "probRed": 0.5,
            "practiceLambda": 5,
            "trialLambda": 8.1,
            "instructedLambda": "dishonest_small",
            "sd": 8.1,
            "drawnRed": 55,
            "reportedRed": 57,
            "inferredRed": 36,
            "playerTrialScore": -19,
            "oppTrialScore": 0,
            "playerTotalScore": -605,
            "oppTotalScore": 304,
            "waitTime": 7086.807707244319,
            "responseTime": 1682399556693,
            "catchQuestion": "How many <b class=\"r\">red<\/b> marbles did your opponent report drawing? ",
            "catchKey": 57,
            "catchResponse": 54,
            "catchTime": 1682399556693,
            "trialTime": 0
        },
        {
            "exptPart": "trial",
            "trialNumber": 63,
            "roleCurrent": "receiver",
            "marblesSampled": 100,
            "probRed": 0.5,
            "practiceLambda": 5,
            "trialLambda": 8.1,
            "instructedLambda": "dishonest_small",
            "sd": 8.1,
            "drawnRed": 36,
            "reportedRed": 40,
            "inferredRed": 26,
            "playerTrialScore": -10,
            "oppTrialScore": 0,
            "playerTotalScore": -615,
            "oppTotalScore": 304,
            "waitTime": 5514.711940753588,
            "responseTime": 1682399577132,
            "catchQuestion": "How many <b class=\"r\">red<\/b> marbles did your opponent report drawing? ",
            "catchKey": -1,
            "catchResponse": -1,
            "catchTime": 1682399556693,
            "trialTime": 0
        },
        {
            "exptPart": "trial",
            "trialNumber": 64,
            "roleCurrent": "receiver",
            "marblesSampled": 100,
            "probRed": 0.5,
            "practiceLambda": 5,
            "trialLambda": 8.1,
            "instructedLambda": "dishonest_small",
            "sd": 8.1,
            "drawnRed": 48,
            "reportedRed": 49,
            "inferredRed": 34,
            "playerTrialScore": -14,
            "oppTrialScore": 0,
            "playerTotalScore": -629,
            "oppTotalScore": 304,
            "waitTime": 5470.063495809065,
            "responseTime": 1682399596792,
            "catchQuestion": "How many <b class=\"r\">red<\/b> marbles did your opponent report drawing? ",
            "catchKey": -1,
            "catchResponse": -1,
            "catchTime": 1682399556693,
            "trialTime": 0
        },
        {
            "exptPart": "trial",
            "trialNumber": 65,
            "roleCurrent": "receiver",
            "marblesSampled": 100,
            "probRed": 0.5,
            "practiceLambda": 5,
            "trialLambda": 8.1,
            "instructedLambda": "dishonest_small",
            "sd": 8.1,
            "drawnRed": 51,
            "reportedRed": 59,
            "inferredRed": 57,
            "playerTrialScore": -6,
            "oppTrialScore": 6,
            "playerTotalScore": -635,
            "oppTotalScore": 310,
            "waitTime": 7287.2323422123945,
            "responseTime": 1682399611620,
            "catchQuestion": "How many <b class=\"r\">red<\/b> marbles did your opponent report drawing? ",
            "catchKey": -1,
            "catchResponse": -1,
            "catchTime": 1682399556693,
            "trialTime": 0
        },
        {
            "exptPart": "trial",
            "trialNumber": 66,
            "roleCurrent": "receiver",
            "marblesSampled": 100,
            "probRed": 0.5,
            "practiceLambda": 5,
            "trialLambda": 8.1,
            "instructedLambda": "dishonest_small",
            "sd": 8.1,
            "drawnRed": 77,
            "reportedRed": 94,
            "inferredRed": 87,
            "playerTrialScore": -10,
            "oppTrialScore": 10,
            "playerTotalScore": -645,
            "oppTotalScore": 320,
            "waitTime": 6288.644299407405,
            "responseTime": 1682399622875,
            "catchQuestion": "How many <b class=\"r\">red<\/b> marbles did your opponent report drawing? ",
            "catchKey": -1,
            "catchResponse": -1,
            "catchTime": 1682399556693,
            "trialTime": 0
        },
        {
            "exptPart": "trial",
            "trialNumber": 67,
            "roleCurrent": "receiver",
            "marblesSampled": 100,
            "probRed": 0.5,
            "practiceLambda": 5,
            "trialLambda": 8.1,
            "instructedLambda": "dishonest_small",
            "sd": 8.1,
            "drawnRed": 68,
            "reportedRed": 93,
            "inferredRed": 90,
            "playerTrialScore": -22,
            "oppTrialScore": 22,
            "playerTotalScore": -667,
            "oppTotalScore": 342,
            "waitTime": 6818.407655574833,
            "responseTime": 1682399637206,
            "catchQuestion": "How many <b class=\"r\">red<\/b> marbles did your opponent report drawing? ",
            "catchKey": -1,
            "catchResponse": -1,
            "catchTime": 1682399556693,
            "trialTime": 0
        },
        {
            "exptPart": "trial",
            "trialNumber": 68,
            "roleCurrent": "receiver",
            "marblesSampled": 100,
            "probRed": 0.5,
            "practiceLambda": 5,
            "trialLambda": 8.1,
            "instructedLambda": "dishonest_small",
            "sd": 8.1,
            "drawnRed": 79,
            "reportedRed": 98,
            "inferredRed": 100,
            "playerTrialScore": -21,
            "oppTrialScore": 21,
            "playerTotalScore": -688,
            "oppTotalScore": 363,
            "waitTime": 6737.530472806637,
            "responseTime": 1682399657127,
            "catchQuestion": "How many <b class=\"r\">red<\/b> marbles did your opponent report drawing? ",
            "catchKey": -1,
            "catchResponse": -1,
            "catchTime": 1682399556693,
            "trialTime": 0
        },
        {
            "exptPart": "trial",
            "trialNumber": 69,
            "roleCurrent": "receiver",
            "marblesSampled": 100,
            "probRed": 0.5,
            "practiceLambda": 5,
            "trialLambda": 8.1,
            "instructedLambda": "dishonest_small",
            "sd": 8.1,
            "drawnRed": 82,
            "reportedRed": 90,
            "inferredRed": 87,
            "playerTrialScore": -5,
            "oppTrialScore": 5,
            "playerTotalScore": -693,
            "oppTotalScore": 368,
            "waitTime": 6016.04273409037,
            "responseTime": 1682399699783,
            "catchQuestion": "How many <b class=\"r\">red<\/b> marbles did your opponent report drawing? ",
            "catchKey": -1,
            "catchResponse": -1,
            "catchTime": 1682399556693,
            "trialTime": 0
        },
        {
            "exptPart": "trial",
            "trialNumber": 70,
            "roleCurrent": "receiver",
            "marblesSampled": 100,
            "probRed": 0.5,
            "practiceLambda": 5,
            "trialLambda": 8.1,
            "instructedLambda": "dishonest_small",
            "sd": 8.1,
            "drawnRed": 71,
            "reportedRed": 99,
            "inferredRed": 87,
            "playerTrialScore": -16,
            "oppTrialScore": 16,
            "playerTotalScore": -709,
            "oppTotalScore": 384,
            "waitTime": 5473.415711875408,
            "responseTime": 1682399718005,
            "catchQuestion": "How many <b class=\"r\">red<\/b> marbles did your opponent report drawing? ",
            "catchKey": -1,
            "catchResponse": -1,
            "catchTime": 1682399718005,
            "trialTime": 0
        },
        {
            "exptPart": "trial",
            "trialNumber": 71,
            "roleCurrent": "receiver",
            "marblesSampled": 100,
            "probRed": 0.5,
            "practiceLambda": 5,
            "trialLambda": 8.1,
            "instructedLambda": "dishonest_small",
            "sd": 8.1,
            "drawnRed": 12,
            "reportedRed": 21,
            "inferredRed": 21,
            "playerTrialScore": -9,
            "oppTrialScore": 9,
            "playerTotalScore": -718,
            "oppTotalScore": 393,
            "waitTime": 6558.264134935773,
            "responseTime": 1682399736415,
            "catchQuestion": "How many <b class=\"r\">red<\/b> marbles did your opponent report drawing? ",
            "catchKey": -1,
            "catchResponse": -1,
            "catchTime": 1682399718005,
            "trialTime": 0
        },
        {
            "exptPart": "trial",
            "trialNumber": 72,
            "roleCurrent": "receiver",
            "marblesSampled": 100,
            "probRed": 0.5,
            "practiceLambda": 5,
            "trialLambda": 8.1,
            "instructedLambda": "dishonest_small",
            "sd": 8.1,
            "drawnRed": 38,
            "reportedRed": 44,
            "inferredRed": 44,
            "playerTrialScore": -6,
            "oppTrialScore": 6,
            "playerTotalScore": -724,
            "oppTotalScore": 399,
            "waitTime": 6152.824070882974,
            "responseTime": 1682399751040,
            "catchQuestion": "How many <b class=\"r\">red<\/b> marbles did your opponent report drawing? ",
            "catchKey": 44,
            "catchResponse": 76,
            "catchTime": 1682399751040,
            "trialTime": 0
        },
        {
            "exptPart": "trial",
            "trialNumber": 73,
            "roleCurrent": "receiver",
            "marblesSampled": 100,
            "probRed": 0.5,
            "practiceLambda": 5,
            "trialLambda": 8.1,
            "instructedLambda": "dishonest_small",
            "sd": 8.1,
            "drawnRed": 60,
            "reportedRed": 72,
            "inferredRed": 72,
            "playerTrialScore": -12,
            "oppTrialScore": 12,
            "playerTotalScore": -736,
            "oppTotalScore": 411,
            "waitTime": 5937.176679099301,
            "responseTime": 1682399793823,
            "catchQuestion": "How many <b class=\"r\">red<\/b> marbles did your opponent report drawing? ",
            "catchKey": -1,
            "catchResponse": -1,
            "catchTime": 1682399751040,
            "trialTime": 0
        },
        {
            "exptPart": "trial",
            "trialNumber": 74,
            "roleCurrent": "receiver",
            "marblesSampled": 100,
            "probRed": 0.5,
            "practiceLambda": 5,
            "trialLambda": 8.1,
            "instructedLambda": "dishonest_small",
            "sd": 8.1,
            "drawnRed": 19,
            "reportedRed": 22,
            "inferredRed": 22,
            "playerTrialScore": -3,
            "oppTrialScore": 3,
            "playerTotalScore": -739,
            "oppTotalScore": 414,
            "waitTime": 5857.519864044005,
            "responseTime": 1682399809446,
            "catchQuestion": "How many <b class=\"r\">red<\/b> marbles did your opponent report drawing? ",
            "catchKey": -1,
            "catchResponse": -1,
            "catchTime": 1682399751040,
            "trialTime": 0
        },
        {
            "exptPart": "trial",
            "trialNumber": 75,
            "roleCurrent": "receiver",
            "marblesSampled": 100,
            "probRed": 0.5,
            "practiceLambda": 5,
            "trialLambda": 8.1,
            "instructedLambda": "dishonest_small",
            "sd": 8.1,
            "drawnRed": 47,
            "reportedRed": 67,
            "inferredRed": 64,
            "playerTrialScore": -17,
            "oppTrialScore": 17,
            "playerTotalScore": -756,
            "oppTotalScore": 431,
            "waitTime": 6654.975879341428,
            "responseTime": 1682399822177,
            "catchQuestion": "How many <b class=\"r\">red<\/b> marbles did your opponent report drawing? ",
            "catchKey": -1,
            "catchResponse": -1,
            "catchTime": 1682399751040,
            "trialTime": 0
        },
        {
            "exptPart": "trial",
            "trialNumber": 76,
            "roleCurrent": "receiver",
            "marblesSampled": 100,
            "probRed": 0.5,
            "practiceLambda": 5,
            "trialLambda": 8.1,
            "instructedLambda": "dishonest_small",
            "sd": 8.1,
            "drawnRed": 66,
            "reportedRed": 76,
            "inferredRed": 64,
            "playerTrialScore": -2,
            "oppTrialScore": 0,
            "playerTotalScore": -758,
            "oppTotalScore": 431,
            "waitTime": 5830.671628046386,
            "responseTime": 1682399838599,
            "catchQuestion": "How many <b class=\"r\">red<\/b> marbles did your opponent report drawing? ",
            "catchKey": -1,
            "catchResponse": -1,
            "catchTime": 1682399751040,
            "trialTime": 0
        },
        {
            "exptPart": "trial",
            "trialNumber": 77,
            "roleCurrent": "receiver",
            "marblesSampled": 100,
            "probRed": 0.5,
            "practiceLambda": 5,
            "trialLambda": 8.1,
            "instructedLambda": "dishonest_small",
            "sd": 8.1,
            "drawnRed": 44,
            "reportedRed": 47,
            "inferredRed": 45,
            "playerTrialScore": -1,
            "oppTrialScore": 1,
            "playerTotalScore": -759,
            "oppTotalScore": 432,
            "waitTime": 5758.785042770464,
            "responseTime": 1682399852051,
            "catchQuestion": "How many <b class=\"r\">red<\/b> marbles did your opponent report drawing? ",
            "catchKey": -1,
            "catchResponse": -1,
            "catchTime": 1682399751040,
            "trialTime": 0
        },
        {
            "exptPart": "trial",
            "trialNumber": 78,
            "roleCurrent": "receiver",
            "marblesSampled": 100,
            "probRed": 0.5,
            "practiceLambda": 5,
            "trialLambda": 8.1,
            "instructedLambda": "dishonest_small",
            "sd": 8.1,
            "drawnRed": 88,
            "reportedRed": 100,
            "inferredRed": 99,
            "playerTrialScore": -11,
            "oppTrialScore": 11,
            "playerTotalScore": -770,
            "oppTotalScore": 443,
            "waitTime": 6814.199317413713,
            "responseTime": 1682399867095,
            "catchQuestion": "How many <b class=\"r\">red<\/b> marbles did your opponent report drawing? ",
            "catchKey": -1,
            "catchResponse": -1,
            "catchTime": 1682399751040,
            "trialTime": 0
        },
        {
            "exptPart": "trial",
            "trialNumber": 79,
            "roleCurrent": "receiver",
            "marblesSampled": 100,
            "probRed": 0.5,
            "practiceLambda": 5,
            "trialLambda": 8.1,
            "instructedLambda": "dishonest_small",
            "sd": 8.1,
            "drawnRed": 77,
            "reportedRed": 89,
            "inferredRed": 67,
            "playerTrialScore": -10,
            "oppTrialScore": 0,
            "playerTotalScore": -780,
            "oppTotalScore": 443,
            "waitTime": 5777.398369483648,
            "responseTime": 1682399876436,
            "catchQuestion": "How many <b class=\"r\">red<\/b> marbles did your opponent report drawing? ",
            "catchKey": -1,
            "catchResponse": -1,
            "catchTime": 1682399751040,
            "trialTime": 0
        },
        {
            "exptPart": "trial",
            "trialNumber": 80,
            "roleCurrent": "receiver",
            "marblesSampled": 100,
            "probRed": 0.5,
            "practiceLambda": 5,
            "trialLambda": 8.1,
            "instructedLambda": "dishonest_small",
            "sd": 8.1,
            "drawnRed": 65,
            "reportedRed": 71,
            "inferredRed": 48,
            "playerTrialScore": -17,
            "oppTrialScore": 0,
            "playerTotalScore": -797,
            "oppTotalScore": 443,
            "waitTime": 5391.937708814993,
            "responseTime": 1682399922380,
            "catchQuestion": "How many <b class=\"r\">red<\/b> marbles did your opponent report drawing? ",
            "catchKey": -1,
            "catchResponse": -1,
            "catchTime": 1682399922380,
            "trialTime": 0
        },
        {
            "exptPart": "trial",
            "trialNumber": 81,
            "roleCurrent": "receiver",
            "marblesSampled": 100,
            "probRed": 0.5,
            "practiceLambda": 5,
            "trialLambda": 8.1,
            "instructedLambda": "dishonest_small",
            "sd": 8.1,
            "drawnRed": 60,
            "reportedRed": 74,
            "inferredRed": 74,
            "playerTrialScore": -14,
            "oppTrialScore": 14,
            "playerTotalScore": -811,
            "oppTotalScore": 457,
            "waitTime": 6787.696354871264,
            "responseTime": 1682399935095,
            "catchQuestion": "How many <b class=\"r\">red<\/b> marbles did your opponent report drawing? ",
            "catchKey": -1,
            "catchResponse": -1,
            "catchTime": 1682399922380,
            "trialTime": 0
        },
        {
            "exptPart": "trial",
            "trialNumber": 82,
            "roleCurrent": "receiver",
            "marblesSampled": 100,
            "probRed": 0.5,
            "practiceLambda": 5,
            "trialLambda": 8.1,
            "instructedLambda": "dishonest_small",
            "sd": 8.1,
            "drawnRed": 72,
            "reportedRed": 87,
            "inferredRed": 87,
            "playerTrialScore": -15,
            "oppTrialScore": 15,
            "playerTotalScore": -826,
            "oppTotalScore": 472,
            "waitTime": 6914.474510494745,
            "responseTime": 1682399946895,
            "catchQuestion": "How many <b class=\"r\">red<\/b> marbles did your opponent report drawing? ",
            "catchKey": -1,
            "catchResponse": -1,
            "catchTime": 1682399922380,
            "trialTime": 0
        },
        {
            "exptPart": "trial",
            "trialNumber": 83,
            "roleCurrent": "receiver",
            "marblesSampled": 100,
            "probRed": 0.5,
            "practiceLambda": 5,
            "trialLambda": 8.1,
            "instructedLambda": "dishonest_small",
            "sd": 8.1,
            "drawnRed": 61,
            "reportedRed": 80,
            "inferredRed": 80,
            "playerTrialScore": -19,
            "oppTrialScore": 19,
            "playerTotalScore": -845,
            "oppTotalScore": 491,
            "waitTime": 6471.313065164955,
            "responseTime": 1682399957535,
            "catchQuestion": "How many <b class=\"r\">red<\/b> marbles did your opponent report drawing? ",
            "catchKey": -1,
            "catchResponse": -1,
            "catchTime": 1682399922380,
            "trialTime": 0
        },
        {
            "exptPart": "trial",
            "trialNumber": 84,
            "roleCurrent": "receiver",
            "marblesSampled": 100,
            "probRed": 0.5,
            "practiceLambda": 5,
            "trialLambda": 8.1,
            "instructedLambda": "dishonest_small",
            "sd": 8.1,
            "drawnRed": 27,
            "reportedRed": 38,
            "inferredRed": 38,
            "playerTrialScore": -11,
            "oppTrialScore": 11,
            "playerTotalScore": -856,
            "oppTotalScore": 502,
            "waitTime": 6920.954743224038,
            "responseTime": 1682399976746,
            "catchQuestion": "How many <b class=\"r\">red<\/b> marbles did your opponent report drawing? ",
            "catchKey": 38,
            "catchResponse": 45,
            "catchTime": 1682399976746,
            "trialTime": 0
        },
        {
            "exptPart": "trial",
            "trialNumber": 85,
            "roleCurrent": "receiver",
            "marblesSampled": 100,
            "probRed": 0.5,
            "practiceLambda": 5,
            "trialLambda": 8.1,
            "instructedLambda": "dishonest_small",
            "sd": 8.1,
            "drawnRed": 42,
            "reportedRed": 33,
            "inferredRed": 33,
            "playerTrialScore": -9,
            "oppTrialScore": 0,
            "playerTotalScore": -865,
            "oppTotalScore": 502,
            "waitTime": 7453.537871970015,
            "responseTime": 1682400005900,
            "catchQuestion": "How many <b class=\"r\">red<\/b> marbles did your opponent report drawing? ",
            "catchKey": 33,
            "catchResponse": 33,
            "catchTime": 1682400005900,
            "trialTime": 0
        },
        {
            "exptPart": "trial",
            "trialNumber": 86,
            "roleCurrent": "receiver",
            "marblesSampled": 100,
            "probRed": 0.5,
            "practiceLambda": 5,
            "trialLambda": 8.1,
            "instructedLambda": "dishonest_small",
            "sd": 8.1,
            "drawnRed": 35,
            "reportedRed": 56,
            "inferredRed": 56,
            "playerTrialScore": -21,
            "oppTrialScore": 21,
            "playerTotalScore": -886,
            "oppTotalScore": 523,
            "waitTime": 5960.296025151614,
            "responseTime": 1682400020960,
            "catchQuestion": "How many <b class=\"r\">red<\/b> marbles did your opponent report drawing? ",
            "catchKey": 56,
            "catchResponse": 56,
            "catchTime": 1682400020960,
            "trialTime": 0
        },
        {
            "exptPart": "trial",
            "trialNumber": 87,
            "roleCurrent": "receiver",
            "marblesSampled": 100,
            "probRed": 0.5,
            "practiceLambda": 5,
            "trialLambda": 8.1,
            "instructedLambda": "dishonest_small",
            "sd": 8.1,
            "drawnRed": 66,
            "reportedRed": 77,
            "inferredRed": 77,
            "playerTrialScore": -11,
            "oppTrialScore": 11,
            "playerTotalScore": -897,
            "oppTotalScore": 534,
            "waitTime": 5188.564883376732,
            "responseTime": 1682400033880,
            "catchQuestion": "How many <b class=\"r\">red<\/b> marbles did your opponent report drawing? ",
            "catchKey": -1,
            "catchResponse": -1,
            "catchTime": 1682400020960,
            "trialTime": 0
        },
        {
            "exptPart": "trial",
            "trialNumber": 88,
            "roleCurrent": "receiver",
            "marblesSampled": 100,
            "probRed": 0.5,
            "practiceLambda": 5,
            "trialLambda": 8.1,
            "instructedLambda": "dishonest_small",
            "sd": 8.1,
            "drawnRed": 68,
            "reportedRed": 74,
            "inferredRed": 74,
            "playerTrialScore": -6,
            "oppTrialScore": 6,
            "playerTotalScore": -903,
            "oppTotalScore": 540,
            "waitTime": 5283.502378912134,
            "responseTime": 1682400042358,
            "catchQuestion": "How many <b class=\"r\">red<\/b> marbles did your opponent report drawing? ",
            "catchKey": 74,
            "catchResponse": 74,
            "catchTime": 1682400042358,
            "trialTime": 0
        },
        {
            "exptPart": "trial",
            "trialNumber": 89,
            "roleCurrent": "receiver",
            "marblesSampled": 100,
            "probRed": 0.5,
            "practiceLambda": 5,
            "trialLambda": 8.1,
            "instructedLambda": "dishonest_small",
            "sd": 8.1,
            "drawnRed": 42,
            "reportedRed": 45,
            "inferredRed": 45,
            "playerTrialScore": -3,
            "oppTrialScore": 3,
            "playerTotalScore": -906,
            "oppTotalScore": 543,
            "waitTime": 7365.939186940476,
            "responseTime": 1682400059764,
            "catchQuestion": "How many <b class=\"r\">red<\/b> marbles did your opponent report drawing? ",
            "catchKey": -1,
            "catchResponse": -1,
            "catchTime": 1682400042358,
            "trialTime": 0
        },
        {
            "exptPart": "trial",
            "trialNumber": 90,
            "roleCurrent": "receiver",
            "marblesSampled": 100,
            "probRed": 0.5,
            "practiceLambda": 5,
            "trialLambda": 8.1,
            "instructedLambda": "dishonest_small",
            "sd": 8.1,
            "drawnRed": 64,
            "reportedRed": 68,
            "inferredRed": 68,
            "playerTrialScore": -4,
            "oppTrialScore": 4,
            "playerTotalScore": -910,
            "oppTotalScore": 547,
            "waitTime": 5907.486240229089,
            "responseTime": 1682400077542,
            "catchQuestion": "How many <b class=\"r\">red<\/b> marbles did your opponent report drawing? ",
            "catchKey": 68,
            "catchResponse": 68,
            "catchTime": 1682400077542,
            "trialTime": 0
        },
        {
            "exptPart": "trial",
            "trialNumber": 91,
            "roleCurrent": "receiver",
            "marblesSampled": 100,
            "probRed": 0.5,
            "practiceLambda": 5,
            "trialLambda": 8.1,
            "instructedLambda": "dishonest_small",
            "sd": 8.1,
            "drawnRed": 46,
            "reportedRed": 47,
            "inferredRed": 47,
            "playerTrialScore": -1,
            "oppTrialScore": 1,
            "playerTotalScore": -911,
            "oppTotalScore": 548,
            "waitTime": 5400.920431102431,
            "responseTime": 1682400091664,
            "catchQuestion": "How many <b class=\"r\">red<\/b> marbles did your opponent report drawing? ",
            "catchKey": -1,
            "catchResponse": -1,
            "catchTime": 1682400077542,
            "trialTime": 0
        },
        {
            "exptPart": "trial",
            "trialNumber": 92,
            "roleCurrent": "receiver",
            "marblesSampled": 100,
            "probRed": 0.5,
            "practiceLambda": 5,
            "trialLambda": 8.1,
            "instructedLambda": "dishonest_small",
            "sd": 8.1,
            "drawnRed": 66,
            "reportedRed": 63,
            "inferredRed": 63,
            "playerTrialScore": -3,
            "oppTrialScore": 0,
            "playerTotalScore": -914,
            "oppTotalScore": 548,
            "waitTime": 6031.210186406986,
            "responseTime": 1682400105096,
            "catchQuestion": "How many <b class=\"r\">red<\/b> marbles did your opponent report drawing? ",
            "catchKey": -1,
            "catchResponse": -1,
            "catchTime": 1682400077542,
            "trialTime": 0
        },
        {
            "exptPart": "trial",
            "trialNumber": 93,
            "roleCurrent": "receiver",
            "marblesSampled": 100,
            "probRed": 0.5,
            "practiceLambda": 5,
            "trialLambda": 8.1,
            "instructedLambda": "dishonest_small",
            "sd": 8.1,
            "drawnRed": 50,
            "reportedRed": 49,
            "inferredRed": 49,
            "playerTrialScore": -1,
            "oppTrialScore": 0,
            "playerTotalScore": -915,
            "oppTotalScore": 548,
            "waitTime": 7478.896733662224,
            "responseTime": 1682400115860,
            "catchQuestion": "How many <b class=\"r\">red<\/b> marbles did your opponent report drawing? ",
            "catchKey": -1,
            "catchResponse": -1,
            "catchTime": 1682400077542,
            "trialTime": 0
        },
        {
            "exptPart": "trial",
            "trialNumber": 94,
            "roleCurrent": "receiver",
            "marblesSampled": 100,
            "probRed": 0.5,
            "practiceLambda": 5,
            "trialLambda": 8.1,
            "instructedLambda": "dishonest_small",
            "sd": 8.1,
            "drawnRed": 72,
            "reportedRed": 78,
            "inferredRed": 78,
            "playerTrialScore": -6,
            "oppTrialScore": 6,
            "playerTotalScore": -921,
            "oppTotalScore": 554,
            "waitTime": 5637.368552137772,
            "responseTime": 1682400125387,
            "catchQuestion": "How many <b class=\"r\">red<\/b> marbles did your opponent report drawing? ",
            "catchKey": -1,
            "catchResponse": -1,
            "catchTime": 1682400077542,
            "trialTime": 0
        },
        {
            "exptPart": "trial",
            "trialNumber": 95,
            "roleCurrent": "receiver",
            "marblesSampled": 100,
            "probRed": 0.5,
            "practiceLambda": 5,
            "trialLambda": 8.1,
            "instructedLambda": "dishonest_small",
            "sd": 8.1,
            "drawnRed": 65,
            "reportedRed": 69,
            "inferredRed": 69,
            "playerTrialScore": -4,
            "oppTrialScore": 4,
            "playerTotalScore": -925,
            "oppTotalScore": 558,
            "waitTime": 5135.166847311148,
            "responseTime": 1682400138783,
            "catchQuestion": "How many <b class=\"r\">red<\/b> marbles did your opponent report drawing? ",
            "catchKey": -1,
            "catchResponse": -1,
            "catchTime": 1682400077542,
            "trialTime": 0
        },
        {
            "exptPart": "trial",
            "trialNumber": 96,
            "roleCurrent": "receiver",
            "marblesSampled": 100,
            "probRed": 0.5,
            "practiceLambda": 5,
            "trialLambda": 8.1,
            "instructedLambda": "dishonest_small",
            "sd": 8.1,
            "drawnRed": 50,
            "reportedRed": 59,
            "inferredRed": 59,
            "playerTrialScore": -9,
            "oppTrialScore": 9,
            "playerTotalScore": -934,
            "oppTotalScore": 567,
            "waitTime": 6153.380877767024,
            "responseTime": 1682400148003,
            "catchQuestion": "How many <b class=\"r\">red<\/b> marbles did your opponent report drawing? ",
            "catchKey": -1,
            "catchResponse": -1,
            "catchTime": 1682400077542,
            "trialTime": 0
        },
        {
            "exptPart": "trial",
            "trialNumber": 97,
            "roleCurrent": "receiver",
            "marblesSampled": 100,
            "probRed": 0.5,
            "practiceLambda": 5,
            "trialLambda": 8.1,
            "instructedLambda": "dishonest_small",
            "sd": 8.1,
            "drawnRed": 51,
            "reportedRed": 45,
            "inferredRed": 45,
            "playerTrialScore": -6,
            "oppTrialScore": 0,
            "playerTotalScore": -940,
            "oppTotalScore": 567,
            "waitTime": 6054.51032112344,
            "responseTime": 1682400156837,
            "catchQuestion": "How many <b class=\"r\">red<\/b> marbles did your opponent report drawing? ",
            "catchKey": -1,
            "catchResponse": -1,
            "catchTime": 1682400077542,
            "trialTime": 0
        },
        {
            "exptPart": "trial",
            "trialNumber": 98,
            "roleCurrent": "receiver",
            "marblesSampled": 100,
            "probRed": 0.5,
            "practiceLambda": 5,
            "trialLambda": 8.1,
            "instructedLambda": "dishonest_small",
            "sd": 8.1,
            "drawnRed": 20,
            "reportedRed": 15,
            "inferredRed": 15,
            "playerTrialScore": -5,
            "oppTrialScore": 0,
            "playerTotalScore": -945,
            "oppTotalScore": 567,
            "waitTime": 6262.290955374021,
            "responseTime": 1682400165924,
            "catchQuestion": "How many <b class=\"r\">red<\/b> marbles did your opponent report drawing? ",
            "catchKey": -1,
            "catchResponse": -1,
            "catchTime": 1682400077542,
            "trialTime": 0
        },
        {
            "exptPart": "trial",
            "trialNumber": 99,
            "roleCurrent": "receiver",
            "marblesSampled": 100,
            "probRed": 0.5,
            "practiceLambda": 5,
            "trialLambda": 8.1,
            "instructedLambda": "dishonest_small",
            "sd": 8.1,
            "drawnRed": 18,
            "reportedRed": 15,
            "inferredRed": 15,
            "playerTrialScore": -3,
            "oppTrialScore": 0,
            "playerTotalScore": -948,
            "oppTotalScore": 567,
            "waitTime": 5770.053308400413,
            "responseTime": 1682400186420,
            "catchQuestion": "How many <b class=\"r\">red<\/b> marbles did your opponent report drawing? ",
            "catchKey": -1,
            "catchResponse": -1,
            "catchTime": 1682400077542,
            "trialTime": 0
        },
        {
            "exptPart": "trial",
            "trialNumber": 100,
            "roleCurrent": "receiver",
            "marblesSampled": 100,
            "probRed": 0.5,
            "practiceLambda": 5,
            "trialLambda": 8.1,
            "instructedLambda": "dishonest_small",
            "sd": 8.1,
            "drawnRed": 14,
            "reportedRed": 13,
            "inferredRed": 13,
            "playerTrialScore": -1,
            "oppTrialScore": 0,
            "playerTotalScore": -949,
            "oppTotalScore": 567,
            "waitTime": 6724.894065251492,
            "responseTime": 1682400199721,
            "catchQuestion": "How many <b class=\"r\">red<\/b> marbles did your opponent report drawing? ",
            "catchKey": -1,
            "catchResponse": -1,
            "catchTime": 1682400199721,
            "trialTime": 0
        }
    ]
}