{
    "client": {
        "type": "sona",
        "experiment_id": 2228,
        "credit_token": "b315147ae43241ea9c65086cb510cfb7",
        "survey_code": "42161",
        "sid": "sona-42161",
        "window": {
            "width": 1920,
            "height": 969
        },
        "screen": {
            "width": 1920,
            "height": 1080
        },
        "userAgent": "Mozilla\/5.0 (Windows NT 10.0; Win64; x64) AppleWebKit\/537.36 (KHTML, like Gecko) Chrome\/112.0.0.0 Safari\/537.36",
        "score": 0,
        "bonus": 0
    },
    "expt": {
        "saveURL": "submit.simple.php",
        "trials": 100,
        "practiceTrials": 2,
        "marblesSampled": 100,
        "probRed": 0.5,
        "practiceLambdaAI": 5,
        "lambdaAI": 8.1,
        "sd": 8.1,
        "roles": [
            "sender",
            "receiver"
        ],
        "cost": "unif",
        "goal": "over",
        "oppDishonesty": "dishonest_big",
        "catchTrials": [
            88,
            86,
            31,
            17,
            23,
            41,
            52,
            85,
            3,
            83
        ],
        "scoreTotal": {
            "player": -1317,
            "opp": 656
        },
        "sona": {
            "experiment_id": 2228,
            "credit_token": "b315147ae43241ea9c65086cb510cfb7"
        },
        "pilot": false,
        "debug": false
    },
    "trials": [
        {
            "exptPart": "practice",
            "trialNumber": 1,
            "roleCurrent": "sender",
            "marblesSampled": 100,
            "probRed": 0.5,
            "practiceLambda": 5,
            "trialLambda": 8.1,
            "instructedLambda": "dishonest_big",
            "sd": 8.1,
            "drawnRed": 56,
            "reportedRed": 48,
            "inferredRed": 43,
            "playerTrialScore": 0,
            "oppTrialScore": -13,
            "playerTotalScore": 0,
            "oppTotalScore": -13,
            "waitTime": 2666.7787406423454,
            "responseTime": 1682041928963,
            "catchQuestion": "How many <b class=\"r\">red<\/b> marbles did you actually draw (before any changes)? ",
            "catchKey": 56,
            "catchResponse": 51,
            "catchTime": 1682041928963,
            "trialTime": 0
        },
        {
            "exptPart": "practice",
            "trialNumber": 2,
            "roleCurrent": "receiver",
            "marblesSampled": 100,
            "probRed": 0.5,
            "practiceLambda": 5,
            "trialLambda": 8.1,
            "instructedLambda": "dishonest_big",
            "sd": 8.1,
            "drawnRed": 63,
            "reportedRed": 87,
            "inferredRed": 55,
            "playerTrialScore": -8,
            "oppTrialScore": 0,
            "playerTotalScore": -8,
            "oppTotalScore": -13,
            "waitTime": 6821.507527989266,
            "responseTime": 1682041976422,
            "catchQuestion": "How many <b class=\"r\">red<\/b> marbles did your opponent report drawing? ",
            "catchKey": 87,
            "catchResponse": 88,
            "catchTime": 1682041976422,
            "trialTime": 0
        },
        {
            "exptPart": "trial",
            "trialNumber": 1,
            "roleCurrent": "receiver",
            "marblesSampled": 100,
            "probRed": 0.5,
            "practiceLambda": 5,
            "trialLambda": 8.1,
            "instructedLambda": "dishonest_big",
            "sd": 8.1,
            "drawnRed": 61,
            "reportedRed": 66,
            "inferredRed": 54,
            "playerTrialScore": -7,
            "oppTrialScore": 0,
            "playerTotalScore": -7,
            "oppTotalScore": 0,
            "waitTime": 5840.646810627613,
            "responseTime": 1682042026428,
            "catchQuestion": "How many <b class=\"r\">red<\/b> marbles did your opponent report drawing? ",
            "catchKey": -1,
            "catchResponse": -1,
            "catchTime": 1682041976422,
            "trialTime": 0
        },
        {
            "exptPart": "trial",
            "trialNumber": 2,
            "roleCurrent": "receiver",
            "marblesSampled": 100,
            "probRed": 0.5,
            "practiceLambda": 5,
            "trialLambda": 8.1,
            "instructedLambda": "dishonest_big",
            "sd": 8.1,
            "drawnRed": 47,
            "reportedRed": 39,
            "inferredRed": 46,
            "playerTrialScore": -1,
            "oppTrialScore": 0,
            "playerTotalScore": -8,
            "oppTotalScore": 0,
            "waitTime": 6235.7786595595935,
            "responseTime": 1682042038664,
            "catchQuestion": "How many <b class=\"r\">red<\/b> marbles did your opponent report drawing? ",
            "catchKey": -1,
            "catchResponse": -1,
            "catchTime": 1682041976422,
            "trialTime": 0
        },
        {
            "exptPart": "trial",
            "trialNumber": 3,
            "roleCurrent": "receiver",
            "marblesSampled": 100,
            "probRed": 0.5,
            "practiceLambda": 5,
            "trialLambda": 8.1,
            "instructedLambda": "dishonest_big",
            "sd": 8.1,
            "drawnRed": 59,
            "reportedRed": 70,
            "inferredRed": 60,
            "playerTrialScore": -1,
            "oppTrialScore": 1,
            "playerTotalScore": -9,
            "oppTotalScore": 1,
            "waitTime": 6650.943889012859,
            "responseTime": 1682042050838,
            "catchQuestion": "How many <b class=\"r\">red<\/b> marbles did your opponent report drawing? ",
            "catchKey": -1,
            "catchResponse": -1,
            "catchTime": 1682041976422,
            "trialTime": 0
        },
        {
            "exptPart": "trial",
            "trialNumber": 4,
            "roleCurrent": "receiver",
            "marblesSampled": 100,
            "probRed": 0.5,
            "practiceLambda": 5,
            "trialLambda": 8.1,
            "instructedLambda": "dishonest_big",
            "sd": 8.1,
            "drawnRed": 29,
            "reportedRed": 27,
            "inferredRed": 41,
            "playerTrialScore": -12,
            "oppTrialScore": 12,
            "playerTotalScore": -21,
            "oppTotalScore": 13,
            "waitTime": 6714.1939590729635,
            "responseTime": 1682042067305,
            "catchQuestion": "How many <b class=\"r\">red<\/b> marbles did your opponent report drawing? ",
            "catchKey": 27,
            "catchResponse": 29,
            "catchTime": 1682042067305,
            "trialTime": 0
        },
        {
            "exptPart": "trial",
            "trialNumber": 5,
            "roleCurrent": "receiver",
            "marblesSampled": 100,
            "probRed": 0.5,
            "practiceLambda": 5,
            "trialLambda": 8.1,
            "instructedLambda": "dishonest_big",
            "sd": 8.1,
            "drawnRed": 49,
            "reportedRed": 58,
            "inferredRed": 52,
            "playerTrialScore": -3,
            "oppTrialScore": 3,
            "playerTotalScore": -24,
            "oppTotalScore": 16,
            "waitTime": 5450.6217020020185,
            "responseTime": 1682042097374,
            "catchQuestion": "How many <b class=\"r\">red<\/b> marbles did your opponent report drawing? ",
            "catchKey": -1,
            "catchResponse": -1,
            "catchTime": 1682042067305,
            "trialTime": 0
        },
        {
            "exptPart": "trial",
            "trialNumber": 6,
            "roleCurrent": "receiver",
            "marblesSampled": 100,
            "probRed": 0.5,
            "practiceLambda": 5,
            "trialLambda": 8.1,
            "instructedLambda": "dishonest_big",
            "sd": 8.1,
            "drawnRed": 62,
            "reportedRed": 55,
            "inferredRed": 48,
            "playerTrialScore": -14,
            "oppTrialScore": 0,
            "playerTotalScore": -38,
            "oppTotalScore": 16,
            "waitTime": 6179.739920058288,
            "responseTime": 1682042108775,
            "catchQuestion": "How many <b class=\"r\">red<\/b> marbles did your opponent report drawing? ",
            "catchKey": -1,
            "catchResponse": -1,
            "catchTime": 1682042067305,
            "trialTime": 0
        },
        {
            "exptPart": "trial",
            "trialNumber": 7,
            "roleCurrent": "receiver",
            "marblesSampled": 100,
            "probRed": 0.5,
            "practiceLambda": 5,
            "trialLambda": 8.1,
            "instructedLambda": "dishonest_big",
            "sd": 8.1,
            "drawnRed": 61,
            "reportedRed": 84,
            "inferredRed": 48,
            "playerTrialScore": -13,
            "oppTrialScore": 0,
            "playerTotalScore": -51,
            "oppTotalScore": 16,
            "waitTime": 7068.226952522708,
            "responseTime": 1682042124290,
            "catchQuestion": "How many <b class=\"r\">red<\/b> marbles did your opponent report drawing? ",
            "catchKey": -1,
            "catchResponse": -1,
            "catchTime": 1682042067305,
            "trialTime": 0
        },
        {
            "exptPart": "trial",
            "trialNumber": 8,
            "roleCurrent": "receiver",
            "marblesSampled": 100,
            "probRed": 0.5,
            "practiceLambda": 5,
            "trialLambda": 8.1,
            "instructedLambda": "dishonest_big",
            "sd": 8.1,
            "drawnRed": 21,
            "reportedRed": 33,
            "inferredRed": 46,
            "playerTrialScore": -25,
            "oppTrialScore": 25,
            "playerTotalScore": -76,
            "oppTotalScore": 41,
            "waitTime": 5630.787431949334,
            "responseTime": 1682042136422,
            "catchQuestion": "How many <b class=\"r\">red<\/b> marbles did your opponent report drawing? ",
            "catchKey": -1,
            "catchResponse": -1,
            "catchTime": 1682042067305,
            "trialTime": 0
        },
        {
            "exptPart": "trial",
            "trialNumber": 9,
            "roleCurrent": "receiver",
            "marblesSampled": 100,
            "probRed": 0.5,
            "practiceLambda": 5,
            "trialLambda": 8.1,
            "instructedLambda": "dishonest_big",
            "sd": 8.1,
            "drawnRed": 46,
            "reportedRed": 38,
            "inferredRed": 46,
            "playerTrialScore": 0,
            "oppTrialScore": 0,
            "playerTotalScore": -76,
            "oppTotalScore": 41,
            "waitTime": 6182.521001321931,
            "responseTime": 1682042149177,
            "catchQuestion": "How many <b class=\"r\">red<\/b> marbles did your opponent report drawing? ",
            "catchKey": -1,
            "catchResponse": -1,
            "catchTime": 1682042067305,
            "trialTime": 0
        },
        {
            "exptPart": "trial",
            "trialNumber": 10,
            "roleCurrent": "receiver",
            "marblesSampled": 100,
            "probRed": 0.5,
            "practiceLambda": 5,
            "trialLambda": 8.1,
            "instructedLambda": "dishonest_big",
            "sd": 8.1,
            "drawnRed": 68,
            "reportedRed": 82,
            "inferredRed": 47,
            "playerTrialScore": -21,
            "oppTrialScore": 0,
            "playerTotalScore": -97,
            "oppTotalScore": 41,
            "waitTime": 7448.7962003566945,
            "responseTime": 1682042166136,
            "catchQuestion": "How many <b class=\"r\">red<\/b> marbles did your opponent report drawing? ",
            "catchKey": -1,
            "catchResponse": -1,
            "catchTime": 1682042166136,
            "trialTime": 0
        },
        {
            "exptPart": "trial",
            "trialNumber": 11,
            "roleCurrent": "receiver",
            "marblesSampled": 100,
            "probRed": 0.5,
            "practiceLambda": 5,
            "trialLambda": 8.1,
            "instructedLambda": "dishonest_big",
            "sd": 8.1,
            "drawnRed": 51,
            "reportedRed": 58,
            "inferredRed": 36,
            "playerTrialScore": -15,
            "oppTrialScore": 0,
            "playerTotalScore": -112,
            "oppTotalScore": 41,
            "waitTime": 5962.341574091857,
            "responseTime": 1682042188208,
            "catchQuestion": "How many <b class=\"r\">red<\/b> marbles did your opponent report drawing? ",
            "catchKey": -1,
            "catchResponse": -1,
            "catchTime": 1682042166136,
            "trialTime": 0
        },
        {
            "exptPart": "trial",
            "trialNumber": 12,
            "roleCurrent": "receiver",
            "marblesSampled": 100,
            "probRed": 0.5,
            "practiceLambda": 5,
            "trialLambda": 8.1,
            "instructedLambda": "dishonest_big",
            "sd": 8.1,
            "drawnRed": 35,
            "reportedRed": 38,
            "inferredRed": 20,
            "playerTrialScore": -15,
            "oppTrialScore": 0,
            "playerTotalScore": -127,
            "oppTotalScore": 41,
            "waitTime": 6784.260460145279,
            "responseTime": 1682042198058,
            "catchQuestion": "How many <b class=\"r\">red<\/b> marbles did your opponent report drawing? ",
            "catchKey": -1,
            "catchResponse": -1,
            "catchTime": 1682042166136,
            "trialTime": 0
        },
        {
            "exptPart": "trial",
            "trialNumber": 13,
            "roleCurrent": "receiver",
            "marblesSampled": 100,
            "probRed": 0.5,
            "practiceLambda": 5,
            "trialLambda": 8.1,
            "instructedLambda": "dishonest_big",
            "sd": 8.1,
            "drawnRed": 36,
            "reportedRed": 35,
            "inferredRed": 31,
            "playerTrialScore": -5,
            "oppTrialScore": 0,
            "playerTotalScore": -132,
            "oppTotalScore": 41,
            "waitTime": 5187.87647744944,
            "responseTime": 1682042208560,
            "catchQuestion": "How many <b class=\"r\">red<\/b> marbles did your opponent report drawing? ",
            "catchKey": -1,
            "catchResponse": -1,
            "catchTime": 1682042166136,
            "trialTime": 0
        },
        {
            "exptPart": "trial",
            "trialNumber": 14,
            "roleCurrent": "receiver",
            "marblesSampled": 100,
            "probRed": 0.5,
            "practiceLambda": 5,
            "trialLambda": 8.1,
            "instructedLambda": "dishonest_big",
            "sd": 8.1,
            "drawnRed": 44,
            "reportedRed": 59,
            "inferredRed": 40,
            "playerTrialScore": -4,
            "oppTrialScore": 0,
            "playerTotalScore": -136,
            "oppTotalScore": 41,
            "waitTime": 6379.324922059894,
            "responseTime": 1682042219311,
            "catchQuestion": "How many <b class=\"r\">red<\/b> marbles did your opponent report drawing? ",
            "catchKey": -1,
            "catchResponse": -1,
            "catchTime": 1682042166136,
            "trialTime": 0
        },
        {
            "exptPart": "trial",
            "trialNumber": 15,
            "roleCurrent": "receiver",
            "marblesSampled": 100,
            "probRed": 0.5,
            "practiceLambda": 5,
            "trialLambda": 8.1,
            "instructedLambda": "dishonest_big",
            "sd": 8.1,
            "drawnRed": 54,
            "reportedRed": 61,
            "inferredRed": 42,
            "playerTrialScore": -12,
            "oppTrialScore": 0,
            "playerTotalScore": -148,
            "oppTotalScore": 41,
            "waitTime": 6469.042658410644,
            "responseTime": 1682042236212,
            "catchQuestion": "How many <b class=\"r\">red<\/b> marbles did your opponent report drawing? ",
            "catchKey": -1,
            "catchResponse": -1,
            "catchTime": 1682042166136,
            "trialTime": 0
        },
        {
            "exptPart": "trial",
            "trialNumber": 16,
            "roleCurrent": "receiver",
            "marblesSampled": 100,
            "probRed": 0.5,
            "practiceLambda": 5,
            "trialLambda": 8.1,
            "instructedLambda": "dishonest_big",
            "sd": 8.1,
            "drawnRed": 28,
            "reportedRed": 32,
            "inferredRed": 25,
            "playerTrialScore": -3,
            "oppTrialScore": 0,
            "playerTotalScore": -151,
            "oppTotalScore": 41,
            "waitTime": 6301.9720326470815,
            "responseTime": 1682042245658,
            "catchQuestion": "How many <b class=\"r\">red<\/b> marbles did your opponent report drawing? ",
            "catchKey": -1,
            "catchResponse": -1,
            "catchTime": 1682042166136,
            "trialTime": 0
        },
        {
            "exptPart": "trial",
            "trialNumber": 17,
            "roleCurrent": "receiver",
            "marblesSampled": 100,
            "probRed": 0.5,
            "practiceLambda": 5,
            "trialLambda": 8.1,
            "instructedLambda": "dishonest_big",
            "sd": 8.1,
            "drawnRed": 40,
            "reportedRed": 51,
            "inferredRed": 42,
            "playerTrialScore": -2,
            "oppTrialScore": 2,
            "playerTotalScore": -153,
            "oppTotalScore": 43,
            "waitTime": 5722.141852589084,
            "responseTime": 1682042256006,
            "catchQuestion": "How many <b class=\"r\">red<\/b> marbles did your opponent report drawing? ",
            "catchKey": -1,
            "catchResponse": -1,
            "catchTime": 1682042166136,
            "trialTime": 0
        },
        {
            "exptPart": "trial",
            "trialNumber": 18,
            "roleCurrent": "receiver",
            "marblesSampled": 100,
            "probRed": 0.5,
            "practiceLambda": 5,
            "trialLambda": 8.1,
            "instructedLambda": "dishonest_big",
            "sd": 8.1,
            "drawnRed": 29,
            "reportedRed": 38,
            "inferredRed": 35,
            "playerTrialScore": -6,
            "oppTrialScore": 6,
            "playerTotalScore": -159,
            "oppTotalScore": 49,
            "waitTime": 5431.480641919357,
            "responseTime": 1682042264451,
            "catchQuestion": "How many <b class=\"r\">red<\/b> marbles did your opponent report drawing? ",
            "catchKey": 38,
            "catchResponse": 38,
            "catchTime": 1682042264451,
            "trialTime": 0
        },
        {
            "exptPart": "trial",
            "trialNumber": 19,
            "roleCurrent": "receiver",
            "marblesSampled": 100,
            "probRed": 0.5,
            "practiceLambda": 5,
            "trialLambda": 8.1,
            "instructedLambda": "dishonest_big",
            "sd": 8.1,
            "drawnRed": 35,
            "reportedRed": 51,
            "inferredRed": 42,
            "playerTrialScore": -7,
            "oppTrialScore": 7,
            "playerTotalScore": -166,
            "oppTotalScore": 56,
            "waitTime": 7263.705014964223,
            "responseTime": 1682042282585,
            "catchQuestion": "How many <b class=\"r\">red<\/b> marbles did your opponent report drawing? ",
            "catchKey": -1,
            "catchResponse": -1,
            "catchTime": 1682042264451,
            "trialTime": 0
        },
        {
            "exptPart": "trial",
            "trialNumber": 20,
            "roleCurrent": "receiver",
            "marblesSampled": 100,
            "probRed": 0.5,
            "practiceLambda": 5,
            "trialLambda": 8.1,
            "instructedLambda": "dishonest_big",
            "sd": 8.1,
            "drawnRed": 70,
            "reportedRed": 75,
            "inferredRed": 42,
            "playerTrialScore": -28,
            "oppTrialScore": 0,
            "playerTotalScore": -194,
            "oppTotalScore": 56,
            "waitTime": 5282.70601053795,
            "responseTime": 1682042292285,
            "catchQuestion": "How many <b class=\"r\">red<\/b> marbles did your opponent report drawing? ",
            "catchKey": -1,
            "catchResponse": -1,
            "catchTime": 1682042292286,
            "trialTime": 0
        },
        {
            "exptPart": "trial",
            "trialNumber": 21,
            "roleCurrent": "receiver",
            "marblesSampled": 100,
            "probRed": 0.5,
            "practiceLambda": 5,
            "trialLambda": 8.1,
            "instructedLambda": "dishonest_big",
            "sd": 8.1,
            "drawnRed": 38,
            "reportedRed": 45,
            "inferredRed": 49,
            "playerTrialScore": -11,
            "oppTrialScore": 11,
            "playerTotalScore": -205,
            "oppTotalScore": 67,
            "waitTime": 5152.752836063393,
            "responseTime": 1682042313981,
            "catchQuestion": "How many <b class=\"r\">red<\/b> marbles did your opponent report drawing? ",
            "catchKey": -1,
            "catchResponse": -1,
            "catchTime": 1682042292286,
            "trialTime": 0
        },
        {
            "exptPart": "trial",
            "trialNumber": 22,
            "roleCurrent": "receiver",
            "marblesSampled": 100,
            "probRed": 0.5,
            "practiceLambda": 5,
            "trialLambda": 8.1,
            "instructedLambda": "dishonest_big",
            "sd": 8.1,
            "drawnRed": 57,
            "reportedRed": 68,
            "inferredRed": 52,
            "playerTrialScore": -5,
            "oppTrialScore": 0,
            "playerTotalScore": -210,
            "oppTotalScore": 67,
            "waitTime": 6352.435954349054,
            "responseTime": 1682042329029,
            "catchQuestion": "How many <b class=\"r\">red<\/b> marbles did your opponent report drawing? ",
            "catchKey": -1,
            "catchResponse": -1,
            "catchTime": 1682042292286,
            "trialTime": 0
        },
        {
            "exptPart": "trial",
            "trialNumber": 23,
            "roleCurrent": "receiver",
            "marblesSampled": 100,
            "probRed": 0.5,
            "practiceLambda": 5,
            "trialLambda": 8.1,
            "instructedLambda": "dishonest_big",
            "sd": 8.1,
            "drawnRed": 74,
            "reportedRed": 92,
            "inferredRed": 50,
            "playerTrialScore": -24,
            "oppTrialScore": 0,
            "playerTotalScore": -234,
            "oppTotalScore": 67,
            "waitTime": 6015.297124546296,
            "responseTime": 1682042342083,
            "catchQuestion": "How many <b class=\"r\">red<\/b> marbles did your opponent report drawing? ",
            "catchKey": -1,
            "catchResponse": -1,
            "catchTime": 1682042292286,
            "trialTime": 0
        },
        {
            "exptPart": "trial",
            "trialNumber": 24,
            "roleCurrent": "receiver",
            "marblesSampled": 100,
            "probRed": 0.5,
            "practiceLambda": 5,
            "trialLambda": 8.1,
            "instructedLambda": "dishonest_big",
            "sd": 8.1,
            "drawnRed": 25,
            "reportedRed": 29,
            "inferredRed": 45,
            "playerTrialScore": -20,
            "oppTrialScore": 20,
            "playerTotalScore": -254,
            "oppTotalScore": 87,
            "waitTime": 7120.970915950958,
            "responseTime": 1682042357560,
            "catchQuestion": "How many <b class=\"r\">red<\/b> marbles did your opponent report drawing? ",
            "catchKey": 29,
            "catchResponse": 29,
            "catchTime": 1682042357560,
            "trialTime": 0
        },
        {
            "exptPart": "trial",
            "trialNumber": 25,
            "roleCurrent": "receiver",
            "marblesSampled": 100,
            "probRed": 0.5,
            "practiceLambda": 5,
            "trialLambda": 8.1,
            "instructedLambda": "dishonest_big",
            "sd": 8.1,
            "drawnRed": 25,
            "reportedRed": 33,
            "inferredRed": 43,
            "playerTrialScore": -18,
            "oppTrialScore": 18,
            "playerTotalScore": -272,
            "oppTotalScore": 105,
            "waitTime": 6528.601415575138,
            "responseTime": 1682042372512,
            "catchQuestion": "How many <b class=\"r\">red<\/b> marbles did your opponent report drawing? ",
            "catchKey": -1,
            "catchResponse": -1,
            "catchTime": 1682042357560,
            "trialTime": 0
        },
        {
            "exptPart": "trial",
            "trialNumber": 26,
            "roleCurrent": "receiver",
            "marblesSampled": 100,
            "probRed": 0.5,
            "practiceLambda": 5,
            "trialLambda": 8.1,
            "instructedLambda": "dishonest_big",
            "sd": 8.1,
            "drawnRed": 93,
            "reportedRed": 100,
            "inferredRed": 50,
            "playerTrialScore": -43,
            "oppTrialScore": 0,
            "playerTotalScore": -315,
            "oppTotalScore": 105,
            "waitTime": 5448.972190342396,
            "responseTime": 1682042383328,
            "catchQuestion": "How many <b class=\"r\">red<\/b> marbles did your opponent report drawing? ",
            "catchKey": -1,
            "catchResponse": -1,
            "catchTime": 1682042357560,
            "trialTime": 0
        },
        {
            "exptPart": "trial",
            "trialNumber": 27,
            "roleCurrent": "receiver",
            "marblesSampled": 100,
            "probRed": 0.5,
            "practiceLambda": 5,
            "trialLambda": 8.1,
            "instructedLambda": "dishonest_big",
            "sd": 8.1,
            "drawnRed": 55,
            "reportedRed": 71,
            "inferredRed": 51,
            "playerTrialScore": -4,
            "oppTrialScore": 0,
            "playerTotalScore": -319,
            "oppTotalScore": 105,
            "waitTime": 6350.454232305842,
            "responseTime": 1682042395729,
            "catchQuestion": "How many <b class=\"r\">red<\/b> marbles did your opponent report drawing? ",
            "catchKey": -1,
            "catchResponse": -1,
            "catchTime": 1682042357560,
            "trialTime": 0
        },
        {
            "exptPart": "trial",
            "trialNumber": 28,
            "roleCurrent": "receiver",
            "marblesSampled": 100,
            "probRed": 0.5,
            "practiceLambda": 5,
            "trialLambda": 8.1,
            "instructedLambda": "dishonest_big",
            "sd": 8.1,
            "drawnRed": 54,
            "reportedRed": 58,
            "inferredRed": 51,
            "playerTrialScore": -3,
            "oppTrialScore": 0,
            "playerTotalScore": -322,
            "oppTotalScore": 105,
            "waitTime": 5229.9646991781865,
            "responseTime": 1682042404184,
            "catchQuestion": "How many <b class=\"r\">red<\/b> marbles did your opponent report drawing? ",
            "catchKey": -1,
            "catchResponse": -1,
            "catchTime": 1682042357560,
            "trialTime": 0
        },
        {
            "exptPart": "trial",
            "trialNumber": 29,
            "roleCurrent": "receiver",
            "marblesSampled": 100,
            "probRed": 0.5,
            "practiceLambda": 5,
            "trialLambda": 8.1,
            "instructedLambda": "dishonest_big",
            "sd": 8.1,
            "drawnRed": 36,
            "reportedRed": 43,
            "inferredRed": 51,
            "playerTrialScore": -15,
            "oppTrialScore": 15,
            "playerTotalScore": -337,
            "oppTotalScore": 120,
            "waitTime": 6068.777067476909,
            "responseTime": 1682042413865,
            "catchQuestion": "How many <b class=\"r\">red<\/b> marbles did your opponent report drawing? ",
            "catchKey": -1,
            "catchResponse": -1,
            "catchTime": 1682042357560,
            "trialTime": 0
        },
        {
            "exptPart": "trial",
            "trialNumber": 30,
            "roleCurrent": "receiver",
            "marblesSampled": 100,
            "probRed": 0.5,
            "practiceLambda": 5,
            "trialLambda": 8.1,
            "instructedLambda": "dishonest_big",
            "sd": 8.1,
            "drawnRed": 41,
            "reportedRed": 56,
            "inferredRed": 52,
            "playerTrialScore": -11,
            "oppTrialScore": 11,
            "playerTotalScore": -348,
            "oppTotalScore": 131,
            "waitTime": 5256.188807436468,
            "responseTime": 1682042422583,
            "catchQuestion": "How many <b class=\"r\">red<\/b> marbles did your opponent report drawing? ",
            "catchKey": -1,
            "catchResponse": -1,
            "catchTime": 1682042422583,
            "trialTime": 0
        },
        {
            "exptPart": "trial",
            "trialNumber": 31,
            "roleCurrent": "receiver",
            "marblesSampled": 100,
            "probRed": 0.5,
            "practiceLambda": 5,
            "trialLambda": 8.1,
            "instructedLambda": "dishonest_big",
            "sd": 8.1,
            "drawnRed": 66,
            "reportedRed": 79,
            "inferredRed": 52,
            "playerTrialScore": -14,
            "oppTrialScore": 0,
            "playerTotalScore": -362,
            "oppTotalScore": 131,
            "waitTime": 5339.702724422506,
            "responseTime": 1682042441200,
            "catchQuestion": "How many <b class=\"r\">red<\/b> marbles did your opponent report drawing? ",
            "catchKey": -1,
            "catchResponse": -1,
            "catchTime": 1682042422583,
            "trialTime": 0
        },
        {
            "exptPart": "trial",
            "trialNumber": 32,
            "roleCurrent": "receiver",
            "marblesSampled": 100,
            "probRed": 0.5,
            "practiceLambda": 5,
            "trialLambda": 8.1,
            "instructedLambda": "dishonest_big",
            "sd": 8.1,
            "drawnRed": 50,
            "reportedRed": 56,
            "inferredRed": 52,
            "playerTrialScore": -2,
            "oppTrialScore": 2,
            "playerTotalScore": -364,
            "oppTotalScore": 133,
            "waitTime": 6801.738016871019,
            "responseTime": 1682042452185,
            "catchQuestion": "How many <b class=\"r\">red<\/b> marbles did your opponent report drawing? ",
            "catchKey": 56,
            "catchResponse": 56,
            "catchTime": 1682042452185,
            "trialTime": 0
        },
        {
            "exptPart": "trial",
            "trialNumber": 33,
            "roleCurrent": "receiver",
            "marblesSampled": 100,
            "probRed": 0.5,
            "practiceLambda": 5,
            "trialLambda": 8.1,
            "instructedLambda": "dishonest_big",
            "sd": 8.1,
            "drawnRed": 56,
            "reportedRed": 51,
            "inferredRed": 48,
            "playerTrialScore": -8,
            "oppTrialScore": 0,
            "playerTotalScore": -372,
            "oppTotalScore": 133,
            "waitTime": 6081.307497563586,
            "responseTime": 1682042469478,
            "catchQuestion": "How many <b class=\"r\">red<\/b> marbles did your opponent report drawing? ",
            "catchKey": -1,
            "catchResponse": -1,
            "catchTime": 1682042452185,
            "trialTime": 0
        },
        {
            "exptPart": "trial",
            "trialNumber": 34,
            "roleCurrent": "receiver",
            "marblesSampled": 100,
            "probRed": 0.5,
            "practiceLambda": 5,
            "trialLambda": 8.1,
            "instructedLambda": "dishonest_big",
            "sd": 8.1,
            "drawnRed": 24,
            "reportedRed": 24,
            "inferredRed": 47,
            "playerTrialScore": -23,
            "oppTrialScore": 23,
            "playerTotalScore": -395,
            "oppTotalScore": 156,
            "waitTime": 5772.57085732178,
            "responseTime": 1682042482341,
            "catchQuestion": "How many <b class=\"r\">red<\/b> marbles did your opponent report drawing? ",
            "catchKey": -1,
            "catchResponse": -1,
            "catchTime": 1682042452185,
            "trialTime": 0
        },
        {
            "exptPart": "trial",
            "trialNumber": 35,
            "roleCurrent": "receiver",
            "marblesSampled": 100,
            "probRed": 0.5,
            "practiceLambda": 5,
            "trialLambda": 8.1,
            "instructedLambda": "dishonest_big",
            "sd": 8.1,
            "drawnRed": 10,
            "reportedRed": 29,
            "inferredRed": 52,
            "playerTrialScore": -42,
            "oppTrialScore": 42,
            "playerTotalScore": -437,
            "oppTotalScore": 198,
            "waitTime": 6894.71288596,
            "responseTime": 1682042500136,
            "catchQuestion": "How many <b class=\"r\">red<\/b> marbles did your opponent report drawing? ",
            "catchKey": -1,
            "catchResponse": -1,
            "catchTime": 1682042452185,
            "trialTime": 0
        },
        {
            "exptPart": "trial",
            "trialNumber": 36,
            "roleCurrent": "receiver",
            "marblesSampled": 100,
            "probRed": 0.5,
            "practiceLambda": 5,
            "trialLambda": 8.1,
            "instructedLambda": "dishonest_big",
            "sd": 8.1,
            "drawnRed": 16,
            "reportedRed": 26,
            "inferredRed": 49,
            "playerTrialScore": -33,
            "oppTrialScore": 33,
            "playerTotalScore": -470,
            "oppTotalScore": 231,
            "waitTime": 5470.3325037356135,
            "responseTime": 1682042513362,
            "catchQuestion": "How many <b class=\"r\">red<\/b> marbles did your opponent report drawing? ",
            "catchKey": -1,
            "catchResponse": -1,
            "catchTime": 1682042452185,
            "trialTime": 0
        },
        {
            "exptPart": "trial",
            "trialNumber": 37,
            "roleCurrent": "receiver",
            "marblesSampled": 100,
            "probRed": 0.5,
            "practiceLambda": 5,
            "trialLambda": 8.1,
            "instructedLambda": "dishonest_big",
            "sd": 8.1,
            "drawnRed": 76,
            "reportedRed": 84,
            "inferredRed": 53,
            "playerTrialScore": -23,
            "oppTrialScore": 0,
            "playerTotalScore": -493,
            "oppTotalScore": 231,
            "waitTime": 5575.864503715906,
            "responseTime": 1682042531886,
            "catchQuestion": "How many <b class=\"r\">red<\/b> marbles did your opponent report drawing? ",
            "catchKey": -1,
            "catchResponse": -1,
            "catchTime": 1682042452185,
            "trialTime": 0
        },
        {
            "exptPart": "trial",
            "trialNumber": 38,
            "roleCurrent": "receiver",
            "marblesSampled": 100,
            "probRed": 0.5,
            "practiceLambda": 5,
            "trialLambda": 8.1,
            "instructedLambda": "dishonest_big",
            "sd": 8.1,
            "drawnRed": 41,
            "reportedRed": 49,
            "inferredRed": 42,
            "playerTrialScore": -1,
            "oppTrialScore": 1,
            "playerTotalScore": -494,
            "oppTotalScore": 232,
            "waitTime": 6904.0528975124535,
            "responseTime": 1682042545741,
            "catchQuestion": "How many <b class=\"r\">red<\/b> marbles did your opponent report drawing? ",
            "catchKey": -1,
            "catchResponse": -1,
            "catchTime": 1682042452185,
            "trialTime": 0
        },
        {
            "exptPart": "trial",
            "trialNumber": 39,
            "roleCurrent": "receiver",
            "marblesSampled": 100,
            "probRed": 0.5,
            "practiceLambda": 5,
            "trialLambda": 8.1,
            "instructedLambda": "dishonest_big",
            "sd": 8.1,
            "drawnRed": 70,
            "reportedRed": 92,
            "inferredRed": 41,
            "playerTrialScore": -29,
            "oppTrialScore": 0,
            "playerTotalScore": -523,
            "oppTotalScore": 232,
            "waitTime": 5621.469500866995,
            "responseTime": 1682042559062,
            "catchQuestion": "How many <b class=\"r\">red<\/b> marbles did your opponent report drawing? ",
            "catchKey": -1,
            "catchResponse": -1,
            "catchTime": 1682042452185,
            "trialTime": 0
        },
        {
            "exptPart": "trial",
            "trialNumber": 40,
            "roleCurrent": "receiver",
            "marblesSampled": 100,
            "probRed": 0.5,
            "practiceLambda": 5,
            "trialLambda": 8.1,
            "instructedLambda": "dishonest_big",
            "sd": 8.1,
            "drawnRed": 40,
            "reportedRed": 47,
            "inferredRed": 53,
            "playerTrialScore": -13,
            "oppTrialScore": 13,
            "playerTotalScore": -536,
            "oppTotalScore": 245,
            "waitTime": 5796.948303260946,
            "responseTime": 1682042570725,
            "catchQuestion": "How many <b class=\"r\">red<\/b> marbles did your opponent report drawing? ",
            "catchKey": -1,
            "catchResponse": -1,
            "catchTime": 1682042570725,
            "trialTime": 0
        },
        {
            "exptPart": "trial",
            "trialNumber": 41,
            "roleCurrent": "receiver",
            "marblesSampled": 100,
            "probRed": 0.5,
            "practiceLambda": 5,
            "trialLambda": 8.1,
            "instructedLambda": "dishonest_big",
            "sd": 8.1,
            "drawnRed": 50,
            "reportedRed": 59,
            "inferredRed": 51,
            "playerTrialScore": -1,
            "oppTrialScore": 1,
            "playerTotalScore": -537,
            "oppTotalScore": 246,
            "waitTime": 6275.586663202388,
            "responseTime": 1682042585172,
            "catchQuestion": "How many <b class=\"r\">red<\/b> marbles did your opponent report drawing? ",
            "catchKey": -1,
            "catchResponse": -1,
            "catchTime": 1682042570725,
            "trialTime": 0
        },
        {
            "exptPart": "trial",
            "trialNumber": 42,
            "roleCurrent": "receiver",
            "marblesSampled": 100,
            "probRed": 0.5,
            "practiceLambda": 5,
            "trialLambda": 8.1,
            "instructedLambda": "dishonest_big",
            "sd": 8.1,
            "drawnRed": 51,
            "reportedRed": 63,
            "inferredRed": 43,
            "playerTrialScore": -8,
            "oppTrialScore": 0,
            "playerTotalScore": -545,
            "oppTotalScore": 246,
            "waitTime": 6663.46857511788,
            "responseTime": 1682042607752,
            "catchQuestion": "How many <b class=\"r\">red<\/b> marbles did your opponent report drawing? ",
            "catchKey": 63,
            "catchResponse": 63,
            "catchTime": 1682042607752,
            "trialTime": 0
        },
        {
            "exptPart": "trial",
            "trialNumber": 43,
            "roleCurrent": "receiver",
            "marblesSampled": 100,
            "probRed": 0.5,
            "practiceLambda": 5,
            "trialLambda": 8.1,
            "instructedLambda": "dishonest_big",
            "sd": 8.1,
            "drawnRed": 52,
            "reportedRed": 59,
            "inferredRed": 49,
            "playerTrialScore": -3,
            "oppTrialScore": 0,
            "playerTotalScore": -548,
            "oppTotalScore": 246,
            "waitTime": 7371.230700467295,
            "responseTime": 1682043798957,
            "catchQuestion": "How many <b class=\"r\">red<\/b> marbles did your opponent report drawing? ",
            "catchKey": -1,
            "catchResponse": -1,
            "catchTime": 1682042607752,
            "trialTime": 0
        },
        {
            "exptPart": "trial",
            "trialNumber": 44,
            "roleCurrent": "receiver",
            "marblesSampled": 100,
            "probRed": 0.5,
            "practiceLambda": 5,
            "trialLambda": 8.1,
            "instructedLambda": "dishonest_big",
            "sd": 8.1,
            "drawnRed": 26,
            "reportedRed": 27,
            "inferredRed": 48,
            "playerTrialScore": -22,
            "oppTrialScore": 22,
            "playerTotalScore": -570,
            "oppTotalScore": 268,
            "waitTime": 5825.908185612074,
            "responseTime": 1682043808121,
            "catchQuestion": "How many <b class=\"r\">red<\/b> marbles did your opponent report drawing? ",
            "catchKey": -1,
            "catchResponse": -1,
            "catchTime": 1682042607752,
            "trialTime": 0
        },
        {
            "exptPart": "trial",
            "trialNumber": 45,
            "roleCurrent": "receiver",
            "marblesSampled": 100,
            "probRed": 0.5,
            "practiceLambda": 5,
            "trialLambda": 8.1,
            "instructedLambda": "dishonest_big",
            "sd": 8.1,
            "drawnRed": 50,
            "reportedRed": 63,
            "inferredRed": 40,
            "playerTrialScore": -10,
            "oppTrialScore": 0,
            "playerTotalScore": -580,
            "oppTotalScore": 268,
            "waitTime": 5299.3005411463055,
            "responseTime": 1682043817287,
            "catchQuestion": "How many <b class=\"r\">red<\/b> marbles did your opponent report drawing? ",
            "catchKey": -1,
            "catchResponse": -1,
            "catchTime": 1682042607752,
            "trialTime": 0
        },
        {
            "exptPart": "trial",
            "trialNumber": 46,
            "roleCurrent": "receiver",
            "marblesSampled": 100,
            "probRed": 0.5,
            "practiceLambda": 5,
            "trialLambda": 8.1,
            "instructedLambda": "dishonest_big",
            "sd": 8.1,
            "drawnRed": 57,
            "reportedRed": 67,
            "inferredRed": 53,
            "playerTrialScore": -4,
            "oppTrialScore": 0,
            "playerTotalScore": -584,
            "oppTotalScore": 268,
            "waitTime": 5132.002551535043,
            "responseTime": 1682043828910,
            "catchQuestion": "How many <b class=\"r\">red<\/b> marbles did your opponent report drawing? ",
            "catchKey": -1,
            "catchResponse": -1,
            "catchTime": 1682042607752,
            "trialTime": 0
        },
        {
            "exptPart": "trial",
            "trialNumber": 47,
            "roleCurrent": "receiver",
            "marblesSampled": 100,
            "probRed": 0.5,
            "practiceLambda": 5,
            "trialLambda": 8.1,
            "instructedLambda": "dishonest_big",
            "sd": 8.1,
            "drawnRed": 23,
            "reportedRed": 28,
            "inferredRed": 51,
            "playerTrialScore": -28,
            "oppTrialScore": 28,
            "playerTotalScore": -612,
            "oppTotalScore": 296,
            "waitTime": 5227.420269843226,
            "responseTime": 1682043840584,
            "catchQuestion": "How many <b class=\"r\">red<\/b> marbles did your opponent report drawing? ",
            "catchKey": -1,
            "catchResponse": -1,
            "catchTime": 1682042607752,
            "trialTime": 0
        },
        {
            "exptPart": "trial",
            "trialNumber": 48,
            "roleCurrent": "receiver",
            "marblesSampled": 100,
            "probRed": 0.5,
            "practiceLambda": 5,
            "trialLambda": 8.1,
            "instructedLambda": "dishonest_big",
            "sd": 8.1,
            "drawnRed": 58,
            "reportedRed": 65,
            "inferredRed": 52,
            "playerTrialScore": -6,
            "oppTrialScore": 0,
            "playerTotalScore": -618,
            "oppTotalScore": 296,
            "waitTime": 5744.238795118914,
            "responseTime": 1682043854057,
            "catchQuestion": "How many <b class=\"r\">red<\/b> marbles did your opponent report drawing? ",
            "catchKey": -1,
            "catchResponse": -1,
            "catchTime": 1682042607752,
            "trialTime": 0
        },
        {
            "exptPart": "trial",
            "trialNumber": 49,
            "roleCurrent": "receiver",
            "marblesSampled": 100,
            "probRed": 0.5,
            "practiceLambda": 5,
            "trialLambda": 8.1,
            "instructedLambda": "dishonest_big",
            "sd": 8.1,
            "drawnRed": 51,
            "reportedRed": 53,
            "inferredRed": 49,
            "playerTrialScore": -2,
            "oppTrialScore": 0,
            "playerTotalScore": -620,
            "oppTotalScore": 296,
            "waitTime": 5414.071474069213,
            "responseTime": 1682043865399,
            "catchQuestion": "How many <b class=\"r\">red<\/b> marbles did your opponent report drawing? ",
            "catchKey": -1,
            "catchResponse": -1,
            "catchTime": 1682042607752,
            "trialTime": 0
        },
        {
            "exptPart": "trial",
            "trialNumber": 50,
            "roleCurrent": "receiver",
            "marblesSampled": 100,
            "probRed": 0.5,
            "practiceLambda": 5,
            "trialLambda": 8.1,
            "instructedLambda": "dishonest_big",
            "sd": 8.1,
            "drawnRed": 20,
            "reportedRed": 26,
            "inferredRed": 42,
            "playerTrialScore": -22,
            "oppTrialScore": 22,
            "playerTotalScore": -642,
            "oppTotalScore": 318,
            "waitTime": 7066.2138338324585,
            "responseTime": 1682043878462,
            "catchQuestion": "How many <b class=\"r\">red<\/b> marbles did your opponent report drawing? ",
            "catchKey": -1,
            "catchResponse": -1,
            "catchTime": 1682043878462,
            "trialTime": 0
        },
        {
            "exptPart": "trial",
            "trialNumber": 51,
            "roleCurrent": "receiver",
            "marblesSampled": 100,
            "probRed": 0.5,
            "practiceLambda": 5,
            "trialLambda": 8.1,
            "instructedLambda": "dishonest_big",
            "sd": 8.1,
            "drawnRed": 63,
            "reportedRed": 72,
            "inferredRed": 31,
            "playerTrialScore": -32,
            "oppTrialScore": 0,
            "playerTotalScore": -674,
            "oppTotalScore": 318,
            "waitTime": 6777.660757183945,
            "responseTime": 1682043894167,
            "catchQuestion": "How many <b class=\"r\">red<\/b> marbles did your opponent report drawing? ",
            "catchKey": -1,
            "catchResponse": -1,
            "catchTime": 1682043878462,
            "trialTime": 0
        },
        {
            "exptPart": "trial",
            "trialNumber": 52,
            "roleCurrent": "receiver",
            "marblesSampled": 100,
            "probRed": 0.5,
            "practiceLambda": 5,
            "trialLambda": 8.1,
            "instructedLambda": "dishonest_big",
            "sd": 8.1,
            "drawnRed": 28,
            "reportedRed": 35,
            "inferredRed": 49,
            "playerTrialScore": -21,
            "oppTrialScore": 21,
            "playerTotalScore": -695,
            "oppTotalScore": 339,
            "waitTime": 6203.660459689194,
            "responseTime": 1682043928682,
            "catchQuestion": "How many <b class=\"r\">red<\/b> marbles did your opponent report drawing? ",
            "catchKey": -1,
            "catchResponse": -1,
            "catchTime": 1682043878462,
            "trialTime": 0
        },
        {
            "exptPart": "trial",
            "trialNumber": 53,
            "roleCurrent": "receiver",
            "marblesSampled": 100,
            "probRed": 0.5,
            "practiceLambda": 5,
            "trialLambda": 8.1,
            "instructedLambda": "dishonest_big",
            "sd": 8.1,
            "drawnRed": 65,
            "reportedRed": 71,
            "inferredRed": 43,
            "playerTrialScore": -22,
            "oppTrialScore": 0,
            "playerTotalScore": -717,
            "oppTotalScore": 339,
            "waitTime": 5635.95729580971,
            "responseTime": 1682043937194,
            "catchQuestion": "How many <b class=\"r\">red<\/b> marbles did your opponent report drawing? ",
            "catchKey": 71,
            "catchResponse": 71,
            "catchTime": 1682043937194,
            "trialTime": 0
        },
        {
            "exptPart": "trial",
            "trialNumber": 54,
            "roleCurrent": "receiver",
            "marblesSampled": 100,
            "probRed": 0.5,
            "practiceLambda": 5,
            "trialLambda": 8.1,
            "instructedLambda": "dishonest_big",
            "sd": 8.1,
            "drawnRed": 60,
            "reportedRed": 63,
            "inferredRed": 46,
            "playerTrialScore": -14,
            "oppTrialScore": 0,
            "playerTotalScore": -731,
            "oppTotalScore": 339,
            "waitTime": 5871.18290110748,
            "responseTime": 1682043957187,
            "catchQuestion": "How many <b class=\"r\">red<\/b> marbles did your opponent report drawing? ",
            "catchKey": -1,
            "catchResponse": -1,
            "catchTime": 1682043937194,
            "trialTime": 0
        },
        {
            "exptPart": "trial",
            "trialNumber": 55,
            "roleCurrent": "receiver",
            "marblesSampled": 100,
            "probRed": 0.5,
            "practiceLambda": 5,
            "trialLambda": 8.1,
            "instructedLambda": "dishonest_big",
            "sd": 8.1,
            "drawnRed": 42,
            "reportedRed": 51,
            "inferredRed": 41,
            "playerTrialScore": -1,
            "oppTrialScore": 0,
            "playerTotalScore": -732,
            "oppTotalScore": 339,
            "waitTime": 5330.00195074033,
            "responseTime": 1682043966489,
            "catchQuestion": "How many <b class=\"r\">red<\/b> marbles did your opponent report drawing? ",
            "catchKey": -1,
            "catchResponse": -1,
            "catchTime": 1682043937194,
            "trialTime": 0
        },
        {
            "exptPart": "trial",
            "trialNumber": 56,
            "roleCurrent": "receiver",
            "marblesSampled": 100,
            "probRed": 0.5,
            "practiceLambda": 5,
            "trialLambda": 8.1,
            "instructedLambda": "dishonest_big",
            "sd": 8.1,
            "drawnRed": 34,
            "reportedRed": 54,
            "inferredRed": 35,
            "playerTrialScore": -1,
            "oppTrialScore": 1,
            "playerTotalScore": -733,
            "oppTotalScore": 340,
            "waitTime": 7071.110990252088,
            "responseTime": 1682043979119,
            "catchQuestion": "How many <b class=\"r\">red<\/b> marbles did your opponent report drawing? ",
            "catchKey": -1,
            "catchResponse": -1,
            "catchTime": 1682043937194,
            "trialTime": 0
        },
        {
            "exptPart": "trial",
            "trialNumber": 57,
            "roleCurrent": "receiver",
            "marblesSampled": 100,
            "probRed": 0.5,
            "practiceLambda": 5,
            "trialLambda": 8.1,
            "instructedLambda": "dishonest_big",
            "sd": 8.1,
            "drawnRed": 36,
            "reportedRed": 41,
            "inferredRed": 46,
            "playerTrialScore": -10,
            "oppTrialScore": 10,
            "playerTotalScore": -743,
            "oppTotalScore": 350,
            "waitTime": 7415.712193088055,
            "responseTime": 1682043992539,
            "catchQuestion": "How many <b class=\"r\">red<\/b> marbles did your opponent report drawing? ",
            "catchKey": -1,
            "catchResponse": -1,
            "catchTime": 1682043937194,
            "trialTime": 0
        },
        {
            "exptPart": "trial",
            "trialNumber": 58,
            "roleCurrent": "receiver",
            "marblesSampled": 100,
            "probRed": 0.5,
            "practiceLambda": 5,
            "trialLambda": 8.1,
            "instructedLambda": "dishonest_big",
            "sd": 8.1,
            "drawnRed": 52,
            "reportedRed": 62,
            "inferredRed": 53,
            "playerTrialScore": -1,
            "oppTrialScore": 1,
            "playerTotalScore": -744,
            "oppTotalScore": 351,
            "waitTime": 6188.781120593721,
            "responseTime": 1682044002476,
            "catchQuestion": "How many <b class=\"r\">red<\/b> marbles did your opponent report drawing? ",
            "catchKey": -1,
            "catchResponse": -1,
            "catchTime": 1682043937194,
            "trialTime": 0
        },
        {
            "exptPart": "trial",
            "trialNumber": 59,
            "roleCurrent": "receiver",
            "marblesSampled": 100,
            "probRed": 0.5,
            "practiceLambda": 5,
            "trialLambda": 8.1,
            "instructedLambda": "dishonest_big",
            "sd": 8.1,
            "drawnRed": 21,
            "reportedRed": 29,
            "inferredRed": 42,
            "playerTrialScore": -21,
            "oppTrialScore": 21,
            "playerTotalScore": -765,
            "oppTotalScore": 372,
            "waitTime": 6437.41751136719,
            "responseTime": 1682044023339,
            "catchQuestion": "How many <b class=\"r\">red<\/b> marbles did your opponent report drawing? ",
            "catchKey": -1,
            "catchResponse": -1,
            "catchTime": 1682043937194,
            "trialTime": 0
        },
        {
            "exptPart": "trial",
            "trialNumber": 60,
            "roleCurrent": "receiver",
            "marblesSampled": 100,
            "probRed": 0.5,
            "practiceLambda": 5,
            "trialLambda": 8.1,
            "instructedLambda": "dishonest_big",
            "sd": 8.1,
            "drawnRed": 71,
            "reportedRed": 71,
            "inferredRed": 49,
            "playerTrialScore": -22,
            "oppTrialScore": 0,
            "playerTotalScore": -787,
            "oppTotalScore": 372,
            "waitTime": 5623.190079383557,
            "responseTime": 1682044228382,
            "catchQuestion": "How many <b class=\"r\">red<\/b> marbles did your opponent report drawing? ",
            "catchKey": -1,
            "catchResponse": -1,
            "catchTime": 1682044228382,
            "trialTime": 0
        },
        {
            "exptPart": "trial",
            "trialNumber": 61,
            "roleCurrent": "receiver",
            "marblesSampled": 100,
            "probRed": 0.5,
            "practiceLambda": 5,
            "trialLambda": 8.1,
            "instructedLambda": "dishonest_big",
            "sd": 8.1,
            "drawnRed": 65,
            "reportedRed": 84,
            "inferredRed": 60,
            "playerTrialScore": -5,
            "oppTrialScore": 0,
            "playerTotalScore": -792,
            "oppTotalScore": 372,
            "waitTime": 5186.781122904062,
            "responseTime": 1682044244146,
            "catchQuestion": "How many <b class=\"r\">red<\/b> marbles did your opponent report drawing? ",
            "catchKey": -1,
            "catchResponse": -1,
            "catchTime": 1682044228382,
            "trialTime": 0
        },
        {
            "exptPart": "trial",
            "trialNumber": 62,
            "roleCurrent": "receiver",
            "marblesSampled": 100,
            "probRed": 0.5,
            "practiceLambda": 5,
            "trialLambda": 8.1,
            "instructedLambda": "dishonest_big",
            "sd": 8.1,
            "drawnRed": 48,
            "reportedRed": 53,
            "inferredRed": 53,
            "playerTrialScore": -5,
            "oppTrialScore": 5,
            "playerTotalScore": -797,
            "oppTotalScore": 377,
            "waitTime": 6027.769471738542,
            "responseTime": 1682044258561,
            "catchQuestion": "How many <b class=\"r\">red<\/b> marbles did your opponent report drawing? ",
            "catchKey": -1,
            "catchResponse": -1,
            "catchTime": 1682044228382,
            "trialTime": 0
        },
        {
            "exptPart": "trial",
            "trialNumber": 63,
            "roleCurrent": "receiver",
            "marblesSampled": 100,
            "probRed": 0.5,
            "practiceLambda": 5,
            "trialLambda": 8.1,
            "instructedLambda": "dishonest_big",
            "sd": 8.1,
            "drawnRed": 21,
            "reportedRed": 34,
            "inferredRed": 42,
            "playerTrialScore": -21,
            "oppTrialScore": 21,
            "playerTotalScore": -818,
            "oppTotalScore": 398,
            "waitTime": 5456.080431793196,
            "responseTime": 1682044269374,
            "catchQuestion": "How many <b class=\"r\">red<\/b> marbles did your opponent report drawing? ",
            "catchKey": -1,
            "catchResponse": -1,
            "catchTime": 1682044228382,
            "trialTime": 0
        },
        {
            "exptPart": "trial",
            "trialNumber": 64,
            "roleCurrent": "receiver",
            "marblesSampled": 100,
            "probRed": 0.5,
            "practiceLambda": 5,
            "trialLambda": 8.1,
            "instructedLambda": "dishonest_big",
            "sd": 8.1,
            "drawnRed": 56,
            "reportedRed": 68,
            "inferredRed": 58,
            "playerTrialScore": -2,
            "oppTrialScore": 2,
            "playerTotalScore": -820,
            "oppTotalScore": 400,
            "waitTime": 6316.671486969266,
            "responseTime": 1682044280651,
            "catchQuestion": "How many <b class=\"r\">red<\/b> marbles did your opponent report drawing? ",
            "catchKey": -1,
            "catchResponse": -1,
            "catchTime": 1682044228382,
            "trialTime": 0
        },
        {
            "exptPart": "trial",
            "trialNumber": 65,
            "roleCurrent": "receiver",
            "marblesSampled": 100,
            "probRed": 0.5,
            "practiceLambda": 5,
            "trialLambda": 8.1,
            "instructedLambda": "dishonest_big",
            "sd": 8.1,
            "drawnRed": 45,
            "reportedRed": 60,
            "inferredRed": 51,
            "playerTrialScore": -6,
            "oppTrialScore": 6,
            "playerTotalScore": -826,
            "oppTotalScore": 406,
            "waitTime": 5452.852908382225,
            "responseTime": 1682044290450,
            "catchQuestion": "How many <b class=\"r\">red<\/b> marbles did your opponent report drawing? ",
            "catchKey": -1,
            "catchResponse": -1,
            "catchTime": 1682044228382,
            "trialTime": 0
        },
        {
            "exptPart": "trial",
            "trialNumber": 66,
            "roleCurrent": "receiver",
            "marblesSampled": 100,
            "probRed": 0.5,
            "practiceLambda": 5,
            "trialLambda": 8.1,
            "instructedLambda": "dishonest_big",
            "sd": 8.1,
            "drawnRed": 49,
            "reportedRed": 69,
            "inferredRed": 51,
            "playerTrialScore": -2,
            "oppTrialScore": 2,
            "playerTotalScore": -828,
            "oppTotalScore": 408,
            "waitTime": 6920.0877553939845,
            "responseTime": 1682044301082,
            "catchQuestion": "How many <b class=\"r\">red<\/b> marbles did your opponent report drawing? ",
            "catchKey": -1,
            "catchResponse": -1,
            "catchTime": 1682044228382,
            "trialTime": 0
        },
        {
            "exptPart": "trial",
            "trialNumber": 67,
            "roleCurrent": "receiver",
            "marblesSampled": 100,
            "probRed": 0.5,
            "practiceLambda": 5,
            "trialLambda": 8.1,
            "instructedLambda": "dishonest_big",
            "sd": 8.1,
            "drawnRed": 67,
            "reportedRed": 79,
            "inferredRed": 61,
            "playerTrialScore": -6,
            "oppTrialScore": 0,
            "playerTotalScore": -834,
            "oppTotalScore": 408,
            "waitTime": 6865.953785541451,
            "responseTime": 1682044481520,
            "catchQuestion": "How many <b class=\"r\">red<\/b> marbles did your opponent report drawing? ",
            "catchKey": -1,
            "catchResponse": -1,
            "catchTime": 1682044228382,
            "trialTime": 0
        },
        {
            "exptPart": "trial",
            "trialNumber": 68,
            "roleCurrent": "receiver",
            "marblesSampled": 100,
            "probRed": 0.5,
            "practiceLambda": 5,
            "trialLambda": 8.1,
            "instructedLambda": "dishonest_big",
            "sd": 8.1,
            "drawnRed": 57,
            "reportedRed": 47,
            "inferredRed": 53,
            "playerTrialScore": -4,
            "oppTrialScore": 0,
            "playerTotalScore": -838,
            "oppTotalScore": 408,
            "waitTime": 6334.628171197054,
            "responseTime": 1682044491156,
            "catchQuestion": "How many <b class=\"r\">red<\/b> marbles did your opponent report drawing? ",
            "catchKey": -1,
            "catchResponse": -1,
            "catchTime": 1682044228382,
            "trialTime": 0
        },
        {
            "exptPart": "trial",
            "trialNumber": 69,
            "roleCurrent": "receiver",
            "marblesSampled": 100,
            "probRed": 0.5,
            "practiceLambda": 5,
            "trialLambda": 8.1,
            "instructedLambda": "dishonest_big",
            "sd": 8.1,
            "drawnRed": 36,
            "reportedRed": 38,
            "inferredRed": 53,
            "playerTrialScore": -17,
            "oppTrialScore": 17,
            "playerTotalScore": -855,
            "oppTotalScore": 425,
            "waitTime": 5848.3897353649445,
            "responseTime": 1682044508061,
            "catchQuestion": "How many <b class=\"r\">red<\/b> marbles did your opponent report drawing? ",
            "catchKey": -1,
            "catchResponse": -1,
            "catchTime": 1682044228382,
            "trialTime": 0
        },
        {
            "exptPart": "trial",
            "trialNumber": 70,
            "roleCurrent": "receiver",
            "marblesSampled": 100,
            "probRed": 0.5,
            "practiceLambda": 5,
            "trialLambda": 8.1,
            "instructedLambda": "dishonest_big",
            "sd": 8.1,
            "drawnRed": 69,
            "reportedRed": 71,
            "inferredRed": 59,
            "playerTrialScore": -10,
            "oppTrialScore": 0,
            "playerTotalScore": -865,
            "oppTotalScore": 425,
            "waitTime": 7032.534129943369,
            "responseTime": 1682044532167,
            "catchQuestion": "How many <b class=\"r\">red<\/b> marbles did your opponent report drawing? ",
            "catchKey": -1,
            "catchResponse": -1,
            "catchTime": 1682044532167,
            "trialTime": 0
        },
        {
            "exptPart": "trial",
            "trialNumber": 71,
            "roleCurrent": "receiver",
            "marblesSampled": 100,
            "probRed": 0.5,
            "practiceLambda": 5,
            "trialLambda": 8.1,
            "instructedLambda": "dishonest_big",
            "sd": 8.1,
            "drawnRed": 21,
            "reportedRed": 33,
            "inferredRed": 53,
            "playerTrialScore": -32,
            "oppTrialScore": 32,
            "playerTotalScore": -897,
            "oppTotalScore": 457,
            "waitTime": 6296.934272443419,
            "responseTime": 1682044553065,
            "catchQuestion": "How many <b class=\"r\">red<\/b> marbles did your opponent report drawing? ",
            "catchKey": -1,
            "catchResponse": -1,
            "catchTime": 1682044532167,
            "trialTime": 0
        },
        {
            "exptPart": "trial",
            "trialNumber": 72,
            "roleCurrent": "receiver",
            "marblesSampled": 100,
            "probRed": 0.5,
            "practiceLambda": 5,
            "trialLambda": 8.1,
            "instructedLambda": "dishonest_big",
            "sd": 8.1,
            "drawnRed": 58,
            "reportedRed": 63,
            "inferredRed": 51,
            "playerTrialScore": -7,
            "oppTrialScore": 0,
            "playerTotalScore": -904,
            "oppTotalScore": 457,
            "waitTime": 6439.883187419468,
            "responseTime": 1682044565541,
            "catchQuestion": "How many <b class=\"r\">red<\/b> marbles did your opponent report drawing? ",
            "catchKey": -1,
            "catchResponse": -1,
            "catchTime": 1682044532167,
            "trialTime": 0
        },
        {
            "exptPart": "trial",
            "trialNumber": 73,
            "roleCurrent": "receiver",
            "marblesSampled": 100,
            "probRed": 0.5,
            "practiceLambda": 5,
            "trialLambda": 8.1,
            "instructedLambda": "dishonest_big",
            "sd": 8.1,
            "drawnRed": 82,
            "reportedRed": 80,
            "inferredRed": 51,
            "playerTrialScore": -31,
            "oppTrialScore": 0,
            "playerTotalScore": -935,
            "oppTotalScore": 457,
            "waitTime": 7461.141364011794,
            "responseTime": 1682044579155,
            "catchQuestion": "How many <b class=\"r\">red<\/b> marbles did your opponent report drawing? ",
            "catchKey": -1,
            "catchResponse": -1,
            "catchTime": 1682044532167,
            "trialTime": 0
        },
        {
            "exptPart": "trial",
            "trialNumber": 74,
            "roleCurrent": "receiver",
            "marblesSampled": 100,
            "probRed": 0.5,
            "practiceLambda": 5,
            "trialLambda": 8.1,
            "instructedLambda": "dishonest_big",
            "sd": 8.1,
            "drawnRed": 57,
            "reportedRed": 72,
            "inferredRed": 49,
            "playerTrialScore": -8,
            "oppTrialScore": 0,
            "playerTotalScore": -943,
            "oppTotalScore": 457,
            "waitTime": 5969.408522694388,
            "responseTime": 1682044604327,
            "catchQuestion": "How many <b class=\"r\">red<\/b> marbles did your opponent report drawing? ",
            "catchKey": -1,
            "catchResponse": -1,
            "catchTime": 1682044532167,
            "trialTime": 0
        },
        {
            "exptPart": "trial",
            "trialNumber": 75,
            "roleCurrent": "receiver",
            "marblesSampled": 100,
            "probRed": 0.5,
            "practiceLambda": 5,
            "trialLambda": 8.1,
            "instructedLambda": "dishonest_big",
            "sd": 8.1,
            "drawnRed": 26,
            "reportedRed": 43,
            "inferredRed": 51,
            "playerTrialScore": -25,
            "oppTrialScore": 25,
            "playerTotalScore": -968,
            "oppTotalScore": 482,
            "waitTime": 7409.7053185880395,
            "responseTime": 1682044619607,
            "catchQuestion": "How many <b class=\"r\">red<\/b> marbles did your opponent report drawing? ",
            "catchKey": -1,
            "catchResponse": -1,
            "catchTime": 1682044532167,
            "trialTime": 0
        },
        {
            "exptPart": "trial",
            "trialNumber": 76,
            "roleCurrent": "receiver",
            "marblesSampled": 100,
            "probRed": 0.5,
            "practiceLambda": 5,
            "trialLambda": 8.1,
            "instructedLambda": "dishonest_big",
            "sd": 8.1,
            "drawnRed": 81,
            "reportedRed": 88,
            "inferredRed": 42,
            "playerTrialScore": -39,
            "oppTrialScore": 0,
            "playerTotalScore": -1007,
            "oppTotalScore": 482,
            "waitTime": 6505.291069777017,
            "responseTime": 1682044629986,
            "catchQuestion": "How many <b class=\"r\">red<\/b> marbles did your opponent report drawing? ",
            "catchKey": -1,
            "catchResponse": -1,
            "catchTime": 1682044532167,
            "trialTime": 0
        },
        {
            "exptPart": "trial",
            "trialNumber": 77,
            "roleCurrent": "receiver",
            "marblesSampled": 100,
            "probRed": 0.5,
            "practiceLambda": 5,
            "trialLambda": 8.1,
            "instructedLambda": "dishonest_big",
            "sd": 8.1,
            "drawnRed": 24,
            "reportedRed": 39,
            "inferredRed": 54,
            "playerTrialScore": -30,
            "oppTrialScore": 30,
            "playerTotalScore": -1037,
            "oppTotalScore": 512,
            "waitTime": 6874.664790887506,
            "responseTime": 1682044643588,
            "catchQuestion": "How many <b class=\"r\">red<\/b> marbles did your opponent report drawing? ",
            "catchKey": -1,
            "catchResponse": -1,
            "catchTime": 1682044532167,
            "trialTime": 0
        },
        {
            "exptPart": "trial",
            "trialNumber": 78,
            "roleCurrent": "receiver",
            "marblesSampled": 100,
            "probRed": 0.5,
            "practiceLambda": 5,
            "trialLambda": 8.1,
            "instructedLambda": "dishonest_big",
            "sd": 8.1,
            "drawnRed": 56,
            "reportedRed": 58,
            "inferredRed": 51,
            "playerTrialScore": -5,
            "oppTrialScore": 0,
            "playerTotalScore": -1042,
            "oppTotalScore": 512,
            "waitTime": 6893.999221693068,
            "responseTime": 1682044656153,
            "catchQuestion": "How many <b class=\"r\">red<\/b> marbles did your opponent report drawing? ",
            "catchKey": -1,
            "catchResponse": -1,
            "catchTime": 1682044532167,
            "trialTime": 0
        },
        {
            "exptPart": "trial",
            "trialNumber": 79,
            "roleCurrent": "receiver",
            "marblesSampled": 100,
            "probRed": 0.5,
            "practiceLambda": 5,
            "trialLambda": 8.1,
            "instructedLambda": "dishonest_big",
            "sd": 8.1,
            "drawnRed": 72,
            "reportedRed": 78,
            "inferredRed": 56,
            "playerTrialScore": -16,
            "oppTrialScore": 0,
            "playerTotalScore": -1058,
            "oppTotalScore": 512,
            "waitTime": 6744.113726351012,
            "responseTime": 1682044668166,
            "catchQuestion": "How many <b class=\"r\">red<\/b> marbles did your opponent report drawing? ",
            "catchKey": -1,
            "catchResponse": -1,
            "catchTime": 1682044532167,
            "trialTime": 0
        },
        {
            "exptPart": "trial",
            "trialNumber": 80,
            "roleCurrent": "receiver",
            "marblesSampled": 100,
            "probRed": 0.5,
            "practiceLambda": 5,
            "trialLambda": 8.1,
            "instructedLambda": "dishonest_big",
            "sd": 8.1,
            "drawnRed": 36,
            "reportedRed": 45,
            "inferredRed": 53,
            "playerTrialScore": -17,
            "oppTrialScore": 17,
            "playerTotalScore": -1075,
            "oppTotalScore": 529,
            "waitTime": 7143.825411001155,
            "responseTime": 1682044680011,
            "catchQuestion": "How many <b class=\"r\">red<\/b> marbles did your opponent report drawing? ",
            "catchKey": -1,
            "catchResponse": -1,
            "catchTime": 1682044680011,
            "trialTime": 0
        },
        {
            "exptPart": "trial",
            "trialNumber": 81,
            "roleCurrent": "receiver",
            "marblesSampled": 100,
            "probRed": 0.5,
            "practiceLambda": 5,
            "trialLambda": 8.1,
            "instructedLambda": "dishonest_big",
            "sd": 8.1,
            "drawnRed": 70,
            "reportedRed": 88,
            "inferredRed": 43,
            "playerTrialScore": -27,
            "oppTrialScore": 0,
            "playerTotalScore": -1102,
            "oppTotalScore": 529,
            "waitTime": 6295.161312122473,
            "responseTime": 1682044704324,
            "catchQuestion": "How many <b class=\"r\">red<\/b> marbles did your opponent report drawing? ",
            "catchKey": -1,
            "catchResponse": -1,
            "catchTime": 1682044680011,
            "trialTime": 0
        },
        {
            "exptPart": "trial",
            "trialNumber": 82,
            "roleCurrent": "receiver",
            "marblesSampled": 100,
            "probRed": 0.5,
            "practiceLambda": 5,
            "trialLambda": 8.1,
            "instructedLambda": "dishonest_big",
            "sd": 8.1,
            "drawnRed": 52,
            "reportedRed": 51,
            "inferredRed": 48,
            "playerTrialScore": -4,
            "oppTrialScore": 0,
            "playerTotalScore": -1106,
            "oppTotalScore": 529,
            "waitTime": 6460.6941914108465,
            "responseTime": 1682044715623,
            "catchQuestion": "How many <b class=\"r\">red<\/b> marbles did your opponent report drawing? ",
            "catchKey": -1,
            "catchResponse": -1,
            "catchTime": 1682044680011,
            "trialTime": 0
        },
        {
            "exptPart": "trial",
            "trialNumber": 83,
            "roleCurrent": "receiver",
            "marblesSampled": 100,
            "probRed": 0.5,
            "practiceLambda": 5,
            "trialLambda": 8.1,
            "instructedLambda": "dishonest_big",
            "sd": 8.1,
            "drawnRed": 80,
            "reportedRed": 75,
            "inferredRed": 50,
            "playerTrialScore": -30,
            "oppTrialScore": 0,
            "playerTotalScore": -1136,
            "oppTotalScore": 529,
            "waitTime": 5296.770783608109,
            "responseTime": 1682044725369,
            "catchQuestion": "How many <b class=\"r\">red<\/b> marbles did your opponent report drawing? ",
            "catchKey": -1,
            "catchResponse": -1,
            "catchTime": 1682044680011,
            "trialTime": 0
        },
        {
            "exptPart": "trial",
            "trialNumber": 84,
            "roleCurrent": "receiver",
            "marblesSampled": 100,
            "probRed": 0.5,
            "practiceLambda": 5,
            "trialLambda": 8.1,
            "instructedLambda": "dishonest_big",
            "sd": 8.1,
            "drawnRed": 34,
            "reportedRed": 35,
            "inferredRed": 48,
            "playerTrialScore": -14,
            "oppTrialScore": 14,
            "playerTotalScore": -1150,
            "oppTotalScore": 543,
            "waitTime": 6117.218018890491,
            "responseTime": 1682044736061,
            "catchQuestion": "How many <b class=\"r\">red<\/b> marbles did your opponent report drawing? ",
            "catchKey": 35,
            "catchResponse": 35,
            "catchTime": 1682044736061,
            "trialTime": 0
        },
        {
            "exptPart": "trial",
            "trialNumber": 85,
            "roleCurrent": "receiver",
            "marblesSampled": 100,
            "probRed": 0.5,
            "practiceLambda": 5,
            "trialLambda": 8.1,
            "instructedLambda": "dishonest_big",
            "sd": 8.1,
            "drawnRed": 51,
            "reportedRed": 47,
            "inferredRed": 56,
            "playerTrialScore": -5,
            "oppTrialScore": 5,
            "playerTotalScore": -1155,
            "oppTotalScore": 548,
            "waitTime": 6750.070975487687,
            "responseTime": 1682044753825,
            "catchQuestion": "How many <b class=\"r\">red<\/b> marbles did your opponent report drawing? ",
            "catchKey": -1,
            "catchResponse": -1,
            "catchTime": 1682044736061,
            "trialTime": 0
        },
        {
            "exptPart": "trial",
            "trialNumber": 86,
            "roleCurrent": "receiver",
            "marblesSampled": 100,
            "probRed": 0.5,
            "practiceLambda": 5,
            "trialLambda": 8.1,
            "instructedLambda": "dishonest_big",
            "sd": 8.1,
            "drawnRed": 23,
            "reportedRed": 29,
            "inferredRed": 17,
            "playerTrialScore": -6,
            "oppTrialScore": 0,
            "playerTotalScore": -1161,
            "oppTotalScore": 548,
            "waitTime": 5424.031214599817,
            "responseTime": 1682044765616,
            "catchQuestion": "How many <b class=\"r\">red<\/b> marbles did your opponent report drawing? ",
            "catchKey": 29,
            "catchResponse": 29,
            "catchTime": 1682044765616,
            "trialTime": 0
        },
        {
            "exptPart": "trial",
            "trialNumber": 87,
            "roleCurrent": "receiver",
            "marblesSampled": 100,
            "probRed": 0.5,
            "practiceLambda": 5,
            "trialLambda": 8.1,
            "instructedLambda": "dishonest_big",
            "sd": 8.1,
            "drawnRed": 43,
            "reportedRed": 56,
            "inferredRed": 41,
            "playerTrialScore": -2,
            "oppTrialScore": 0,
            "playerTotalScore": -1163,
            "oppTotalScore": 548,
            "waitTime": 6627.0887235150285,
            "responseTime": 1682044778466,
            "catchQuestion": "How many <b class=\"r\">red<\/b> marbles did your opponent report drawing? ",
            "catchKey": 56,
            "catchResponse": 56,
            "catchTime": 1682044778466,
            "trialTime": 0
        },
        {
            "exptPart": "trial",
            "trialNumber": 88,
            "roleCurrent": "receiver",
            "marblesSampled": 100,
            "probRed": 0.5,
            "practiceLambda": 5,
            "trialLambda": 8.1,
            "instructedLambda": "dishonest_big",
            "sd": 8.1,
            "drawnRed": 43,
            "reportedRed": 54,
            "inferredRed": 49,
            "playerTrialScore": -6,
            "oppTrialScore": 6,
            "playerTotalScore": -1169,
            "oppTotalScore": 554,
            "waitTime": 5328.293613157486,
            "responseTime": 1682044860890,
            "catchQuestion": "How many <b class=\"r\">red<\/b> marbles did your opponent report drawing? ",
            "catchKey": -1,
            "catchResponse": -1,
            "catchTime": 1682044778466,
            "trialTime": 0
        },
        {
            "exptPart": "trial",
            "trialNumber": 89,
            "roleCurrent": "receiver",
            "marblesSampled": 100,
            "probRed": 0.5,
            "practiceLambda": 5,
            "trialLambda": 8.1,
            "instructedLambda": "dishonest_big",
            "sd": 8.1,
            "drawnRed": 47,
            "reportedRed": 65,
            "inferredRed": 58,
            "playerTrialScore": -11,
            "oppTrialScore": 11,
            "playerTotalScore": -1180,
            "oppTotalScore": 565,
            "waitTime": 5240.013630891455,
            "responseTime": 1682044870535,
            "catchQuestion": "How many <b class=\"r\">red<\/b> marbles did your opponent report drawing? ",
            "catchKey": 65,
            "catchResponse": 65,
            "catchTime": 1682044870535,
            "trialTime": 0
        },
        {
            "exptPart": "trial",
            "trialNumber": 90,
            "roleCurrent": "receiver",
            "marblesSampled": 100,
            "probRed": 0.5,
            "practiceLambda": 5,
            "trialLambda": 8.1,
            "instructedLambda": "dishonest_big",
            "sd": 8.1,
            "drawnRed": 79,
            "reportedRed": 100,
            "inferredRed": 50,
            "playerTrialScore": -29,
            "oppTrialScore": 0,
            "playerTotalScore": -1209,
            "oppTotalScore": 565,
            "waitTime": 6034.79227517787,
            "responseTime": 1682044888571,
            "catchQuestion": "How many <b class=\"r\">red<\/b> marbles did your opponent report drawing? ",
            "catchKey": -1,
            "catchResponse": -1,
            "catchTime": 1682044888571,
            "trialTime": 0
        },
        {
            "exptPart": "trial",
            "trialNumber": 91,
            "roleCurrent": "receiver",
            "marblesSampled": 100,
            "probRed": 0.5,
            "practiceLambda": 5,
            "trialLambda": 8.1,
            "instructedLambda": "dishonest_big",
            "sd": 8.1,
            "drawnRed": 45,
            "reportedRed": 59,
            "inferredRed": 52,
            "playerTrialScore": -7,
            "oppTrialScore": 7,
            "playerTotalScore": -1216,
            "oppTotalScore": 572,
            "waitTime": 7028.521124375843,
            "responseTime": 1682044902427,
            "catchQuestion": "How many <b class=\"r\">red<\/b> marbles did your opponent report drawing? ",
            "catchKey": -1,
            "catchResponse": -1,
            "catchTime": 1682044888571,
            "trialTime": 0
        },
        {
            "exptPart": "trial",
            "trialNumber": 92,
            "roleCurrent": "receiver",
            "marblesSampled": 100,
            "probRed": 0.5,
            "practiceLambda": 5,
            "trialLambda": 8.1,
            "instructedLambda": "dishonest_big",
            "sd": 8.1,
            "drawnRed": 44,
            "reportedRed": 56,
            "inferredRed": 51,
            "playerTrialScore": -7,
            "oppTrialScore": 7,
            "playerTotalScore": -1223,
            "oppTotalScore": 579,
            "waitTime": 5695.459962858117,
            "responseTime": 1682044914404,
            "catchQuestion": "How many <b class=\"r\">red<\/b> marbles did your opponent report drawing? ",
            "catchKey": -1,
            "catchResponse": -1,
            "catchTime": 1682044888571,
            "trialTime": 0
        },
        {
            "exptPart": "trial",
            "trialNumber": 93,
            "roleCurrent": "receiver",
            "marblesSampled": 100,
            "probRed": 0.5,
            "practiceLambda": 5,
            "trialLambda": 8.1,
            "instructedLambda": "dishonest_big",
            "sd": 8.1,
            "drawnRed": 85,
            "reportedRed": 93,
            "inferredRed": 72,
            "playerTrialScore": -13,
            "oppTrialScore": 0,
            "playerTotalScore": -1236,
            "oppTotalScore": 579,
            "waitTime": 5898.18940670322,
            "responseTime": 1682044938921,
            "catchQuestion": "How many <b class=\"r\">red<\/b> marbles did your opponent report drawing? ",
            "catchKey": -1,
            "catchResponse": -1,
            "catchTime": 1682044888571,
            "trialTime": 0
        },
        {
            "exptPart": "trial",
            "trialNumber": 94,
            "roleCurrent": "receiver",
            "marblesSampled": 100,
            "probRed": 0.5,
            "practiceLambda": 5,
            "trialLambda": 8.1,
            "instructedLambda": "dishonest_big",
            "sd": 8.1,
            "drawnRed": 42,
            "reportedRed": 62,
            "inferredRed": 53,
            "playerTrialScore": -11,
            "oppTrialScore": 11,
            "playerTotalScore": -1247,
            "oppTotalScore": 590,
            "waitTime": 7103.550076709036,
            "responseTime": 1682044972514,
            "catchQuestion": "How many <b class=\"r\">red<\/b> marbles did your opponent report drawing? ",
            "catchKey": -1,
            "catchResponse": -1,
            "catchTime": 1682044888571,
            "trialTime": 0
        },
        {
            "exptPart": "trial",
            "trialNumber": 95,
            "roleCurrent": "receiver",
            "marblesSampled": 100,
            "probRed": 0.5,
            "practiceLambda": 5,
            "trialLambda": 8.1,
            "instructedLambda": "dishonest_big",
            "sd": 8.1,
            "drawnRed": 51,
            "reportedRed": 67,
            "inferredRed": 57,
            "playerTrialScore": -6,
            "oppTrialScore": 6,
            "playerTotalScore": -1253,
            "oppTotalScore": 596,
            "waitTime": 7165.963937709771,
            "responseTime": 1682044984692,
            "catchQuestion": "How many <b class=\"r\">red<\/b> marbles did your opponent report drawing? ",
            "catchKey": -1,
            "catchResponse": -1,
            "catchTime": 1682044888571,
            "trialTime": 0
        },
        {
            "exptPart": "trial",
            "trialNumber": 96,
            "roleCurrent": "receiver",
            "marblesSampled": 100,
            "probRed": 0.5,
            "practiceLambda": 5,
            "trialLambda": 8.1,
            "instructedLambda": "dishonest_big",
            "sd": 8.1,
            "drawnRed": 52,
            "reportedRed": 53,
            "inferredRed": 49,
            "playerTrialScore": -3,
            "oppTrialScore": 0,
            "playerTotalScore": -1256,
            "oppTotalScore": 596,
            "waitTime": 6060.723506312255,
            "responseTime": 1682044997228,
            "catchQuestion": "How many <b class=\"r\">red<\/b> marbles did your opponent report drawing? ",
            "catchKey": -1,
            "catchResponse": -1,
            "catchTime": 1682044888571,
            "trialTime": 0
        },
        {
            "exptPart": "trial",
            "trialNumber": 97,
            "roleCurrent": "receiver",
            "marblesSampled": 100,
            "probRed": 0.5,
            "practiceLambda": 5,
            "trialLambda": 8.1,
            "instructedLambda": "dishonest_big",
            "sd": 8.1,
            "drawnRed": 48,
            "reportedRed": 47,
            "inferredRed": 47,
            "playerTrialScore": -1,
            "oppTrialScore": 0,
            "playerTotalScore": -1257,
            "oppTotalScore": 596,
            "waitTime": 5479.551227206912,
            "responseTime": 1682045006900,
            "catchQuestion": "How many <b class=\"r\">red<\/b> marbles did your opponent report drawing? ",
            "catchKey": -1,
            "catchResponse": -1,
            "catchTime": 1682044888571,
            "trialTime": 0
        },
        {
            "exptPart": "trial",
            "trialNumber": 98,
            "roleCurrent": "receiver",
            "marblesSampled": 100,
            "probRed": 0.5,
            "practiceLambda": 5,
            "trialLambda": 8.1,
            "instructedLambda": "dishonest_big",
            "sd": 8.1,
            "drawnRed": 26,
            "reportedRed": 46,
            "inferredRed": 41,
            "playerTrialScore": -15,
            "oppTrialScore": 15,
            "playerTotalScore": -1272,
            "oppTotalScore": 611,
            "waitTime": 6884.103032947511,
            "responseTime": 1682045028052,
            "catchQuestion": "How many <b class=\"r\">red<\/b> marbles did your opponent report drawing? ",
            "catchKey": -1,
            "catchResponse": -1,
            "catchTime": 1682044888571,
            "trialTime": 0
        },
        {
            "exptPart": "trial",
            "trialNumber": 99,
            "roleCurrent": "receiver",
            "marblesSampled": 100,
            "probRed": 0.5,
            "practiceLambda": 5,
            "trialLambda": 8.1,
            "instructedLambda": "dishonest_big",
            "sd": 8.1,
            "drawnRed": 48,
            "reportedRed": 63,
            "inferredRed": 57,
            "playerTrialScore": -9,
            "oppTrialScore": 9,
            "playerTotalScore": -1281,
            "oppTotalScore": 620,
            "waitTime": 5218.625055691601,
            "responseTime": 1682045038136,
            "catchQuestion": "How many <b class=\"r\">red<\/b> marbles did your opponent report drawing? ",
            "catchKey": -1,
            "catchResponse": -1,
            "catchTime": 1682044888571,
            "trialTime": 0
        },
        {
            "exptPart": "trial",
            "trialNumber": 100,
            "roleCurrent": "receiver",
            "marblesSampled": 100,
            "probRed": 0.5,
            "practiceLambda": 5,
            "trialLambda": 8.1,
            "instructedLambda": "dishonest_big",
            "sd": 8.1,
            "drawnRed": 12,
            "reportedRed": 30,
            "inferredRed": 48,
            "playerTrialScore": -36,
            "oppTrialScore": 36,
            "playerTotalScore": -1317,
            "oppTotalScore": 656,
            "waitTime": 6205.0722066577255,
            "responseTime": 1682045050410,
            "catchQuestion": "How many <b class=\"r\">red<\/b> marbles did your opponent report drawing? ",
            "catchKey": -1,
            "catchResponse": -1,
            "catchTime": 1682045050410,
            "trialTime": 0
        }
    ]
}