{
    "client": {
        "type": "sona",
        "experiment_id": 2228,
        "credit_token": "b315147ae43241ea9c65086cb510cfb7",
        "survey_code": "38117",
        "sid": "sona-38117",
        "window": {
            "width": 1536,
            "height": 722
        },
        "screen": {
            "width": 1536,
            "height": 864
        },
        "userAgent": "Mozilla\/5.0 (Windows NT 10.0; Win64; x64) AppleWebKit\/537.36 (KHTML, like Gecko) Chrome\/111.0.0.0 Safari\/537.36",
        "score": 0,
        "bonus": 0
    },
    "expt": {
        "saveURL": "submit.simple.php",
        "trials": 100,
        "practiceTrials": 2,
        "marblesSampled": 100,
        "probRed": 0.5,
        "practiceLambdaAI": 5,
        "lambdaAI": 21.9,
        "sd": 8.1,
        "roles": [
            "sender",
            "receiver"
        ],
        "cost": "unif",
        "goal": "over",
        "oppDishonesty": "dishonest_big",
        "catchTrials": [
            85,
            42,
            41,
            8,
            53,
            15,
            74,
            66,
            47,
            19
        ],
        "scoreTotal": {
            "player": -1782,
            "opp": 1447
        },
        "sona": {
            "experiment_id": 2228,
            "credit_token": "b315147ae43241ea9c65086cb510cfb7"
        },
        "pilot": false,
        "debug": false
    },
    "trials": [
        {
            "exptPart": "practice",
            "trialNumber": 1,
            "roleCurrent": "sender",
            "marblesSampled": 100,
            "probRed": 0.5,
            "practiceLambda": 5,
            "trialLambda": 21.9,
            "instructedLambda": "dishonest_big",
            "sd": 8.1,
            "drawnRed": 54,
            "reportedRed": 56,
            "inferredRed": 49,
            "playerTrialScore": 0,
            "oppTrialScore": -5,
            "playerTotalScore": 0,
            "oppTotalScore": -5,
            "waitTime": 2310.689769353663,
            "responseTime": 1682347907762,
            "catchQuestion": "How many <b class=\"r\">red<\/b> marbles did you actually draw (before any changes)? ",
            "catchKey": 54,
            "catchResponse": 54,
            "catchTime": 1682347907763,
            "trialTime": 0
        },
        {
            "exptPart": "practice",
            "trialNumber": 2,
            "roleCurrent": "receiver",
            "marblesSampled": 100,
            "probRed": 0.5,
            "practiceLambda": 5,
            "trialLambda": 21.9,
            "instructedLambda": "dishonest_big",
            "sd": 8.1,
            "drawnRed": 69,
            "reportedRed": 73,
            "inferredRed": 69,
            "playerTrialScore": 0,
            "oppTrialScore": 0,
            "playerTotalScore": 0,
            "oppTotalScore": -5,
            "waitTime": 6898.159902648111,
            "responseTime": 1682347972088,
            "catchQuestion": "How many <b class=\"r\">red<\/b> marbles did your opponent report drawing? ",
            "catchKey": 73,
            "catchResponse": 73,
            "catchTime": 1682347972088,
            "trialTime": 0
        },
        {
            "exptPart": "trial",
            "trialNumber": 1,
            "roleCurrent": "receiver",
            "marblesSampled": 100,
            "probRed": 0.5,
            "practiceLambda": 5,
            "trialLambda": 21.9,
            "instructedLambda": "dishonest_big",
            "sd": 8.1,
            "drawnRed": 48,
            "reportedRed": 74,
            "inferredRed": 71,
            "playerTrialScore": -23,
            "oppTrialScore": 23,
            "playerTotalScore": -23,
            "oppTotalScore": 23,
            "waitTime": 5289.9229789680485,
            "responseTime": 1682348020723,
            "catchQuestion": "How many <b class=\"r\">red<\/b> marbles did your opponent report drawing? ",
            "catchKey": -1,
            "catchResponse": -1,
            "catchTime": 1682347972088,
            "trialTime": 0
        },
        {
            "exptPart": "trial",
            "trialNumber": 2,
            "roleCurrent": "receiver",
            "marblesSampled": 100,
            "probRed": 0.5,
            "practiceLambda": 5,
            "trialLambda": 21.9,
            "instructedLambda": "dishonest_big",
            "sd": 8.1,
            "drawnRed": 37,
            "reportedRed": 65,
            "inferredRed": 65,
            "playerTrialScore": -28,
            "oppTrialScore": 28,
            "playerTotalScore": -51,
            "oppTotalScore": 51,
            "waitTime": 6893.0438841612195,
            "responseTime": 1682348038062,
            "catchQuestion": "How many <b class=\"r\">red<\/b> marbles did your opponent report drawing? ",
            "catchKey": -1,
            "catchResponse": -1,
            "catchTime": 1682347972088,
            "trialTime": 0
        },
        {
            "exptPart": "trial",
            "trialNumber": 3,
            "roleCurrent": "receiver",
            "marblesSampled": 100,
            "probRed": 0.5,
            "practiceLambda": 5,
            "trialLambda": 21.9,
            "instructedLambda": "dishonest_big",
            "sd": 8.1,
            "drawnRed": 37,
            "reportedRed": 47,
            "inferredRed": 50,
            "playerTrialScore": -13,
            "oppTrialScore": 13,
            "playerTotalScore": -64,
            "oppTotalScore": 64,
            "waitTime": 5362.789538697093,
            "responseTime": 1682348047997,
            "catchQuestion": "How many <b class=\"r\">red<\/b> marbles did your opponent report drawing? ",
            "catchKey": -1,
            "catchResponse": -1,
            "catchTime": 1682347972088,
            "trialTime": 0
        },
        {
            "exptPart": "trial",
            "trialNumber": 4,
            "roleCurrent": "receiver",
            "marblesSampled": 100,
            "probRed": 0.5,
            "practiceLambda": 5,
            "trialLambda": 21.9,
            "instructedLambda": "dishonest_big",
            "sd": 8.1,
            "drawnRed": 15,
            "reportedRed": 35,
            "inferredRed": 39,
            "playerTrialScore": -24,
            "oppTrialScore": 24,
            "playerTotalScore": -88,
            "oppTotalScore": 88,
            "waitTime": 5906.065282602154,
            "responseTime": 1682348067686,
            "catchQuestion": "How many <b class=\"r\">red<\/b> marbles did your opponent report drawing? ",
            "catchKey": -1,
            "catchResponse": -1,
            "catchTime": 1682347972088,
            "trialTime": 0
        },
        {
            "exptPart": "trial",
            "trialNumber": 5,
            "roleCurrent": "receiver",
            "marblesSampled": 100,
            "probRed": 0.5,
            "practiceLambda": 5,
            "trialLambda": 21.9,
            "instructedLambda": "dishonest_big",
            "sd": 8.1,
            "drawnRed": 30,
            "reportedRed": 52,
            "inferredRed": 49,
            "playerTrialScore": -19,
            "oppTrialScore": 19,
            "playerTotalScore": -107,
            "oppTotalScore": 107,
            "waitTime": 6978.196144573741,
            "responseTime": 1682348088690,
            "catchQuestion": "How many <b class=\"r\">red<\/b> marbles did your opponent report drawing? ",
            "catchKey": -1,
            "catchResponse": -1,
            "catchTime": 1682347972088,
            "trialTime": 0
        },
        {
            "exptPart": "trial",
            "trialNumber": 6,
            "roleCurrent": "receiver",
            "marblesSampled": 100,
            "probRed": 0.5,
            "practiceLambda": 5,
            "trialLambda": 21.9,
            "instructedLambda": "dishonest_big",
            "sd": 8.1,
            "drawnRed": 43,
            "reportedRed": 65,
            "inferredRed": 63,
            "playerTrialScore": -20,
            "oppTrialScore": 20,
            "playerTotalScore": -127,
            "oppTotalScore": 127,
            "waitTime": 5821.785788513071,
            "responseTime": 1682348101484,
            "catchQuestion": "How many <b class=\"r\">red<\/b> marbles did your opponent report drawing? ",
            "catchKey": -1,
            "catchResponse": -1,
            "catchTime": 1682347972088,
            "trialTime": 0
        },
        {
            "exptPart": "trial",
            "trialNumber": 7,
            "roleCurrent": "receiver",
            "marblesSampled": 100,
            "probRed": 0.5,
            "practiceLambda": 5,
            "trialLambda": 21.9,
            "instructedLambda": "dishonest_big",
            "sd": 8.1,
            "drawnRed": 41,
            "reportedRed": 51,
            "inferredRed": 54,
            "playerTrialScore": -13,
            "oppTrialScore": 13,
            "playerTotalScore": -140,
            "oppTotalScore": 140,
            "waitTime": 5553.978878169378,
            "responseTime": 1682348119674,
            "catchQuestion": "How many <b class=\"r\">red<\/b> marbles did your opponent report drawing? ",
            "catchKey": -1,
            "catchResponse": -1,
            "catchTime": 1682347972088,
            "trialTime": 0
        },
        {
            "exptPart": "trial",
            "trialNumber": 8,
            "roleCurrent": "receiver",
            "marblesSampled": 100,
            "probRed": 0.5,
            "practiceLambda": 5,
            "trialLambda": 21.9,
            "instructedLambda": "dishonest_big",
            "sd": 8.1,
            "drawnRed": 58,
            "reportedRed": 100,
            "inferredRed": 70,
            "playerTrialScore": -12,
            "oppTrialScore": 12,
            "playerTotalScore": -152,
            "oppTotalScore": 152,
            "waitTime": 5348.718421723623,
            "responseTime": 1682348156024,
            "catchQuestion": "How many <b class=\"r\">red<\/b> marbles did your opponent report drawing? ",
            "catchKey": -1,
            "catchResponse": -1,
            "catchTime": 1682347972088,
            "trialTime": 0
        },
        {
            "exptPart": "trial",
            "trialNumber": 9,
            "roleCurrent": "receiver",
            "marblesSampled": 100,
            "probRed": 0.5,
            "practiceLambda": 5,
            "trialLambda": 21.9,
            "instructedLambda": "dishonest_big",
            "sd": 8.1,
            "drawnRed": 39,
            "reportedRed": 58,
            "inferredRed": 55,
            "playerTrialScore": -16,
            "oppTrialScore": 16,
            "playerTotalScore": -168,
            "oppTotalScore": 168,
            "waitTime": 6476.374643527233,
            "responseTime": 1682348170993,
            "catchQuestion": "How many <b class=\"r\">red<\/b> marbles did your opponent report drawing? ",
            "catchKey": 58,
            "catchResponse": 58,
            "catchTime": 1682348170993,
            "trialTime": 0
        },
        {
            "exptPart": "trial",
            "trialNumber": 10,
            "roleCurrent": "receiver",
            "marblesSampled": 100,
            "probRed": 0.5,
            "practiceLambda": 5,
            "trialLambda": 21.9,
            "instructedLambda": "dishonest_big",
            "sd": 8.1,
            "drawnRed": 60,
            "reportedRed": 78,
            "inferredRed": 70,
            "playerTrialScore": -10,
            "oppTrialScore": 10,
            "playerTotalScore": -178,
            "oppTotalScore": 178,
            "waitTime": 5523.734534778011,
            "responseTime": 1682348194211,
            "catchQuestion": "How many <b class=\"r\">red<\/b> marbles did your opponent report drawing? ",
            "catchKey": -1,
            "catchResponse": -1,
            "catchTime": 1682348194211,
            "trialTime": 0
        },
        {
            "exptPart": "trial",
            "trialNumber": 11,
            "roleCurrent": "receiver",
            "marblesSampled": 100,
            "probRed": 0.5,
            "practiceLambda": 5,
            "trialLambda": 21.9,
            "instructedLambda": "dishonest_big",
            "sd": 8.1,
            "drawnRed": 27,
            "reportedRed": 33,
            "inferredRed": 40,
            "playerTrialScore": -13,
            "oppTrialScore": 13,
            "playerTotalScore": -191,
            "oppTotalScore": 191,
            "waitTime": 6311.356589725762,
            "responseTime": 1682348221035,
            "catchQuestion": "How many <b class=\"r\">red<\/b> marbles did your opponent report drawing? ",
            "catchKey": -1,
            "catchResponse": -1,
            "catchTime": 1682348194211,
            "trialTime": 0
        },
        {
            "exptPart": "trial",
            "trialNumber": 12,
            "roleCurrent": "receiver",
            "marblesSampled": 100,
            "probRed": 0.5,
            "practiceLambda": 5,
            "trialLambda": 21.9,
            "instructedLambda": "dishonest_big",
            "sd": 8.1,
            "drawnRed": 76,
            "reportedRed": 100,
            "inferredRed": 60,
            "playerTrialScore": -16,
            "oppTrialScore": 0,
            "playerTotalScore": -207,
            "oppTotalScore": 191,
            "waitTime": 6184.971605285925,
            "responseTime": 1682348235333,
            "catchQuestion": "How many <b class=\"r\">red<\/b> marbles did your opponent report drawing? ",
            "catchKey": -1,
            "catchResponse": -1,
            "catchTime": 1682348194211,
            "trialTime": 0
        },
        {
            "exptPart": "trial",
            "trialNumber": 13,
            "roleCurrent": "receiver",
            "marblesSampled": 100,
            "probRed": 0.5,
            "practiceLambda": 5,
            "trialLambda": 21.9,
            "instructedLambda": "dishonest_big",
            "sd": 8.1,
            "drawnRed": 64,
            "reportedRed": 100,
            "inferredRed": 65,
            "playerTrialScore": -1,
            "oppTrialScore": 1,
            "playerTotalScore": -208,
            "oppTotalScore": 192,
            "waitTime": 6837.702739172958,
            "responseTime": 1682348250030,
            "catchQuestion": "How many <b class=\"r\">red<\/b> marbles did your opponent report drawing? ",
            "catchKey": -1,
            "catchResponse": -1,
            "catchTime": 1682348194211,
            "trialTime": 0
        },
        {
            "exptPart": "trial",
            "trialNumber": 14,
            "roleCurrent": "receiver",
            "marblesSampled": 100,
            "probRed": 0.5,
            "practiceLambda": 5,
            "trialLambda": 21.9,
            "instructedLambda": "dishonest_big",
            "sd": 8.1,
            "drawnRed": 86,
            "reportedRed": 100,
            "inferredRed": 70,
            "playerTrialScore": -16,
            "oppTrialScore": 0,
            "playerTotalScore": -224,
            "oppTotalScore": 192,
            "waitTime": 6163.607819665695,
            "responseTime": 1682348267721,
            "catchQuestion": "How many <b class=\"r\">red<\/b> marbles did your opponent report drawing? ",
            "catchKey": -1,
            "catchResponse": -1,
            "catchTime": 1682348194211,
            "trialTime": 0
        },
        {
            "exptPart": "trial",
            "trialNumber": 15,
            "roleCurrent": "receiver",
            "marblesSampled": 100,
            "probRed": 0.5,
            "practiceLambda": 5,
            "trialLambda": 21.9,
            "instructedLambda": "dishonest_big",
            "sd": 8.1,
            "drawnRed": 30,
            "reportedRed": 50,
            "inferredRed": 50,
            "playerTrialScore": -20,
            "oppTrialScore": 20,
            "playerTotalScore": -244,
            "oppTotalScore": 212,
            "waitTime": 6303.286737537516,
            "responseTime": 1682348278515,
            "catchQuestion": "How many <b class=\"r\">red<\/b> marbles did your opponent report drawing? ",
            "catchKey": -1,
            "catchResponse": -1,
            "catchTime": 1682348194211,
            "trialTime": 0
        },
        {
            "exptPart": "trial",
            "trialNumber": 16,
            "roleCurrent": "receiver",
            "marblesSampled": 100,
            "probRed": 0.5,
            "practiceLambda": 5,
            "trialLambda": 21.9,
            "instructedLambda": "dishonest_big",
            "sd": 8.1,
            "drawnRed": 78,
            "reportedRed": 100,
            "inferredRed": 60,
            "playerTrialScore": -18,
            "oppTrialScore": 0,
            "playerTotalScore": -262,
            "oppTotalScore": 212,
            "waitTime": 5132.198329522087,
            "responseTime": 1682348290346,
            "catchQuestion": "How many <b class=\"r\">red<\/b> marbles did your opponent report drawing? ",
            "catchKey": 100,
            "catchResponse": 100,
            "catchTime": 1682348290346,
            "trialTime": 0
        },
        {
            "exptPart": "trial",
            "trialNumber": 17,
            "roleCurrent": "receiver",
            "marblesSampled": 100,
            "probRed": 0.5,
            "practiceLambda": 5,
            "trialLambda": 21.9,
            "instructedLambda": "dishonest_big",
            "sd": 8.1,
            "drawnRed": 87,
            "reportedRed": 100,
            "inferredRed": 54,
            "playerTrialScore": -33,
            "oppTrialScore": 0,
            "playerTotalScore": -295,
            "oppTotalScore": 212,
            "waitTime": 6845.652359599363,
            "responseTime": 1682348313664,
            "catchQuestion": "How many <b class=\"r\">red<\/b> marbles did your opponent report drawing? ",
            "catchKey": -1,
            "catchResponse": -1,
            "catchTime": 1682348290346,
            "trialTime": 0
        },
        {
            "exptPart": "trial",
            "trialNumber": 18,
            "roleCurrent": "receiver",
            "marblesSampled": 100,
            "probRed": 0.5,
            "practiceLambda": 5,
            "trialLambda": 21.9,
            "instructedLambda": "dishonest_big",
            "sd": 8.1,
            "drawnRed": 34,
            "reportedRed": 56,
            "inferredRed": 56,
            "playerTrialScore": -22,
            "oppTrialScore": 22,
            "playerTotalScore": -317,
            "oppTotalScore": 234,
            "waitTime": 5627.450935040617,
            "responseTime": 1682348323495,
            "catchQuestion": "How many <b class=\"r\">red<\/b> marbles did your opponent report drawing? ",
            "catchKey": -1,
            "catchResponse": -1,
            "catchTime": 1682348290346,
            "trialTime": 0
        },
        {
            "exptPart": "trial",
            "trialNumber": 19,
            "roleCurrent": "receiver",
            "marblesSampled": 100,
            "probRed": 0.5,
            "practiceLambda": 5,
            "trialLambda": 21.9,
            "instructedLambda": "dishonest_big",
            "sd": 8.1,
            "drawnRed": 30,
            "reportedRed": 50,
            "inferredRed": 52,
            "playerTrialScore": -22,
            "oppTrialScore": 22,
            "playerTotalScore": -339,
            "oppTotalScore": 256,
            "waitTime": 5677.276502748827,
            "responseTime": 1682348336535,
            "catchQuestion": "How many <b class=\"r\">red<\/b> marbles did your opponent report drawing? ",
            "catchKey": -1,
            "catchResponse": -1,
            "catchTime": 1682348290346,
            "trialTime": 0
        },
        {
            "exptPart": "trial",
            "trialNumber": 20,
            "roleCurrent": "receiver",
            "marblesSampled": 100,
            "probRed": 0.5,
            "practiceLambda": 5,
            "trialLambda": 21.9,
            "instructedLambda": "dishonest_big",
            "sd": 8.1,
            "drawnRed": 63,
            "reportedRed": 85,
            "inferredRed": 80,
            "playerTrialScore": -17,
            "oppTrialScore": 17,
            "playerTotalScore": -356,
            "oppTotalScore": 273,
            "waitTime": 6098.982056153824,
            "responseTime": 1682348346677,
            "catchQuestion": "How many <b class=\"r\">red<\/b> marbles did your opponent report drawing? ",
            "catchKey": 85,
            "catchResponse": 85,
            "catchTime": 1682348346677,
            "trialTime": 0
        },
        {
            "exptPart": "trial",
            "trialNumber": 21,
            "roleCurrent": "receiver",
            "marblesSampled": 100,
            "probRed": 0.5,
            "practiceLambda": 5,
            "trialLambda": 21.9,
            "instructedLambda": "dishonest_big",
            "sd": 8.1,
            "drawnRed": 58,
            "reportedRed": 80,
            "inferredRed": 80,
            "playerTrialScore": -22,
            "oppTrialScore": 22,
            "playerTotalScore": -378,
            "oppTotalScore": 295,
            "waitTime": 5646.576122180235,
            "responseTime": 1682348366982,
            "catchQuestion": "How many <b class=\"r\">red<\/b> marbles did your opponent report drawing? ",
            "catchKey": -1,
            "catchResponse": -1,
            "catchTime": 1682348346677,
            "trialTime": 0
        },
        {
            "exptPart": "trial",
            "trialNumber": 22,
            "roleCurrent": "receiver",
            "marblesSampled": 100,
            "probRed": 0.5,
            "practiceLambda": 5,
            "trialLambda": 21.9,
            "instructedLambda": "dishonest_big",
            "sd": 8.1,
            "drawnRed": 57,
            "reportedRed": 80,
            "inferredRed": 80,
            "playerTrialScore": -23,
            "oppTrialScore": 23,
            "playerTotalScore": -401,
            "oppTotalScore": 318,
            "waitTime": 5456.366410514358,
            "responseTime": 1682348376005,
            "catchQuestion": "How many <b class=\"r\">red<\/b> marbles did your opponent report drawing? ",
            "catchKey": -1,
            "catchResponse": -1,
            "catchTime": 1682348346677,
            "trialTime": 0
        },
        {
            "exptPart": "trial",
            "trialNumber": 23,
            "roleCurrent": "receiver",
            "marblesSampled": 100,
            "probRed": 0.5,
            "practiceLambda": 5,
            "trialLambda": 21.9,
            "instructedLambda": "dishonest_big",
            "sd": 8.1,
            "drawnRed": 14,
            "reportedRed": 51,
            "inferredRed": 51,
            "playerTrialScore": -37,
            "oppTrialScore": 37,
            "playerTotalScore": -438,
            "oppTotalScore": 355,
            "waitTime": 5745.953878650679,
            "responseTime": 1682348385325,
            "catchQuestion": "How many <b class=\"r\">red<\/b> marbles did your opponent report drawing? ",
            "catchKey": -1,
            "catchResponse": -1,
            "catchTime": 1682348346677,
            "trialTime": 0
        },
        {
            "exptPart": "trial",
            "trialNumber": 24,
            "roleCurrent": "receiver",
            "marblesSampled": 100,
            "probRed": 0.5,
            "practiceLambda": 5,
            "trialLambda": 21.9,
            "instructedLambda": "dishonest_big",
            "sd": 8.1,
            "drawnRed": 20,
            "reportedRed": 37,
            "inferredRed": 40,
            "playerTrialScore": -20,
            "oppTrialScore": 20,
            "playerTotalScore": -458,
            "oppTotalScore": 375,
            "waitTime": 5949.801172969586,
            "responseTime": 1682348395255,
            "catchQuestion": "How many <b class=\"r\">red<\/b> marbles did your opponent report drawing? ",
            "catchKey": -1,
            "catchResponse": -1,
            "catchTime": 1682348346677,
            "trialTime": 0
        },
        {
            "exptPart": "trial",
            "trialNumber": 25,
            "roleCurrent": "receiver",
            "marblesSampled": 100,
            "probRed": 0.5,
            "practiceLambda": 5,
            "trialLambda": 21.9,
            "instructedLambda": "dishonest_big",
            "sd": 8.1,
            "drawnRed": 61,
            "reportedRed": 66,
            "inferredRed": 66,
            "playerTrialScore": -5,
            "oppTrialScore": 5,
            "playerTotalScore": -463,
            "oppTotalScore": 380,
            "waitTime": 5635.226223445801,
            "responseTime": 1682348408223,
            "catchQuestion": "How many <b class=\"r\">red<\/b> marbles did your opponent report drawing? ",
            "catchKey": -1,
            "catchResponse": -1,
            "catchTime": 1682348346677,
            "trialTime": 0
        },
        {
            "exptPart": "trial",
            "trialNumber": 26,
            "roleCurrent": "receiver",
            "marblesSampled": 100,
            "probRed": 0.5,
            "practiceLambda": 5,
            "trialLambda": 21.9,
            "instructedLambda": "dishonest_big",
            "sd": 8.1,
            "drawnRed": 70,
            "reportedRed": 96,
            "inferredRed": 75,
            "playerTrialScore": -5,
            "oppTrialScore": 5,
            "playerTotalScore": -468,
            "oppTotalScore": 385,
            "waitTime": 5428.245008795969,
            "responseTime": 1682348421662,
            "catchQuestion": "How many <b class=\"r\">red<\/b> marbles did your opponent report drawing? ",
            "catchKey": -1,
            "catchResponse": -1,
            "catchTime": 1682348346677,
            "trialTime": 0
        },
        {
            "exptPart": "trial",
            "trialNumber": 27,
            "roleCurrent": "receiver",
            "marblesSampled": 100,
            "probRed": 0.5,
            "practiceLambda": 5,
            "trialLambda": 21.9,
            "instructedLambda": "dishonest_big",
            "sd": 8.1,
            "drawnRed": 74,
            "reportedRed": 81,
            "inferredRed": 80,
            "playerTrialScore": -6,
            "oppTrialScore": 6,
            "playerTotalScore": -474,
            "oppTotalScore": 391,
            "waitTime": 5163.610043947878,
            "responseTime": 1682348432410,
            "catchQuestion": "How many <b class=\"r\">red<\/b> marbles did your opponent report drawing? ",
            "catchKey": -1,
            "catchResponse": -1,
            "catchTime": 1682348346677,
            "trialTime": 0
        },
        {
            "exptPart": "trial",
            "trialNumber": 28,
            "roleCurrent": "receiver",
            "marblesSampled": 100,
            "probRed": 0.5,
            "practiceLambda": 5,
            "trialLambda": 21.9,
            "instructedLambda": "dishonest_big",
            "sd": 8.1,
            "drawnRed": 68,
            "reportedRed": 91,
            "inferredRed": 67,
            "playerTrialScore": -1,
            "oppTrialScore": 0,
            "playerTotalScore": -475,
            "oppTotalScore": 391,
            "waitTime": 6359.793464316954,
            "responseTime": 1682348453778,
            "catchQuestion": "How many <b class=\"r\">red<\/b> marbles did your opponent report drawing? ",
            "catchKey": -1,
            "catchResponse": -1,
            "catchTime": 1682348346677,
            "trialTime": 0
        },
        {
            "exptPart": "trial",
            "trialNumber": 29,
            "roleCurrent": "receiver",
            "marblesSampled": 100,
            "probRed": 0.5,
            "practiceLambda": 5,
            "trialLambda": 21.9,
            "instructedLambda": "dishonest_big",
            "sd": 8.1,
            "drawnRed": 54,
            "reportedRed": 72,
            "inferredRed": 70,
            "playerTrialScore": -16,
            "oppTrialScore": 16,
            "playerTotalScore": -491,
            "oppTotalScore": 407,
            "waitTime": 6025.892383871484,
            "responseTime": 1682348464018,
            "catchQuestion": "How many <b class=\"r\">red<\/b> marbles did your opponent report drawing? ",
            "catchKey": -1,
            "catchResponse": -1,
            "catchTime": 1682348346677,
            "trialTime": 0
        },
        {
            "exptPart": "trial",
            "trialNumber": 30,
            "roleCurrent": "receiver",
            "marblesSampled": 100,
            "probRed": 0.5,
            "practiceLambda": 5,
            "trialLambda": 21.9,
            "instructedLambda": "dishonest_big",
            "sd": 8.1,
            "drawnRed": 31,
            "reportedRed": 49,
            "inferredRed": 49,
            "playerTrialScore": -18,
            "oppTrialScore": 18,
            "playerTotalScore": -509,
            "oppTotalScore": 425,
            "waitTime": 5224.557149871835,
            "responseTime": 1682348473571,
            "catchQuestion": "How many <b class=\"r\">red<\/b> marbles did your opponent report drawing? ",
            "catchKey": -1,
            "catchResponse": -1,
            "catchTime": 1682348473571,
            "trialTime": 0
        },
        {
            "exptPart": "trial",
            "trialNumber": 31,
            "roleCurrent": "receiver",
            "marblesSampled": 100,
            "probRed": 0.5,
            "practiceLambda": 5,
            "trialLambda": 21.9,
            "instructedLambda": "dishonest_big",
            "sd": 8.1,
            "drawnRed": 27,
            "reportedRed": 34,
            "inferredRed": 34,
            "playerTrialScore": -7,
            "oppTrialScore": 7,
            "playerTotalScore": -516,
            "oppTotalScore": 432,
            "waitTime": 6734.816599929623,
            "responseTime": 1682348493157,
            "catchQuestion": "How many <b class=\"r\">red<\/b> marbles did your opponent report drawing? ",
            "catchKey": -1,
            "catchResponse": -1,
            "catchTime": 1682348473571,
            "trialTime": 0
        },
        {
            "exptPart": "trial",
            "trialNumber": 32,
            "roleCurrent": "receiver",
            "marblesSampled": 100,
            "probRed": 0.5,
            "practiceLambda": 5,
            "trialLambda": 21.9,
            "instructedLambda": "dishonest_big",
            "sd": 8.1,
            "drawnRed": 44,
            "reportedRed": 57,
            "inferredRed": 57,
            "playerTrialScore": -13,
            "oppTrialScore": 13,
            "playerTotalScore": -529,
            "oppTotalScore": 445,
            "waitTime": 5974.40992539838,
            "responseTime": 1682348502408,
            "catchQuestion": "How many <b class=\"r\">red<\/b> marbles did your opponent report drawing? ",
            "catchKey": -1,
            "catchResponse": -1,
            "catchTime": 1682348473571,
            "trialTime": 0
        },
        {
            "exptPart": "trial",
            "trialNumber": 33,
            "roleCurrent": "receiver",
            "marblesSampled": 100,
            "probRed": 0.5,
            "practiceLambda": 5,
            "trialLambda": 21.9,
            "instructedLambda": "dishonest_big",
            "sd": 8.1,
            "drawnRed": 40,
            "reportedRed": 47,
            "inferredRed": 47,
            "playerTrialScore": -7,
            "oppTrialScore": 7,
            "playerTotalScore": -536,
            "oppTotalScore": 452,
            "waitTime": 5769.697964312212,
            "responseTime": 1682348511322,
            "catchQuestion": "How many <b class=\"r\">red<\/b> marbles did your opponent report drawing? ",
            "catchKey": -1,
            "catchResponse": -1,
            "catchTime": 1682348473571,
            "trialTime": 0
        },
        {
            "exptPart": "trial",
            "trialNumber": 34,
            "roleCurrent": "receiver",
            "marblesSampled": 100,
            "probRed": 0.5,
            "practiceLambda": 5,
            "trialLambda": 21.9,
            "instructedLambda": "dishonest_big",
            "sd": 8.1,
            "drawnRed": 33,
            "reportedRed": 45,
            "inferredRed": 45,
            "playerTrialScore": -12,
            "oppTrialScore": 12,
            "playerTotalScore": -548,
            "oppTotalScore": 464,
            "waitTime": 6746.234351668753,
            "responseTime": 1682348521416,
            "catchQuestion": "How many <b class=\"r\">red<\/b> marbles did your opponent report drawing? ",
            "catchKey": -1,
            "catchResponse": -1,
            "catchTime": 1682348473571,
            "trialTime": 0
        },
        {
            "exptPart": "trial",
            "trialNumber": 35,
            "roleCurrent": "receiver",
            "marblesSampled": 100,
            "probRed": 0.5,
            "practiceLambda": 5,
            "trialLambda": 21.9,
            "instructedLambda": "dishonest_big",
            "sd": 8.1,
            "drawnRed": 75,
            "reportedRed": 89,
            "inferredRed": 89,
            "playerTrialScore": -14,
            "oppTrialScore": 14,
            "playerTotalScore": -562,
            "oppTotalScore": 478,
            "waitTime": 5660.449370383977,
            "responseTime": 1682348530100,
            "catchQuestion": "How many <b class=\"r\">red<\/b> marbles did your opponent report drawing? ",
            "catchKey": -1,
            "catchResponse": -1,
            "catchTime": 1682348473571,
            "trialTime": 0
        },
        {
            "exptPart": "trial",
            "trialNumber": 36,
            "roleCurrent": "receiver",
            "marblesSampled": 100,
            "probRed": 0.5,
            "practiceLambda": 5,
            "trialLambda": 21.9,
            "instructedLambda": "dishonest_big",
            "sd": 8.1,
            "drawnRed": 21,
            "reportedRed": 36,
            "inferredRed": 36,
            "playerTrialScore": -15,
            "oppTrialScore": 15,
            "playerTotalScore": -577,
            "oppTotalScore": 493,
            "waitTime": 7144.452700091691,
            "responseTime": 1682348541486,
            "catchQuestion": "How many <b class=\"r\">red<\/b> marbles did your opponent report drawing? ",
            "catchKey": -1,
            "catchResponse": -1,
            "catchTime": 1682348473571,
            "trialTime": 0
        },
        {
            "exptPart": "trial",
            "trialNumber": 37,
            "roleCurrent": "receiver",
            "marblesSampled": 100,
            "probRed": 0.5,
            "practiceLambda": 5,
            "trialLambda": 21.9,
            "instructedLambda": "dishonest_big",
            "sd": 8.1,
            "drawnRed": 30,
            "reportedRed": 32,
            "inferredRed": 32,
            "playerTrialScore": -2,
            "oppTrialScore": 2,
            "playerTotalScore": -579,
            "oppTotalScore": 495,
            "waitTime": 6251.054463572933,
            "responseTime": 1682348550599,
            "catchQuestion": "How many <b class=\"r\">red<\/b> marbles did your opponent report drawing? ",
            "catchKey": -1,
            "catchResponse": -1,
            "catchTime": 1682348473571,
            "trialTime": 0
        },
        {
            "exptPart": "trial",
            "trialNumber": 38,
            "roleCurrent": "receiver",
            "marblesSampled": 100,
            "probRed": 0.5,
            "practiceLambda": 5,
            "trialLambda": 21.9,
            "instructedLambda": "dishonest_big",
            "sd": 8.1,
            "drawnRed": 52,
            "reportedRed": 76,
            "inferredRed": 76,
            "playerTrialScore": -24,
            "oppTrialScore": 24,
            "playerTotalScore": -603,
            "oppTotalScore": 519,
            "waitTime": 5506.999196060995,
            "responseTime": 1682348560299,
            "catchQuestion": "How many <b class=\"r\">red<\/b> marbles did your opponent report drawing? ",
            "catchKey": -1,
            "catchResponse": -1,
            "catchTime": 1682348473571,
            "trialTime": 0
        },
        {
            "exptPart": "trial",
            "trialNumber": 39,
            "roleCurrent": "receiver",
            "marblesSampled": 100,
            "probRed": 0.5,
            "practiceLambda": 5,
            "trialLambda": 21.9,
            "instructedLambda": "dishonest_big",
            "sd": 8.1,
            "drawnRed": 22,
            "reportedRed": 45,
            "inferredRed": 45,
            "playerTrialScore": -23,
            "oppTrialScore": 23,
            "playerTotalScore": -626,
            "oppTotalScore": 542,
            "waitTime": 5925.168969984655,
            "responseTime": 1682348569959,
            "catchQuestion": "How many <b class=\"r\">red<\/b> marbles did your opponent report drawing? ",
            "catchKey": -1,
            "catchResponse": -1,
            "catchTime": 1682348473571,
            "trialTime": 0
        },
        {
            "exptPart": "trial",
            "trialNumber": 40,
            "roleCurrent": "receiver",
            "marblesSampled": 100,
            "probRed": 0.5,
            "practiceLambda": 5,
            "trialLambda": 21.9,
            "instructedLambda": "dishonest_big",
            "sd": 8.1,
            "drawnRed": 36,
            "reportedRed": 52,
            "inferredRed": 52,
            "playerTrialScore": -16,
            "oppTrialScore": 16,
            "playerTotalScore": -642,
            "oppTotalScore": 558,
            "waitTime": 6568.991035664281,
            "responseTime": 1682348581524,
            "catchQuestion": "How many <b class=\"r\">red<\/b> marbles did your opponent report drawing? ",
            "catchKey": -1,
            "catchResponse": -1,
            "catchTime": 1682348581524,
            "trialTime": 0
        },
        {
            "exptPart": "trial",
            "trialNumber": 41,
            "roleCurrent": "receiver",
            "marblesSampled": 100,
            "probRed": 0.5,
            "practiceLambda": 5,
            "trialLambda": 21.9,
            "instructedLambda": "dishonest_big",
            "sd": 8.1,
            "drawnRed": 73,
            "reportedRed": 86,
            "inferredRed": 76,
            "playerTrialScore": -3,
            "oppTrialScore": 3,
            "playerTotalScore": -645,
            "oppTotalScore": 561,
            "waitTime": 6784.590740223879,
            "responseTime": 1682348605026,
            "catchQuestion": "How many <b class=\"r\">red<\/b> marbles did your opponent report drawing? ",
            "catchKey": -1,
            "catchResponse": -1,
            "catchTime": 1682348581524,
            "trialTime": 0
        },
        {
            "exptPart": "trial",
            "trialNumber": 42,
            "roleCurrent": "receiver",
            "marblesSampled": 100,
            "probRed": 0.5,
            "practiceLambda": 5,
            "trialLambda": 21.9,
            "instructedLambda": "dishonest_big",
            "sd": 8.1,
            "drawnRed": 46,
            "reportedRed": 86,
            "inferredRed": 76,
            "playerTrialScore": -30,
            "oppTrialScore": 30,
            "playerTotalScore": -675,
            "oppTotalScore": 591,
            "waitTime": 5156.748763653162,
            "responseTime": 1682348615411,
            "catchQuestion": "How many <b class=\"r\">red<\/b> marbles did your opponent report drawing? ",
            "catchKey": 86,
            "catchResponse": 86,
            "catchTime": 1682348615412,
            "trialTime": 0
        },
        {
            "exptPart": "trial",
            "trialNumber": 43,
            "roleCurrent": "receiver",
            "marblesSampled": 100,
            "probRed": 0.5,
            "practiceLambda": 5,
            "trialLambda": 21.9,
            "instructedLambda": "dishonest_big",
            "sd": 8.1,
            "drawnRed": 27,
            "reportedRed": 52,
            "inferredRed": 52,
            "playerTrialScore": -25,
            "oppTrialScore": 25,
            "playerTotalScore": -700,
            "oppTotalScore": 616,
            "waitTime": 5812.549888122981,
            "responseTime": 1682348634900,
            "catchQuestion": "How many <b class=\"r\">red<\/b> marbles did your opponent report drawing? ",
            "catchKey": 52,
            "catchResponse": 52,
            "catchTime": 1682348634900,
            "trialTime": 0
        },
        {
            "exptPart": "trial",
            "trialNumber": 44,
            "roleCurrent": "receiver",
            "marblesSampled": 100,
            "probRed": 0.5,
            "practiceLambda": 5,
            "trialLambda": 21.9,
            "instructedLambda": "dishonest_big",
            "sd": 8.1,
            "drawnRed": 29,
            "reportedRed": 62,
            "inferredRed": 65,
            "playerTrialScore": -36,
            "oppTrialScore": 36,
            "playerTotalScore": -736,
            "oppTotalScore": 652,
            "waitTime": 7488.168486297952,
            "responseTime": 1682348660478,
            "catchQuestion": "How many <b class=\"r\">red<\/b> marbles did your opponent report drawing? ",
            "catchKey": -1,
            "catchResponse": -1,
            "catchTime": 1682348634900,
            "trialTime": 0
        },
        {
            "exptPart": "trial",
            "trialNumber": 45,
            "roleCurrent": "receiver",
            "marblesSampled": 100,
            "probRed": 0.5,
            "practiceLambda": 5,
            "trialLambda": 21.9,
            "instructedLambda": "dishonest_big",
            "sd": 8.1,
            "drawnRed": 64,
            "reportedRed": 91,
            "inferredRed": 76,
            "playerTrialScore": -12,
            "oppTrialScore": 12,
            "playerTotalScore": -748,
            "oppTotalScore": 664,
            "waitTime": 5255.5276881582295,
            "responseTime": 1682348671636,
            "catchQuestion": "How many <b class=\"r\">red<\/b> marbles did your opponent report drawing? ",
            "catchKey": -1,
            "catchResponse": -1,
            "catchTime": 1682348634900,
            "trialTime": 0
        },
        {
            "exptPart": "trial",
            "trialNumber": 46,
            "roleCurrent": "receiver",
            "marblesSampled": 100,
            "probRed": 0.5,
            "practiceLambda": 5,
            "trialLambda": 21.9,
            "instructedLambda": "dishonest_big",
            "sd": 8.1,
            "drawnRed": 72,
            "reportedRed": 94,
            "inferredRed": 70,
            "playerTrialScore": -2,
            "oppTrialScore": 0,
            "playerTotalScore": -750,
            "oppTotalScore": 664,
            "waitTime": 5316.484936299945,
            "responseTime": 1682348684051,
            "catchQuestion": "How many <b class=\"r\">red<\/b> marbles did your opponent report drawing? ",
            "catchKey": -1,
            "catchResponse": -1,
            "catchTime": 1682348634900,
            "trialTime": 0
        },
        {
            "exptPart": "trial",
            "trialNumber": 47,
            "roleCurrent": "receiver",
            "marblesSampled": 100,
            "probRed": 0.5,
            "practiceLambda": 5,
            "trialLambda": 21.9,
            "instructedLambda": "dishonest_big",
            "sd": 8.1,
            "drawnRed": 26,
            "reportedRed": 43,
            "inferredRed": 45,
            "playerTrialScore": -19,
            "oppTrialScore": 19,
            "playerTotalScore": -769,
            "oppTotalScore": 683,
            "waitTime": 6702.821806709654,
            "responseTime": 1682348694836,
            "catchQuestion": "How many <b class=\"r\">red<\/b> marbles did your opponent report drawing? ",
            "catchKey": -1,
            "catchResponse": -1,
            "catchTime": 1682348634900,
            "trialTime": 0
        },
        {
            "exptPart": "trial",
            "trialNumber": 48,
            "roleCurrent": "receiver",
            "marblesSampled": 100,
            "probRed": 0.5,
            "practiceLambda": 5,
            "trialLambda": 21.9,
            "instructedLambda": "dishonest_big",
            "sd": 8.1,
            "drawnRed": 80,
            "reportedRed": 100,
            "inferredRed": 50,
            "playerTrialScore": -30,
            "oppTrialScore": 0,
            "playerTotalScore": -799,
            "oppTotalScore": 683,
            "waitTime": 5534.943426651222,
            "responseTime": 1682348707101,
            "catchQuestion": "How many <b class=\"r\">red<\/b> marbles did your opponent report drawing? ",
            "catchKey": 100,
            "catchResponse": 100,
            "catchTime": 1682348707101,
            "trialTime": 0
        },
        {
            "exptPart": "trial",
            "trialNumber": 49,
            "roleCurrent": "receiver",
            "marblesSampled": 100,
            "probRed": 0.5,
            "practiceLambda": 5,
            "trialLambda": 21.9,
            "instructedLambda": "dishonest_big",
            "sd": 8.1,
            "drawnRed": 37,
            "reportedRed": 60,
            "inferredRed": 60,
            "playerTrialScore": -23,
            "oppTrialScore": 23,
            "playerTotalScore": -822,
            "oppTotalScore": 706,
            "waitTime": 6714.378729249917,
            "responseTime": 1682348722844,
            "catchQuestion": "How many <b class=\"r\">red<\/b> marbles did your opponent report drawing? ",
            "catchKey": -1,
            "catchResponse": -1,
            "catchTime": 1682348707101,
            "trialTime": 0
        },
        {
            "exptPart": "trial",
            "trialNumber": 50,
            "roleCurrent": "receiver",
            "marblesSampled": 100,
            "probRed": 0.5,
            "practiceLambda": 5,
            "trialLambda": 21.9,
            "instructedLambda": "dishonest_big",
            "sd": 8.1,
            "drawnRed": 46,
            "reportedRed": 78,
            "inferredRed": 75,
            "playerTrialScore": -29,
            "oppTrialScore": 29,
            "playerTotalScore": -851,
            "oppTotalScore": 735,
            "waitTime": 6304.569178588527,
            "responseTime": 1682348733520,
            "catchQuestion": "How many <b class=\"r\">red<\/b> marbles did your opponent report drawing? ",
            "catchKey": -1,
            "catchResponse": -1,
            "catchTime": 1682348733520,
            "trialTime": 0
        },
        {
            "exptPart": "trial",
            "trialNumber": 51,
            "roleCurrent": "receiver",
            "marblesSampled": 100,
            "probRed": 0.5,
            "practiceLambda": 5,
            "trialLambda": 21.9,
            "instructedLambda": "dishonest_big",
            "sd": 8.1,
            "drawnRed": 53,
            "reportedRed": 77,
            "inferredRed": 67,
            "playerTrialScore": -14,
            "oppTrialScore": 14,
            "playerTotalScore": -865,
            "oppTotalScore": 749,
            "waitTime": 7106.650726586055,
            "responseTime": 1682348750816,
            "catchQuestion": "How many <b class=\"r\">red<\/b> marbles did your opponent report drawing? ",
            "catchKey": -1,
            "catchResponse": -1,
            "catchTime": 1682348733520,
            "trialTime": 0
        },
        {
            "exptPart": "trial",
            "trialNumber": 52,
            "roleCurrent": "receiver",
            "marblesSampled": 100,
            "probRed": 0.5,
            "practiceLambda": 5,
            "trialLambda": 21.9,
            "instructedLambda": "dishonest_big",
            "sd": 8.1,
            "drawnRed": 62,
            "reportedRed": 100,
            "inferredRed": 100,
            "playerTrialScore": -38,
            "oppTrialScore": 38,
            "playerTotalScore": -903,
            "oppTotalScore": 787,
            "waitTime": 5932.937072432416,
            "responseTime": 1682348760859,
            "catchQuestion": "How many <b class=\"r\">red<\/b> marbles did your opponent report drawing? ",
            "catchKey": -1,
            "catchResponse": -1,
            "catchTime": 1682348733520,
            "trialTime": 0
        },
        {
            "exptPart": "trial",
            "trialNumber": 53,
            "roleCurrent": "receiver",
            "marblesSampled": 100,
            "probRed": 0.5,
            "practiceLambda": 5,
            "trialLambda": 21.9,
            "instructedLambda": "dishonest_big",
            "sd": 8.1,
            "drawnRed": 39,
            "reportedRed": 50,
            "inferredRed": 50,
            "playerTrialScore": -11,
            "oppTrialScore": 11,
            "playerTotalScore": -914,
            "oppTotalScore": 798,
            "waitTime": 6582.982333882321,
            "responseTime": 1682348770916,
            "catchQuestion": "How many <b class=\"r\">red<\/b> marbles did your opponent report drawing? ",
            "catchKey": -1,
            "catchResponse": -1,
            "catchTime": 1682348733520,
            "trialTime": 0
        },
        {
            "exptPart": "trial",
            "trialNumber": 54,
            "roleCurrent": "receiver",
            "marblesSampled": 100,
            "probRed": 0.5,
            "practiceLambda": 5,
            "trialLambda": 21.9,
            "instructedLambda": "dishonest_big",
            "sd": 8.1,
            "drawnRed": 45,
            "reportedRed": 50,
            "inferredRed": 50,
            "playerTrialScore": -5,
            "oppTrialScore": 5,
            "playerTotalScore": -919,
            "oppTotalScore": 803,
            "waitTime": 6433.169383922747,
            "responseTime": 1682348780506,
            "catchQuestion": "How many <b class=\"r\">red<\/b> marbles did your opponent report drawing? ",
            "catchKey": 50,
            "catchResponse": 50,
            "catchTime": 1682348780506,
            "trialTime": 0
        },
        {
            "exptPart": "trial",
            "trialNumber": 55,
            "roleCurrent": "receiver",
            "marblesSampled": 100,
            "probRed": 0.5,
            "practiceLambda": 5,
            "trialLambda": 21.9,
            "instructedLambda": "dishonest_big",
            "sd": 8.1,
            "drawnRed": 53,
            "reportedRed": 73,
            "inferredRed": 73,
            "playerTrialScore": -20,
            "oppTrialScore": 20,
            "playerTotalScore": -939,
            "oppTotalScore": 823,
            "waitTime": 5818.830674990426,
            "responseTime": 1682348794987,
            "catchQuestion": "How many <b class=\"r\">red<\/b> marbles did your opponent report drawing? ",
            "catchKey": -1,
            "catchResponse": -1,
            "catchTime": 1682348780506,
            "trialTime": 0
        },
        {
            "exptPart": "trial",
            "trialNumber": 56,
            "roleCurrent": "receiver",
            "marblesSampled": 100,
            "probRed": 0.5,
            "practiceLambda": 5,
            "trialLambda": 21.9,
            "instructedLambda": "dishonest_big",
            "sd": 8.1,
            "drawnRed": 77,
            "reportedRed": 93,
            "inferredRed": 70,
            "playerTrialScore": -7,
            "oppTrialScore": 0,
            "playerTotalScore": -946,
            "oppTotalScore": 823,
            "waitTime": 6894.352510028351,
            "responseTime": 1682348808808,
            "catchQuestion": "How many <b class=\"r\">red<\/b> marbles did your opponent report drawing? ",
            "catchKey": -1,
            "catchResponse": -1,
            "catchTime": 1682348780506,
            "trialTime": 0
        },
        {
            "exptPart": "trial",
            "trialNumber": 57,
            "roleCurrent": "receiver",
            "marblesSampled": 100,
            "probRed": 0.5,
            "practiceLambda": 5,
            "trialLambda": 21.9,
            "instructedLambda": "dishonest_big",
            "sd": 8.1,
            "drawnRed": 38,
            "reportedRed": 49,
            "inferredRed": 49,
            "playerTrialScore": -11,
            "oppTrialScore": 11,
            "playerTotalScore": -957,
            "oppTotalScore": 834,
            "waitTime": 5378.245439143521,
            "responseTime": 1682348817863,
            "catchQuestion": "How many <b class=\"r\">red<\/b> marbles did your opponent report drawing? ",
            "catchKey": -1,
            "catchResponse": -1,
            "catchTime": 1682348780506,
            "trialTime": 0
        },
        {
            "exptPart": "trial",
            "trialNumber": 58,
            "roleCurrent": "receiver",
            "marblesSampled": 100,
            "probRed": 0.5,
            "practiceLambda": 5,
            "trialLambda": 21.9,
            "instructedLambda": "dishonest_big",
            "sd": 8.1,
            "drawnRed": 55,
            "reportedRed": 70,
            "inferredRed": 70,
            "playerTrialScore": -15,
            "oppTrialScore": 15,
            "playerTotalScore": -972,
            "oppTotalScore": 849,
            "waitTime": 6031.123084359065,
            "responseTime": 1682348827543,
            "catchQuestion": "How many <b class=\"r\">red<\/b> marbles did your opponent report drawing? ",
            "catchKey": -1,
            "catchResponse": -1,
            "catchTime": 1682348780506,
            "trialTime": 0
        },
        {
            "exptPart": "trial",
            "trialNumber": 59,
            "roleCurrent": "receiver",
            "marblesSampled": 100,
            "probRed": 0.5,
            "practiceLambda": 5,
            "trialLambda": 21.9,
            "instructedLambda": "dishonest_big",
            "sd": 8.1,
            "drawnRed": 40,
            "reportedRed": 52,
            "inferredRed": 52,
            "playerTrialScore": -12,
            "oppTrialScore": 12,
            "playerTotalScore": -984,
            "oppTotalScore": 861,
            "waitTime": 5763.511864051432,
            "responseTime": 1682348836714,
            "catchQuestion": "How many <b class=\"r\">red<\/b> marbles did your opponent report drawing? ",
            "catchKey": -1,
            "catchResponse": -1,
            "catchTime": 1682348780506,
            "trialTime": 0
        },
        {
            "exptPart": "trial",
            "trialNumber": 60,
            "roleCurrent": "receiver",
            "marblesSampled": 100,
            "probRed": 0.5,
            "practiceLambda": 5,
            "trialLambda": 21.9,
            "instructedLambda": "dishonest_big",
            "sd": 8.1,
            "drawnRed": 62,
            "reportedRed": 75,
            "inferredRed": 75,
            "playerTrialScore": -13,
            "oppTrialScore": 13,
            "playerTotalScore": -997,
            "oppTotalScore": 874,
            "waitTime": 5482.169229728286,
            "responseTime": 1682348858179,
            "catchQuestion": "How many <b class=\"r\">red<\/b> marbles did your opponent report drawing? ",
            "catchKey": -1,
            "catchResponse": -1,
            "catchTime": 1682348858180,
            "trialTime": 0
        },
        {
            "exptPart": "trial",
            "trialNumber": 61,
            "roleCurrent": "receiver",
            "marblesSampled": 100,
            "probRed": 0.5,
            "practiceLambda": 5,
            "trialLambda": 21.9,
            "instructedLambda": "dishonest_big",
            "sd": 8.1,
            "drawnRed": 83,
            "reportedRed": 100,
            "inferredRed": 50,
            "playerTrialScore": -33,
            "oppTrialScore": 0,
            "playerTotalScore": -1030,
            "oppTotalScore": 874,
            "waitTime": 6493.849321533113,
            "responseTime": 1682348876049,
            "catchQuestion": "How many <b class=\"r\">red<\/b> marbles did your opponent report drawing? ",
            "catchKey": -1,
            "catchResponse": -1,
            "catchTime": 1682348858180,
            "trialTime": 0
        },
        {
            "exptPart": "trial",
            "trialNumber": 62,
            "roleCurrent": "receiver",
            "marblesSampled": 100,
            "probRed": 0.5,
            "practiceLambda": 5,
            "trialLambda": 21.9,
            "instructedLambda": "dishonest_big",
            "sd": 8.1,
            "drawnRed": 77,
            "reportedRed": 100,
            "inferredRed": 50,
            "playerTrialScore": -27,
            "oppTrialScore": 0,
            "playerTotalScore": -1057,
            "oppTotalScore": 874,
            "waitTime": 5544.524464092983,
            "responseTime": 1682348885013,
            "catchQuestion": "How many <b class=\"r\">red<\/b> marbles did your opponent report drawing? ",
            "catchKey": -1,
            "catchResponse": -1,
            "catchTime": 1682348858180,
            "trialTime": 0
        },
        {
            "exptPart": "trial",
            "trialNumber": 63,
            "roleCurrent": "receiver",
            "marblesSampled": 100,
            "probRed": 0.5,
            "practiceLambda": 5,
            "trialLambda": 21.9,
            "instructedLambda": "dishonest_big",
            "sd": 8.1,
            "drawnRed": 52,
            "reportedRed": 75,
            "inferredRed": 75,
            "playerTrialScore": -23,
            "oppTrialScore": 23,
            "playerTotalScore": -1080,
            "oppTotalScore": 897,
            "waitTime": 5260.031342310519,
            "responseTime": 1682348893526,
            "catchQuestion": "How many <b class=\"r\">red<\/b> marbles did your opponent report drawing? ",
            "catchKey": -1,
            "catchResponse": -1,
            "catchTime": 1682348858180,
            "trialTime": 0
        },
        {
            "exptPart": "trial",
            "trialNumber": 64,
            "roleCurrent": "receiver",
            "marblesSampled": 100,
            "probRed": 0.5,
            "practiceLambda": 5,
            "trialLambda": 21.9,
            "instructedLambda": "dishonest_big",
            "sd": 8.1,
            "drawnRed": 33,
            "reportedRed": 63,
            "inferredRed": 63,
            "playerTrialScore": -30,
            "oppTrialScore": 30,
            "playerTotalScore": -1110,
            "oppTotalScore": 927,
            "waitTime": 5807.435113071699,
            "responseTime": 1682348904028,
            "catchQuestion": "How many <b class=\"r\">red<\/b> marbles did your opponent report drawing? ",
            "catchKey": -1,
            "catchResponse": -1,
            "catchTime": 1682348858180,
            "trialTime": 0
        },
        {
            "exptPart": "trial",
            "trialNumber": 65,
            "roleCurrent": "receiver",
            "marblesSampled": 100,
            "probRed": 0.5,
            "practiceLambda": 5,
            "trialLambda": 21.9,
            "instructedLambda": "dishonest_big",
            "sd": 8.1,
            "drawnRed": 10,
            "reportedRed": 31,
            "inferredRed": 40,
            "playerTrialScore": -30,
            "oppTrialScore": 30,
            "playerTotalScore": -1140,
            "oppTotalScore": 957,
            "waitTime": 6504.680479636155,
            "responseTime": 1682348915033,
            "catchQuestion": "How many <b class=\"r\">red<\/b> marbles did your opponent report drawing? ",
            "catchKey": -1,
            "catchResponse": -1,
            "catchTime": 1682348858180,
            "trialTime": 0
        },
        {
            "exptPart": "trial",
            "trialNumber": 66,
            "roleCurrent": "receiver",
            "marblesSampled": 100,
            "probRed": 0.5,
            "practiceLambda": 5,
            "trialLambda": 21.9,
            "instructedLambda": "dishonest_big",
            "sd": 8.1,
            "drawnRed": 16,
            "reportedRed": 34,
            "inferredRed": 34,
            "playerTrialScore": -18,
            "oppTrialScore": 18,
            "playerTotalScore": -1158,
            "oppTotalScore": 975,
            "waitTime": 5652.893000704449,
            "responseTime": 1682348924384,
            "catchQuestion": "How many <b class=\"r\">red<\/b> marbles did your opponent report drawing? ",
            "catchKey": -1,
            "catchResponse": -1,
            "catchTime": 1682348858180,
            "trialTime": 0
        },
        {
            "exptPart": "trial",
            "trialNumber": 67,
            "roleCurrent": "receiver",
            "marblesSampled": 100,
            "probRed": 0.5,
            "practiceLambda": 5,
            "trialLambda": 21.9,
            "instructedLambda": "dishonest_big",
            "sd": 8.1,
            "drawnRed": 96,
            "reportedRed": 100,
            "inferredRed": 100,
            "playerTrialScore": -4,
            "oppTrialScore": 4,
            "playerTotalScore": -1162,
            "oppTotalScore": 979,
            "waitTime": 5204.995744630918,
            "responseTime": 1682348934849,
            "catchQuestion": "How many <b class=\"r\">red<\/b> marbles did your opponent report drawing? ",
            "catchKey": 100,
            "catchResponse": 100,
            "catchTime": 1682348934849,
            "trialTime": 0
        },
        {
            "exptPart": "trial",
            "trialNumber": 68,
            "roleCurrent": "receiver",
            "marblesSampled": 100,
            "probRed": 0.5,
            "practiceLambda": 5,
            "trialLambda": 21.9,
            "instructedLambda": "dishonest_big",
            "sd": 8.1,
            "drawnRed": 31,
            "reportedRed": 44,
            "inferredRed": 44,
            "playerTrialScore": -13,
            "oppTrialScore": 13,
            "playerTotalScore": -1175,
            "oppTotalScore": 992,
            "waitTime": 6241.19302624173,
            "responseTime": 1682348951740,
            "catchQuestion": "How many <b class=\"r\">red<\/b> marbles did your opponent report drawing? ",
            "catchKey": -1,
            "catchResponse": -1,
            "catchTime": 1682348934849,
            "trialTime": 0
        },
        {
            "exptPart": "trial",
            "trialNumber": 69,
            "roleCurrent": "receiver",
            "marblesSampled": 100,
            "probRed": 0.5,
            "practiceLambda": 5,
            "trialLambda": 21.9,
            "instructedLambda": "dishonest_big",
            "sd": 8.1,
            "drawnRed": 44,
            "reportedRed": 57,
            "inferredRed": 57,
            "playerTrialScore": -13,
            "oppTrialScore": 13,
            "playerTotalScore": -1188,
            "oppTotalScore": 1005,
            "waitTime": 7395.968327255953,
            "responseTime": 1682348962531,
            "catchQuestion": "How many <b class=\"r\">red<\/b> marbles did your opponent report drawing? ",
            "catchKey": -1,
            "catchResponse": -1,
            "catchTime": 1682348934849,
            "trialTime": 0
        },
        {
            "exptPart": "trial",
            "trialNumber": 70,
            "roleCurrent": "receiver",
            "marblesSampled": 100,
            "probRed": 0.5,
            "practiceLambda": 5,
            "trialLambda": 21.9,
            "instructedLambda": "dishonest_big",
            "sd": 8.1,
            "drawnRed": 68,
            "reportedRed": 88,
            "inferredRed": 80,
            "playerTrialScore": -12,
            "oppTrialScore": 12,
            "playerTotalScore": -1200,
            "oppTotalScore": 1017,
            "waitTime": 6366.022419154464,
            "responseTime": 1682348972562,
            "catchQuestion": "How many <b class=\"r\">red<\/b> marbles did your opponent report drawing? ",
            "catchKey": -1,
            "catchResponse": -1,
            "catchTime": 1682348972562,
            "trialTime": 0
        },
        {
            "exptPart": "trial",
            "trialNumber": 71,
            "roleCurrent": "receiver",
            "marblesSampled": 100,
            "probRed": 0.5,
            "practiceLambda": 5,
            "trialLambda": 21.9,
            "instructedLambda": "dishonest_big",
            "sd": 8.1,
            "drawnRed": 46,
            "reportedRed": 71,
            "inferredRed": 71,
            "playerTrialScore": -25,
            "oppTrialScore": 25,
            "playerTotalScore": -1225,
            "oppTotalScore": 1042,
            "waitTime": 6569.901335694523,
            "responseTime": 1682348989168,
            "catchQuestion": "How many <b class=\"r\">red<\/b> marbles did your opponent report drawing? ",
            "catchKey": -1,
            "catchResponse": -1,
            "catchTime": 1682348972562,
            "trialTime": 0
        },
        {
            "exptPart": "trial",
            "trialNumber": 72,
            "roleCurrent": "receiver",
            "marblesSampled": 100,
            "probRed": 0.5,
            "practiceLambda": 5,
            "trialLambda": 21.9,
            "instructedLambda": "dishonest_big",
            "sd": 8.1,
            "drawnRed": 63,
            "reportedRed": 91,
            "inferredRed": 91,
            "playerTrialScore": -28,
            "oppTrialScore": 28,
            "playerTotalScore": -1253,
            "oppTotalScore": 1070,
            "waitTime": 5505.645987547585,
            "responseTime": 1682348997825,
            "catchQuestion": "How many <b class=\"r\">red<\/b> marbles did your opponent report drawing? ",
            "catchKey": -1,
            "catchResponse": -1,
            "catchTime": 1682348972562,
            "trialTime": 0
        },
        {
            "exptPart": "trial",
            "trialNumber": 73,
            "roleCurrent": "receiver",
            "marblesSampled": 100,
            "probRed": 0.5,
            "practiceLambda": 5,
            "trialLambda": 21.9,
            "instructedLambda": "dishonest_big",
            "sd": 8.1,
            "drawnRed": 68,
            "reportedRed": 91,
            "inferredRed": 91,
            "playerTrialScore": -23,
            "oppTrialScore": 23,
            "playerTotalScore": -1276,
            "oppTotalScore": 1093,
            "waitTime": 6650.787429159558,
            "responseTime": 1682349009431,
            "catchQuestion": "How many <b class=\"r\">red<\/b> marbles did your opponent report drawing? ",
            "catchKey": -1,
            "catchResponse": -1,
            "catchTime": 1682348972562,
            "trialTime": 0
        },
        {
            "exptPart": "trial",
            "trialNumber": 74,
            "roleCurrent": "receiver",
            "marblesSampled": 100,
            "probRed": 0.5,
            "practiceLambda": 5,
            "trialLambda": 21.9,
            "instructedLambda": "dishonest_big",
            "sd": 8.1,
            "drawnRed": 77,
            "reportedRed": 100,
            "inferredRed": 100,
            "playerTrialScore": -23,
            "oppTrialScore": 23,
            "playerTotalScore": -1299,
            "oppTotalScore": 1116,
            "waitTime": 6365.410298325718,
            "responseTime": 1682349021614,
            "catchQuestion": "How many <b class=\"r\">red<\/b> marbles did your opponent report drawing? ",
            "catchKey": -1,
            "catchResponse": -1,
            "catchTime": 1682348972562,
            "trialTime": 0
        },
        {
            "exptPart": "trial",
            "trialNumber": 75,
            "roleCurrent": "receiver",
            "marblesSampled": 100,
            "probRed": 0.5,
            "practiceLambda": 5,
            "trialLambda": 21.9,
            "instructedLambda": "dishonest_big",
            "sd": 8.1,
            "drawnRed": 13,
            "reportedRed": 38,
            "inferredRed": 38,
            "playerTrialScore": -25,
            "oppTrialScore": 25,
            "playerTotalScore": -1324,
            "oppTotalScore": 1141,
            "waitTime": 6482.227826529526,
            "responseTime": 1682349032190,
            "catchQuestion": "How many <b class=\"r\">red<\/b> marbles did your opponent report drawing? ",
            "catchKey": 38,
            "catchResponse": 38,
            "catchTime": 1682349032190,
            "trialTime": 0
        },
        {
            "exptPart": "trial",
            "trialNumber": 76,
            "roleCurrent": "receiver",
            "marblesSampled": 100,
            "probRed": 0.5,
            "practiceLambda": 5,
            "trialLambda": 21.9,
            "instructedLambda": "dishonest_big",
            "sd": 8.1,
            "drawnRed": 65,
            "reportedRed": 84,
            "inferredRed": 84,
            "playerTrialScore": -19,
            "oppTrialScore": 19,
            "playerTotalScore": -1343,
            "oppTotalScore": 1160,
            "waitTime": 5407.298492163329,
            "responseTime": 1682349050767,
            "catchQuestion": "How many <b class=\"r\">red<\/b> marbles did your opponent report drawing? ",
            "catchKey": -1,
            "catchResponse": -1,
            "catchTime": 1682349032190,
            "trialTime": 0
        },
        {
            "exptPart": "trial",
            "trialNumber": 77,
            "roleCurrent": "receiver",
            "marblesSampled": 100,
            "probRed": 0.5,
            "practiceLambda": 5,
            "trialLambda": 21.9,
            "instructedLambda": "dishonest_big",
            "sd": 8.1,
            "drawnRed": 85,
            "reportedRed": 99,
            "inferredRed": 50,
            "playerTrialScore": -35,
            "oppTrialScore": 0,
            "playerTotalScore": -1378,
            "oppTotalScore": 1160,
            "waitTime": 5180.9164476438855,
            "responseTime": 1682349059719,
            "catchQuestion": "How many <b class=\"r\">red<\/b> marbles did your opponent report drawing? ",
            "catchKey": -1,
            "catchResponse": -1,
            "catchTime": 1682349032190,
            "trialTime": 0
        },
        {
            "exptPart": "trial",
            "trialNumber": 78,
            "roleCurrent": "receiver",
            "marblesSampled": 100,
            "probRed": 0.5,
            "practiceLambda": 5,
            "trialLambda": 21.9,
            "instructedLambda": "dishonest_big",
            "sd": 8.1,
            "drawnRed": 14,
            "reportedRed": 37,
            "inferredRed": 40,
            "playerTrialScore": -26,
            "oppTrialScore": 26,
            "playerTotalScore": -1404,
            "oppTotalScore": 1186,
            "waitTime": 6560.044648487918,
            "responseTime": 1682349070164,
            "catchQuestion": "How many <b class=\"r\">red<\/b> marbles did your opponent report drawing? ",
            "catchKey": -1,
            "catchResponse": -1,
            "catchTime": 1682349032190,
            "trialTime": 0
        },
        {
            "exptPart": "trial",
            "trialNumber": 79,
            "roleCurrent": "receiver",
            "marblesSampled": 100,
            "probRed": 0.5,
            "practiceLambda": 5,
            "trialLambda": 21.9,
            "instructedLambda": "dishonest_big",
            "sd": 8.1,
            "drawnRed": 39,
            "reportedRed": 62,
            "inferredRed": 60,
            "playerTrialScore": -21,
            "oppTrialScore": 21,
            "playerTotalScore": -1425,
            "oppTotalScore": 1207,
            "waitTime": 6392.42936907458,
            "responseTime": 1682349080503,
            "catchQuestion": "How many <b class=\"r\">red<\/b> marbles did your opponent report drawing? ",
            "catchKey": -1,
            "catchResponse": -1,
            "catchTime": 1682349032190,
            "trialTime": 0
        },
        {
            "exptPart": "trial",
            "trialNumber": 80,
            "roleCurrent": "receiver",
            "marblesSampled": 100,
            "probRed": 0.5,
            "practiceLambda": 5,
            "trialLambda": 21.9,
            "instructedLambda": "dishonest_big",
            "sd": 8.1,
            "drawnRed": 52,
            "reportedRed": 83,
            "inferredRed": 50,
            "playerTrialScore": -2,
            "oppTrialScore": 0,
            "playerTotalScore": -1427,
            "oppTotalScore": 1207,
            "waitTime": 5346.621343374492,
            "responseTime": 1682349090555,
            "catchQuestion": "How many <b class=\"r\">red<\/b> marbles did your opponent report drawing? ",
            "catchKey": -1,
            "catchResponse": -1,
            "catchTime": 1682349090555,
            "trialTime": 0
        },
        {
            "exptPart": "trial",
            "trialNumber": 81,
            "roleCurrent": "receiver",
            "marblesSampled": 100,
            "probRed": 0.5,
            "practiceLambda": 5,
            "trialLambda": 21.9,
            "instructedLambda": "dishonest_big",
            "sd": 8.1,
            "drawnRed": 53,
            "reportedRed": 67,
            "inferredRed": 67,
            "playerTrialScore": -14,
            "oppTrialScore": 14,
            "playerTotalScore": -1441,
            "oppTotalScore": 1221,
            "waitTime": 6504.008851435721,
            "responseTime": 1682349102509,
            "catchQuestion": "How many <b class=\"r\">red<\/b> marbles did your opponent report drawing? ",
            "catchKey": -1,
            "catchResponse": -1,
            "catchTime": 1682349090555,
            "trialTime": 0
        },
        {
            "exptPart": "trial",
            "trialNumber": 82,
            "roleCurrent": "receiver",
            "marblesSampled": 100,
            "probRed": 0.5,
            "practiceLambda": 5,
            "trialLambda": 21.9,
            "instructedLambda": "dishonest_big",
            "sd": 8.1,
            "drawnRed": 88,
            "reportedRed": 100,
            "inferredRed": 50,
            "playerTrialScore": -38,
            "oppTrialScore": 0,
            "playerTotalScore": -1479,
            "oppTotalScore": 1221,
            "waitTime": 7347.506923567544,
            "responseTime": 1682349116797,
            "catchQuestion": "How many <b class=\"r\">red<\/b> marbles did your opponent report drawing? ",
            "catchKey": -1,
            "catchResponse": -1,
            "catchTime": 1682349090555,
            "trialTime": 0
        },
        {
            "exptPart": "trial",
            "trialNumber": 83,
            "roleCurrent": "receiver",
            "marblesSampled": 100,
            "probRed": 0.5,
            "practiceLambda": 5,
            "trialLambda": 21.9,
            "instructedLambda": "dishonest_big",
            "sd": 8.1,
            "drawnRed": 35,
            "reportedRed": 46,
            "inferredRed": 45,
            "playerTrialScore": -10,
            "oppTrialScore": 10,
            "playerTotalScore": -1489,
            "oppTotalScore": 1231,
            "waitTime": 5785.13262451109,
            "responseTime": 1682349127278,
            "catchQuestion": "How many <b class=\"r\">red<\/b> marbles did your opponent report drawing? ",
            "catchKey": -1,
            "catchResponse": -1,
            "catchTime": 1682349090555,
            "trialTime": 0
        },
        {
            "exptPart": "trial",
            "trialNumber": 84,
            "roleCurrent": "receiver",
            "marblesSampled": 100,
            "probRed": 0.5,
            "practiceLambda": 5,
            "trialLambda": 21.9,
            "instructedLambda": "dishonest_big",
            "sd": 8.1,
            "drawnRed": 73,
            "reportedRed": 100,
            "inferredRed": 50,
            "playerTrialScore": -23,
            "oppTrialScore": 0,
            "playerTotalScore": -1512,
            "oppTotalScore": 1231,
            "waitTime": 5667.659544953951,
            "responseTime": 1682349137041,
            "catchQuestion": "How many <b class=\"r\">red<\/b> marbles did your opponent report drawing? ",
            "catchKey": -1,
            "catchResponse": -1,
            "catchTime": 1682349090555,
            "trialTime": 0
        },
        {
            "exptPart": "trial",
            "trialNumber": 85,
            "roleCurrent": "receiver",
            "marblesSampled": 100,
            "probRed": 0.5,
            "practiceLambda": 5,
            "trialLambda": 21.9,
            "instructedLambda": "dishonest_big",
            "sd": 8.1,
            "drawnRed": 70,
            "reportedRed": 81,
            "inferredRed": 70,
            "playerTrialScore": 0,
            "oppTrialScore": 0,
            "playerTotalScore": -1512,
            "oppTotalScore": 1231,
            "waitTime": 5797.545657903182,
            "responseTime": 1682349147518,
            "catchQuestion": "How many <b class=\"r\">red<\/b> marbles did your opponent report drawing? ",
            "catchKey": -1,
            "catchResponse": -1,
            "catchTime": 1682349090555,
            "trialTime": 0
        },
        {
            "exptPart": "trial",
            "trialNumber": 86,
            "roleCurrent": "receiver",
            "marblesSampled": 100,
            "probRed": 0.5,
            "practiceLambda": 5,
            "trialLambda": 21.9,
            "instructedLambda": "dishonest_big",
            "sd": 8.1,
            "drawnRed": 54,
            "reportedRed": 68,
            "inferredRed": 68,
            "playerTrialScore": -14,
            "oppTrialScore": 14,
            "playerTotalScore": -1526,
            "oppTotalScore": 1245,
            "waitTime": 5393.453585099641,
            "responseTime": 1682349156156,
            "catchQuestion": "How many <b class=\"r\">red<\/b> marbles did your opponent report drawing? ",
            "catchKey": 68,
            "catchResponse": 68,
            "catchTime": 1682349156156,
            "trialTime": 0
        },
        {
            "exptPart": "trial",
            "trialNumber": 87,
            "roleCurrent": "receiver",
            "marblesSampled": 100,
            "probRed": 0.5,
            "practiceLambda": 5,
            "trialLambda": 21.9,
            "instructedLambda": "dishonest_big",
            "sd": 8.1,
            "drawnRed": 66,
            "reportedRed": 93,
            "inferredRed": 90,
            "playerTrialScore": -24,
            "oppTrialScore": 24,
            "playerTotalScore": -1550,
            "oppTotalScore": 1269,
            "waitTime": 5317.11419141019,
            "responseTime": 1682349170343,
            "catchQuestion": "How many <b class=\"r\">red<\/b> marbles did your opponent report drawing? ",
            "catchKey": -1,
            "catchResponse": -1,
            "catchTime": 1682349156156,
            "trialTime": 0
        },
        {
            "exptPart": "trial",
            "trialNumber": 88,
            "roleCurrent": "receiver",
            "marblesSampled": 100,
            "probRed": 0.5,
            "practiceLambda": 5,
            "trialLambda": 21.9,
            "instructedLambda": "dishonest_big",
            "sd": 8.1,
            "drawnRed": 79,
            "reportedRed": 95,
            "inferredRed": 90,
            "playerTrialScore": -11,
            "oppTrialScore": 11,
            "playerTotalScore": -1561,
            "oppTotalScore": 1280,
            "waitTime": 7427.459776006803,
            "responseTime": 1682349180804,
            "catchQuestion": "How many <b class=\"r\">red<\/b> marbles did your opponent report drawing? ",
            "catchKey": -1,
            "catchResponse": -1,
            "catchTime": 1682349156156,
            "trialTime": 0
        },
        {
            "exptPart": "trial",
            "trialNumber": 89,
            "roleCurrent": "receiver",
            "marblesSampled": 100,
            "probRed": 0.5,
            "practiceLambda": 5,
            "trialLambda": 21.9,
            "instructedLambda": "dishonest_big",
            "sd": 8.1,
            "drawnRed": 88,
            "reportedRed": 100,
            "inferredRed": 50,
            "playerTrialScore": -38,
            "oppTrialScore": 0,
            "playerTotalScore": -1599,
            "oppTotalScore": 1280,
            "waitTime": 6788.57457660738,
            "responseTime": 1682349195876,
            "catchQuestion": "How many <b class=\"r\">red<\/b> marbles did your opponent report drawing? ",
            "catchKey": -1,
            "catchResponse": -1,
            "catchTime": 1682349156156,
            "trialTime": 0
        },
        {
            "exptPart": "trial",
            "trialNumber": 90,
            "roleCurrent": "receiver",
            "marblesSampled": 100,
            "probRed": 0.5,
            "practiceLambda": 5,
            "trialLambda": 21.9,
            "instructedLambda": "dishonest_big",
            "sd": 8.1,
            "drawnRed": 47,
            "reportedRed": 64,
            "inferredRed": 64,
            "playerTrialScore": -17,
            "oppTrialScore": 17,
            "playerTotalScore": -1616,
            "oppTotalScore": 1297,
            "waitTime": 6596.489639965752,
            "responseTime": 1682349206504,
            "catchQuestion": "How many <b class=\"r\">red<\/b> marbles did your opponent report drawing? ",
            "catchKey": -1,
            "catchResponse": -1,
            "catchTime": 1682349206504,
            "trialTime": 0
        },
        {
            "exptPart": "trial",
            "trialNumber": 91,
            "roleCurrent": "receiver",
            "marblesSampled": 100,
            "probRed": 0.5,
            "practiceLambda": 5,
            "trialLambda": 21.9,
            "instructedLambda": "dishonest_big",
            "sd": 8.1,
            "drawnRed": 54,
            "reportedRed": 75,
            "inferredRed": 75,
            "playerTrialScore": -21,
            "oppTrialScore": 21,
            "playerTotalScore": -1637,
            "oppTotalScore": 1318,
            "waitTime": 5464.543672246638,
            "responseTime": 1682349220880,
            "catchQuestion": "How many <b class=\"r\">red<\/b> marbles did your opponent report drawing? ",
            "catchKey": -1,
            "catchResponse": -1,
            "catchTime": 1682349206504,
            "trialTime": 0
        },
        {
            "exptPart": "trial",
            "trialNumber": 92,
            "roleCurrent": "receiver",
            "marblesSampled": 100,
            "probRed": 0.5,
            "practiceLambda": 5,
            "trialLambda": 21.9,
            "instructedLambda": "dishonest_big",
            "sd": 8.1,
            "drawnRed": 57,
            "reportedRed": 82,
            "inferredRed": 80,
            "playerTrialScore": -23,
            "oppTrialScore": 23,
            "playerTotalScore": -1660,
            "oppTotalScore": 1341,
            "waitTime": 6991.285899345832,
            "responseTime": 1682349232245,
            "catchQuestion": "How many <b class=\"r\">red<\/b> marbles did your opponent report drawing? ",
            "catchKey": -1,
            "catchResponse": -1,
            "catchTime": 1682349206504,
            "trialTime": 0
        },
        {
            "exptPart": "trial",
            "trialNumber": 93,
            "roleCurrent": "receiver",
            "marblesSampled": 100,
            "probRed": 0.5,
            "practiceLambda": 5,
            "trialLambda": 21.9,
            "instructedLambda": "dishonest_big",
            "sd": 8.1,
            "drawnRed": 50,
            "reportedRed": 50,
            "inferredRed": 50,
            "playerTrialScore": 0,
            "oppTrialScore": 0,
            "playerTotalScore": -1660,
            "oppTotalScore": 1341,
            "waitTime": 5452.390180572711,
            "responseTime": 1682349240968,
            "catchQuestion": "How many <b class=\"r\">red<\/b> marbles did your opponent report drawing? ",
            "catchKey": -1,
            "catchResponse": -1,
            "catchTime": 1682349206504,
            "trialTime": 0
        },
        {
            "exptPart": "trial",
            "trialNumber": 94,
            "roleCurrent": "receiver",
            "marblesSampled": 100,
            "probRed": 0.5,
            "practiceLambda": 5,
            "trialLambda": 21.9,
            "instructedLambda": "dishonest_big",
            "sd": 8.1,
            "drawnRed": 76,
            "reportedRed": 100,
            "inferredRed": 60,
            "playerTrialScore": -16,
            "oppTrialScore": 0,
            "playerTotalScore": -1676,
            "oppTotalScore": 1341,
            "waitTime": 5202.905900122245,
            "responseTime": 1682349259369,
            "catchQuestion": "How many <b class=\"r\">red<\/b> marbles did your opponent report drawing? ",
            "catchKey": -1,
            "catchResponse": -1,
            "catchTime": 1682349206504,
            "trialTime": 0
        },
        {
            "exptPart": "trial",
            "trialNumber": 95,
            "roleCurrent": "receiver",
            "marblesSampled": 100,
            "probRed": 0.5,
            "practiceLambda": 5,
            "trialLambda": 21.9,
            "instructedLambda": "dishonest_big",
            "sd": 8.1,
            "drawnRed": 67,
            "reportedRed": 85,
            "inferredRed": 85,
            "playerTrialScore": -18,
            "oppTrialScore": 18,
            "playerTotalScore": -1694,
            "oppTotalScore": 1359,
            "waitTime": 5722.269337133912,
            "responseTime": 1682349268744,
            "catchQuestion": "How many <b class=\"r\">red<\/b> marbles did your opponent report drawing? ",
            "catchKey": -1,
            "catchResponse": -1,
            "catchTime": 1682349206504,
            "trialTime": 0
        },
        {
            "exptPart": "trial",
            "trialNumber": 96,
            "roleCurrent": "receiver",
            "marblesSampled": 100,
            "probRed": 0.5,
            "practiceLambda": 5,
            "trialLambda": 21.9,
            "instructedLambda": "dishonest_big",
            "sd": 8.1,
            "drawnRed": 39,
            "reportedRed": 61,
            "inferredRed": 61,
            "playerTrialScore": -22,
            "oppTrialScore": 22,
            "playerTotalScore": -1716,
            "oppTotalScore": 1381,
            "waitTime": 5562.284878443808,
            "responseTime": 1682349277868,
            "catchQuestion": "How many <b class=\"r\">red<\/b> marbles did your opponent report drawing? ",
            "catchKey": -1,
            "catchResponse": -1,
            "catchTime": 1682349206504,
            "trialTime": 0
        },
        {
            "exptPart": "trial",
            "trialNumber": 97,
            "roleCurrent": "receiver",
            "marblesSampled": 100,
            "probRed": 0.5,
            "practiceLambda": 5,
            "trialLambda": 21.9,
            "instructedLambda": "dishonest_big",
            "sd": 8.1,
            "drawnRed": 52,
            "reportedRed": 71,
            "inferredRed": 71,
            "playerTrialScore": -19,
            "oppTrialScore": 19,
            "playerTotalScore": -1735,
            "oppTotalScore": 1400,
            "waitTime": 5148.526997590736,
            "responseTime": 1682349286371,
            "catchQuestion": "How many <b class=\"r\">red<\/b> marbles did your opponent report drawing? ",
            "catchKey": -1,
            "catchResponse": -1,
            "catchTime": 1682349206504,
            "trialTime": 0
        },
        {
            "exptPart": "trial",
            "trialNumber": 98,
            "roleCurrent": "receiver",
            "marblesSampled": 100,
            "probRed": 0.5,
            "practiceLambda": 5,
            "trialLambda": 21.9,
            "instructedLambda": "dishonest_big",
            "sd": 8.1,
            "drawnRed": 54,
            "reportedRed": 69,
            "inferredRed": 69,
            "playerTrialScore": -15,
            "oppTrialScore": 15,
            "playerTotalScore": -1750,
            "oppTotalScore": 1415,
            "waitTime": 6987.093783917002,
            "responseTime": 1682349299296,
            "catchQuestion": "How many <b class=\"r\">red<\/b> marbles did your opponent report drawing? ",
            "catchKey": -1,
            "catchResponse": -1,
            "catchTime": 1682349206504,
            "trialTime": 0
        },
        {
            "exptPart": "trial",
            "trialNumber": 99,
            "roleCurrent": "receiver",
            "marblesSampled": 100,
            "probRed": 0.5,
            "practiceLambda": 5,
            "trialLambda": 21.9,
            "instructedLambda": "dishonest_big",
            "sd": 8.1,
            "drawnRed": 76,
            "reportedRed": 90,
            "inferredRed": 80,
            "playerTrialScore": -4,
            "oppTrialScore": 4,
            "playerTotalScore": -1754,
            "oppTotalScore": 1419,
            "waitTime": 5439.425114819009,
            "responseTime": 1682349309375,
            "catchQuestion": "How many <b class=\"r\">red<\/b> marbles did your opponent report drawing? ",
            "catchKey": -1,
            "catchResponse": -1,
            "catchTime": 1682349206504,
            "trialTime": 0
        },
        {
            "exptPart": "trial",
            "trialNumber": 100,
            "roleCurrent": "receiver",
            "marblesSampled": 100,
            "probRed": 0.5,
            "practiceLambda": 5,
            "trialLambda": 21.9,
            "instructedLambda": "dishonest_big",
            "sd": 8.1,
            "drawnRed": 5,
            "reportedRed": 33,
            "inferredRed": 33,
            "playerTrialScore": -28,
            "oppTrialScore": 28,
            "playerTotalScore": -1782,
            "oppTotalScore": 1447,
            "waitTime": 5191.639298005506,
            "responseTime": 1682349317631,
            "catchQuestion": "How many <b class=\"r\">red<\/b> marbles did your opponent report drawing? ",
            "catchKey": -1,
            "catchResponse": -1,
            "catchTime": 1682349317631,
            "trialTime": 0
        }
    ]
}