{
    "client": {
        "type": "sona",
        "experiment_id": 2228,
        "credit_token": "b315147ae43241ea9c65086cb510cfb7",
        "survey_code": "43417",
        "sid": "sona-43417",
        "window": {
            "width": 1440,
            "height": 764
        },
        "screen": {
            "width": 1440,
            "height": 900
        },
        "userAgent": "Mozilla\/5.0 (Macintosh; Intel Mac OS X 10_15_7) AppleWebKit\/537.36 (KHTML, like Gecko) Chrome\/112.0.0.0 Safari\/537.36",
        "score": 0,
        "bonus": 0
    },
    "expt": {
        "saveURL": "submit.simple.php",
        "trials": 100,
        "practiceTrials": 2,
        "marblesSampled": 100,
        "probRed": 0.5,
        "practiceLambdaAI": 5,
        "lambdaAI": 21.9,
        "sd": 8.1,
        "roles": [
            "sender",
            "receiver"
        ],
        "cost": "unif",
        "goal": "over",
        "oppDishonesty": "dishonest_big",
        "catchTrials": [
            20,
            93,
            84,
            29,
            0,
            70,
            14,
            67,
            30,
            38
        ],
        "scoreTotal": {
            "player": -1305,
            "opp": 988
        },
        "sona": {
            "experiment_id": 2228,
            "credit_token": "b315147ae43241ea9c65086cb510cfb7"
        },
        "pilot": false,
        "debug": false
    },
    "trials": [
        {
            "exptPart": "practice",
            "trialNumber": 1,
            "roleCurrent": "sender",
            "marblesSampled": 100,
            "probRed": 0.5,
            "practiceLambda": 5,
            "trialLambda": 21.9,
            "instructedLambda": "dishonest_big",
            "sd": 8.1,
            "drawnRed": 49,
            "reportedRed": 49,
            "inferredRed": 41,
            "playerTrialScore": 0,
            "oppTrialScore": -8,
            "playerTotalScore": 0,
            "oppTotalScore": -8,
            "waitTime": 2116.255741844545,
            "responseTime": 1682323712727,
            "catchQuestion": "How many <b class=\"r\">red<\/b> marbles did you actually draw (before any changes)? ",
            "catchKey": 49,
            "catchResponse": 49,
            "catchTime": 1682323712728,
            "trialTime": 0
        },
        {
            "exptPart": "practice",
            "trialNumber": 2,
            "roleCurrent": "receiver",
            "marblesSampled": 100,
            "probRed": 0.5,
            "practiceLambda": 5,
            "trialLambda": 21.9,
            "instructedLambda": "dishonest_big",
            "sd": 8.1,
            "drawnRed": 48,
            "reportedRed": 58,
            "inferredRed": 50,
            "playerTrialScore": -2,
            "oppTrialScore": 2,
            "playerTotalScore": -2,
            "oppTotalScore": -6,
            "waitTime": 6642.392325701847,
            "responseTime": 1682323776977,
            "catchQuestion": "How many <b class=\"r\">red<\/b> marbles did your opponent report drawing? ",
            "catchKey": 58,
            "catchResponse": 58,
            "catchTime": 1682323776978,
            "trialTime": 0
        },
        {
            "exptPart": "trial",
            "trialNumber": 1,
            "roleCurrent": "receiver",
            "marblesSampled": 100,
            "probRed": 0.5,
            "practiceLambda": 5,
            "trialLambda": 21.9,
            "instructedLambda": "dishonest_big",
            "sd": 8.1,
            "drawnRed": 78,
            "reportedRed": 99,
            "inferredRed": 70,
            "playerTrialScore": -8,
            "oppTrialScore": 0,
            "playerTotalScore": -8,
            "oppTotalScore": 0,
            "waitTime": 6744.457315843776,
            "responseTime": 1682323808278,
            "catchQuestion": "How many <b class=\"r\">red<\/b> marbles did your opponent report drawing? ",
            "catchKey": 99,
            "catchResponse": 99,
            "catchTime": 1682323808278,
            "trialTime": 0
        },
        {
            "exptPart": "trial",
            "trialNumber": 2,
            "roleCurrent": "receiver",
            "marblesSampled": 100,
            "probRed": 0.5,
            "practiceLambda": 5,
            "trialLambda": 21.9,
            "instructedLambda": "dishonest_big",
            "sd": 8.1,
            "drawnRed": 5,
            "reportedRed": 22,
            "inferredRed": 14,
            "playerTrialScore": -9,
            "oppTrialScore": 9,
            "playerTotalScore": -17,
            "oppTotalScore": 9,
            "waitTime": 5245.663491464373,
            "responseTime": 1682323832126,
            "catchQuestion": "How many <b class=\"r\">red<\/b> marbles did your opponent report drawing? ",
            "catchKey": -1,
            "catchResponse": -1,
            "catchTime": 1682323808278,
            "trialTime": 0
        },
        {
            "exptPart": "trial",
            "trialNumber": 3,
            "roleCurrent": "receiver",
            "marblesSampled": 100,
            "probRed": 0.5,
            "practiceLambda": 5,
            "trialLambda": 21.9,
            "instructedLambda": "dishonest_big",
            "sd": 8.1,
            "drawnRed": 59,
            "reportedRed": 95,
            "inferredRed": 70,
            "playerTrialScore": -11,
            "oppTrialScore": 11,
            "playerTotalScore": -28,
            "oppTotalScore": 20,
            "waitTime": 6853.392800837615,
            "responseTime": 1682323845743,
            "catchQuestion": "How many <b class=\"r\">red<\/b> marbles did your opponent report drawing? ",
            "catchKey": -1,
            "catchResponse": -1,
            "catchTime": 1682323808278,
            "trialTime": 0
        },
        {
            "exptPart": "trial",
            "trialNumber": 4,
            "roleCurrent": "receiver",
            "marblesSampled": 100,
            "probRed": 0.5,
            "practiceLambda": 5,
            "trialLambda": 21.9,
            "instructedLambda": "dishonest_big",
            "sd": 8.1,
            "drawnRed": 34,
            "reportedRed": 54,
            "inferredRed": 40,
            "playerTrialScore": -6,
            "oppTrialScore": 6,
            "playerTotalScore": -34,
            "oppTotalScore": 26,
            "waitTime": 6479.303867112763,
            "responseTime": 1682323858777,
            "catchQuestion": "How many <b class=\"r\">red<\/b> marbles did your opponent report drawing? ",
            "catchKey": -1,
            "catchResponse": -1,
            "catchTime": 1682323808278,
            "trialTime": 0
        },
        {
            "exptPart": "trial",
            "trialNumber": 5,
            "roleCurrent": "receiver",
            "marblesSampled": 100,
            "probRed": 0.5,
            "practiceLambda": 5,
            "trialLambda": 21.9,
            "instructedLambda": "dishonest_big",
            "sd": 8.1,
            "drawnRed": 53,
            "reportedRed": 75,
            "inferredRed": 70,
            "playerTrialScore": -17,
            "oppTrialScore": 17,
            "playerTotalScore": -51,
            "oppTotalScore": 43,
            "waitTime": 5986.696444161596,
            "responseTime": 1682323868461,
            "catchQuestion": "How many <b class=\"r\">red<\/b> marbles did your opponent report drawing? ",
            "catchKey": -1,
            "catchResponse": -1,
            "catchTime": 1682323808278,
            "trialTime": 0
        },
        {
            "exptPart": "trial",
            "trialNumber": 6,
            "roleCurrent": "receiver",
            "marblesSampled": 100,
            "probRed": 0.5,
            "practiceLambda": 5,
            "trialLambda": 21.9,
            "instructedLambda": "dishonest_big",
            "sd": 8.1,
            "drawnRed": 60,
            "reportedRed": 83,
            "inferredRed": 73,
            "playerTrialScore": -13,
            "oppTrialScore": 13,
            "playerTotalScore": -64,
            "oppTotalScore": 56,
            "waitTime": 7109.480106090546,
            "responseTime": 1682323880762,
            "catchQuestion": "How many <b class=\"r\">red<\/b> marbles did your opponent report drawing? ",
            "catchKey": -1,
            "catchResponse": -1,
            "catchTime": 1682323808278,
            "trialTime": 0
        },
        {
            "exptPart": "trial",
            "trialNumber": 7,
            "roleCurrent": "receiver",
            "marblesSampled": 100,
            "probRed": 0.5,
            "practiceLambda": 5,
            "trialLambda": 21.9,
            "instructedLambda": "dishonest_big",
            "sd": 8.1,
            "drawnRed": 63,
            "reportedRed": 90,
            "inferredRed": 80,
            "playerTrialScore": -17,
            "oppTrialScore": 17,
            "playerTotalScore": -81,
            "oppTotalScore": 73,
            "waitTime": 6314.930841236896,
            "responseTime": 1682323890310,
            "catchQuestion": "How many <b class=\"r\">red<\/b> marbles did your opponent report drawing? ",
            "catchKey": -1,
            "catchResponse": -1,
            "catchTime": 1682323808278,
            "trialTime": 0
        },
        {
            "exptPart": "trial",
            "trialNumber": 8,
            "roleCurrent": "receiver",
            "marblesSampled": 100,
            "probRed": 0.5,
            "practiceLambda": 5,
            "trialLambda": 21.9,
            "instructedLambda": "dishonest_big",
            "sd": 8.1,
            "drawnRed": 20,
            "reportedRed": 55,
            "inferredRed": 45,
            "playerTrialScore": -25,
            "oppTrialScore": 25,
            "playerTotalScore": -106,
            "oppTotalScore": 98,
            "waitTime": 6058.560255113902,
            "responseTime": 1682323903443,
            "catchQuestion": "How many <b class=\"r\">red<\/b> marbles did your opponent report drawing? ",
            "catchKey": -1,
            "catchResponse": -1,
            "catchTime": 1682323808278,
            "trialTime": 0
        },
        {
            "exptPart": "trial",
            "trialNumber": 9,
            "roleCurrent": "receiver",
            "marblesSampled": 100,
            "probRed": 0.5,
            "practiceLambda": 5,
            "trialLambda": 21.9,
            "instructedLambda": "dishonest_big",
            "sd": 8.1,
            "drawnRed": 64,
            "reportedRed": 85,
            "inferredRed": 75,
            "playerTrialScore": -11,
            "oppTrialScore": 11,
            "playerTotalScore": -117,
            "oppTotalScore": 109,
            "waitTime": 6173.348378051876,
            "responseTime": 1682323913077,
            "catchQuestion": "How many <b class=\"r\">red<\/b> marbles did your opponent report drawing? ",
            "catchKey": -1,
            "catchResponse": -1,
            "catchTime": 1682323808278,
            "trialTime": 0
        },
        {
            "exptPart": "trial",
            "trialNumber": 10,
            "roleCurrent": "receiver",
            "marblesSampled": 100,
            "probRed": 0.5,
            "practiceLambda": 5,
            "trialLambda": 21.9,
            "instructedLambda": "dishonest_big",
            "sd": 8.1,
            "drawnRed": 84,
            "reportedRed": 95,
            "inferredRed": 85,
            "playerTrialScore": -1,
            "oppTrialScore": 1,
            "playerTotalScore": -118,
            "oppTotalScore": 110,
            "waitTime": 7072.41724557849,
            "responseTime": 1682323923144,
            "catchQuestion": "How many <b class=\"r\">red<\/b> marbles did your opponent report drawing? ",
            "catchKey": -1,
            "catchResponse": -1,
            "catchTime": 1682323923144,
            "trialTime": 0
        },
        {
            "exptPart": "trial",
            "trialNumber": 11,
            "roleCurrent": "receiver",
            "marblesSampled": 100,
            "probRed": 0.5,
            "practiceLambda": 5,
            "trialLambda": 21.9,
            "instructedLambda": "dishonest_big",
            "sd": 8.1,
            "drawnRed": 58,
            "reportedRed": 86,
            "inferredRed": 76,
            "playerTrialScore": -18,
            "oppTrialScore": 18,
            "playerTotalScore": -136,
            "oppTotalScore": 128,
            "waitTime": 5274.059528514224,
            "responseTime": 1682323943178,
            "catchQuestion": "How many <b class=\"r\">red<\/b> marbles did your opponent report drawing? ",
            "catchKey": -1,
            "catchResponse": -1,
            "catchTime": 1682323923144,
            "trialTime": 0
        },
        {
            "exptPart": "trial",
            "trialNumber": 12,
            "roleCurrent": "receiver",
            "marblesSampled": 100,
            "probRed": 0.5,
            "practiceLambda": 5,
            "trialLambda": 21.9,
            "instructedLambda": "dishonest_big",
            "sd": 8.1,
            "drawnRed": 65,
            "reportedRed": 80,
            "inferredRed": 70,
            "playerTrialScore": -5,
            "oppTrialScore": 5,
            "playerTotalScore": -141,
            "oppTotalScore": 133,
            "waitTime": 5387.540762644701,
            "responseTime": 1682323951026,
            "catchQuestion": "How many <b class=\"r\">red<\/b> marbles did your opponent report drawing? ",
            "catchKey": -1,
            "catchResponse": -1,
            "catchTime": 1682323923144,
            "trialTime": 0
        },
        {
            "exptPart": "trial",
            "trialNumber": 13,
            "roleCurrent": "receiver",
            "marblesSampled": 100,
            "probRed": 0.5,
            "practiceLambda": 5,
            "trialLambda": 21.9,
            "instructedLambda": "dishonest_big",
            "sd": 8.1,
            "drawnRed": 43,
            "reportedRed": 63,
            "inferredRed": 53,
            "playerTrialScore": -10,
            "oppTrialScore": 10,
            "playerTotalScore": -151,
            "oppTotalScore": 143,
            "waitTime": 5920.124894934316,
            "responseTime": 1682323959959,
            "catchQuestion": "How many <b class=\"r\">red<\/b> marbles did your opponent report drawing? ",
            "catchKey": -1,
            "catchResponse": -1,
            "catchTime": 1682323923144,
            "trialTime": 0
        },
        {
            "exptPart": "trial",
            "trialNumber": 14,
            "roleCurrent": "receiver",
            "marblesSampled": 100,
            "probRed": 0.5,
            "practiceLambda": 5,
            "trialLambda": 21.9,
            "instructedLambda": "dishonest_big",
            "sd": 8.1,
            "drawnRed": 23,
            "reportedRed": 47,
            "inferredRed": 37,
            "playerTrialScore": -14,
            "oppTrialScore": 14,
            "playerTotalScore": -165,
            "oppTotalScore": 157,
            "waitTime": 5901.527991699647,
            "responseTime": 1682323970394,
            "catchQuestion": "How many <b class=\"r\">red<\/b> marbles did your opponent report drawing? ",
            "catchKey": -1,
            "catchResponse": -1,
            "catchTime": 1682323923144,
            "trialTime": 0
        },
        {
            "exptPart": "trial",
            "trialNumber": 15,
            "roleCurrent": "receiver",
            "marblesSampled": 100,
            "probRed": 0.5,
            "practiceLambda": 5,
            "trialLambda": 21.9,
            "instructedLambda": "dishonest_big",
            "sd": 8.1,
            "drawnRed": 34,
            "reportedRed": 45,
            "inferredRed": 35,
            "playerTrialScore": -1,
            "oppTrialScore": 1,
            "playerTotalScore": -166,
            "oppTotalScore": 158,
            "waitTime": 6018.813593107934,
            "responseTime": 1682323980226,
            "catchQuestion": "How many <b class=\"r\">red<\/b> marbles did your opponent report drawing? ",
            "catchKey": 45,
            "catchResponse": 45,
            "catchTime": 1682323980226,
            "trialTime": 0
        },
        {
            "exptPart": "trial",
            "trialNumber": 16,
            "roleCurrent": "receiver",
            "marblesSampled": 100,
            "probRed": 0.5,
            "practiceLambda": 5,
            "trialLambda": 21.9,
            "instructedLambda": "dishonest_big",
            "sd": 8.1,
            "drawnRed": 42,
            "reportedRed": 64,
            "inferredRed": 54,
            "playerTrialScore": -12,
            "oppTrialScore": 12,
            "playerTotalScore": -178,
            "oppTotalScore": 170,
            "waitTime": 5609.6463530825795,
            "responseTime": 1682323996777,
            "catchQuestion": "How many <b class=\"r\">red<\/b> marbles did your opponent report drawing? ",
            "catchKey": -1,
            "catchResponse": -1,
            "catchTime": 1682323980226,
            "trialTime": 0
        },
        {
            "exptPart": "trial",
            "trialNumber": 17,
            "roleCurrent": "receiver",
            "marblesSampled": 100,
            "probRed": 0.5,
            "practiceLambda": 5,
            "trialLambda": 21.9,
            "instructedLambda": "dishonest_big",
            "sd": 8.1,
            "drawnRed": 33,
            "reportedRed": 52,
            "inferredRed": 42,
            "playerTrialScore": -9,
            "oppTrialScore": 9,
            "playerTotalScore": -187,
            "oppTotalScore": 179,
            "waitTime": 5466.189173751713,
            "responseTime": 1682324005895,
            "catchQuestion": "How many <b class=\"r\">red<\/b> marbles did your opponent report drawing? ",
            "catchKey": -1,
            "catchResponse": -1,
            "catchTime": 1682323980226,
            "trialTime": 0
        },
        {
            "exptPart": "trial",
            "trialNumber": 18,
            "roleCurrent": "receiver",
            "marblesSampled": 100,
            "probRed": 0.5,
            "practiceLambda": 5,
            "trialLambda": 21.9,
            "instructedLambda": "dishonest_big",
            "sd": 8.1,
            "drawnRed": 47,
            "reportedRed": 79,
            "inferredRed": 69,
            "playerTrialScore": -22,
            "oppTrialScore": 22,
            "playerTotalScore": -209,
            "oppTotalScore": 201,
            "waitTime": 6842.916166167725,
            "responseTime": 1682324017127,
            "catchQuestion": "How many <b class=\"r\">red<\/b> marbles did your opponent report drawing? ",
            "catchKey": -1,
            "catchResponse": -1,
            "catchTime": 1682323980226,
            "trialTime": 0
        },
        {
            "exptPart": "trial",
            "trialNumber": 19,
            "roleCurrent": "receiver",
            "marblesSampled": 100,
            "probRed": 0.5,
            "practiceLambda": 5,
            "trialLambda": 21.9,
            "instructedLambda": "dishonest_big",
            "sd": 8.1,
            "drawnRed": 45,
            "reportedRed": 70,
            "inferredRed": 60,
            "playerTrialScore": -15,
            "oppTrialScore": 15,
            "playerTotalScore": -224,
            "oppTotalScore": 216,
            "waitTime": 6939.272179807543,
            "responseTime": 1682324027077,
            "catchQuestion": "How many <b class=\"r\">red<\/b> marbles did your opponent report drawing? ",
            "catchKey": -1,
            "catchResponse": -1,
            "catchTime": 1682323980226,
            "trialTime": 0
        },
        {
            "exptPart": "trial",
            "trialNumber": 20,
            "roleCurrent": "receiver",
            "marblesSampled": 100,
            "probRed": 0.5,
            "practiceLambda": 5,
            "trialLambda": 21.9,
            "instructedLambda": "dishonest_big",
            "sd": 8.1,
            "drawnRed": 47,
            "reportedRed": 69,
            "inferredRed": 59,
            "playerTrialScore": -12,
            "oppTrialScore": 12,
            "playerTotalScore": -236,
            "oppTotalScore": 228,
            "waitTime": 7305.115636622469,
            "responseTime": 1682324037559,
            "catchQuestion": "How many <b class=\"r\">red<\/b> marbles did your opponent report drawing? ",
            "catchKey": -1,
            "catchResponse": -1,
            "catchTime": 1682324037559,
            "trialTime": 0
        },
        {
            "exptPart": "trial",
            "trialNumber": 21,
            "roleCurrent": "receiver",
            "marblesSampled": 100,
            "probRed": 0.5,
            "practiceLambda": 5,
            "trialLambda": 21.9,
            "instructedLambda": "dishonest_big",
            "sd": 8.1,
            "drawnRed": 66,
            "reportedRed": 79,
            "inferredRed": 69,
            "playerTrialScore": -3,
            "oppTrialScore": 3,
            "playerTotalScore": -239,
            "oppTotalScore": 231,
            "waitTime": 6063.817281444997,
            "responseTime": 1682324048659,
            "catchQuestion": "How many <b class=\"r\">red<\/b> marbles did your opponent report drawing? ",
            "catchKey": 79,
            "catchResponse": 79,
            "catchTime": 1682324048659,
            "trialTime": 0
        },
        {
            "exptPart": "trial",
            "trialNumber": 22,
            "roleCurrent": "receiver",
            "marblesSampled": 100,
            "probRed": 0.5,
            "practiceLambda": 5,
            "trialLambda": 21.9,
            "instructedLambda": "dishonest_big",
            "sd": 8.1,
            "drawnRed": 51,
            "reportedRed": 63,
            "inferredRed": 53,
            "playerTrialScore": -2,
            "oppTrialScore": 2,
            "playerTotalScore": -241,
            "oppTotalScore": 233,
            "waitTime": 5400.91722097222,
            "responseTime": 1682324063111,
            "catchQuestion": "How many <b class=\"r\">red<\/b> marbles did your opponent report drawing? ",
            "catchKey": -1,
            "catchResponse": -1,
            "catchTime": 1682324048659,
            "trialTime": 0
        },
        {
            "exptPart": "trial",
            "trialNumber": 23,
            "roleCurrent": "receiver",
            "marblesSampled": 100,
            "probRed": 0.5,
            "practiceLambda": 5,
            "trialLambda": 21.9,
            "instructedLambda": "dishonest_big",
            "sd": 8.1,
            "drawnRed": 49,
            "reportedRed": 70,
            "inferredRed": 60,
            "playerTrialScore": -11,
            "oppTrialScore": 11,
            "playerTotalScore": -252,
            "oppTotalScore": 244,
            "waitTime": 7002.592273062912,
            "responseTime": 1682324073393,
            "catchQuestion": "How many <b class=\"r\">red<\/b> marbles did your opponent report drawing? ",
            "catchKey": -1,
            "catchResponse": -1,
            "catchTime": 1682324048659,
            "trialTime": 0
        },
        {
            "exptPart": "trial",
            "trialNumber": 24,
            "roleCurrent": "receiver",
            "marblesSampled": 100,
            "probRed": 0.5,
            "practiceLambda": 5,
            "trialLambda": 21.9,
            "instructedLambda": "dishonest_big",
            "sd": 8.1,
            "drawnRed": 70,
            "reportedRed": 97,
            "inferredRed": 87,
            "playerTrialScore": -17,
            "oppTrialScore": 17,
            "playerTotalScore": -269,
            "oppTotalScore": 261,
            "waitTime": 5551.47983202224,
            "responseTime": 1682324083443,
            "catchQuestion": "How many <b class=\"r\">red<\/b> marbles did your opponent report drawing? ",
            "catchKey": -1,
            "catchResponse": -1,
            "catchTime": 1682324048659,
            "trialTime": 0
        },
        {
            "exptPart": "trial",
            "trialNumber": 25,
            "roleCurrent": "receiver",
            "marblesSampled": 100,
            "probRed": 0.5,
            "practiceLambda": 5,
            "trialLambda": 21.9,
            "instructedLambda": "dishonest_big",
            "sd": 8.1,
            "drawnRed": 58,
            "reportedRed": 75,
            "inferredRed": 65,
            "playerTrialScore": -7,
            "oppTrialScore": 7,
            "playerTotalScore": -276,
            "oppTotalScore": 268,
            "waitTime": 6542.449816865001,
            "responseTime": 1682324093395,
            "catchQuestion": "How many <b class=\"r\">red<\/b> marbles did your opponent report drawing? ",
            "catchKey": -1,
            "catchResponse": -1,
            "catchTime": 1682324048659,
            "trialTime": 0
        },
        {
            "exptPart": "trial",
            "trialNumber": 26,
            "roleCurrent": "receiver",
            "marblesSampled": 100,
            "probRed": 0.5,
            "practiceLambda": 5,
            "trialLambda": 21.9,
            "instructedLambda": "dishonest_big",
            "sd": 8.1,
            "drawnRed": 35,
            "reportedRed": 64,
            "inferredRed": 54,
            "playerTrialScore": -19,
            "oppTrialScore": 19,
            "playerTotalScore": -295,
            "oppTotalScore": 287,
            "waitTime": 5520.041367543414,
            "responseTime": 1682324103192,
            "catchQuestion": "How many <b class=\"r\">red<\/b> marbles did your opponent report drawing? ",
            "catchKey": -1,
            "catchResponse": -1,
            "catchTime": 1682324048659,
            "trialTime": 0
        },
        {
            "exptPart": "trial",
            "trialNumber": 27,
            "roleCurrent": "receiver",
            "marblesSampled": 100,
            "probRed": 0.5,
            "practiceLambda": 5,
            "trialLambda": 21.9,
            "instructedLambda": "dishonest_big",
            "sd": 8.1,
            "drawnRed": 30,
            "reportedRed": 48,
            "inferredRed": 38,
            "playerTrialScore": -8,
            "oppTrialScore": 8,
            "playerTotalScore": -303,
            "oppTotalScore": 295,
            "waitTime": 5235.314730953092,
            "responseTime": 1682324111777,
            "catchQuestion": "How many <b class=\"r\">red<\/b> marbles did your opponent report drawing? ",
            "catchKey": -1,
            "catchResponse": -1,
            "catchTime": 1682324048659,
            "trialTime": 0
        },
        {
            "exptPart": "trial",
            "trialNumber": 28,
            "roleCurrent": "receiver",
            "marblesSampled": 100,
            "probRed": 0.5,
            "practiceLambda": 5,
            "trialLambda": 21.9,
            "instructedLambda": "dishonest_big",
            "sd": 8.1,
            "drawnRed": 45,
            "reportedRed": 65,
            "inferredRed": 55,
            "playerTrialScore": -10,
            "oppTrialScore": 10,
            "playerTotalScore": -313,
            "oppTotalScore": 305,
            "waitTime": 6682.364695062108,
            "responseTime": 1682324125993,
            "catchQuestion": "How many <b class=\"r\">red<\/b> marbles did your opponent report drawing? ",
            "catchKey": -1,
            "catchResponse": -1,
            "catchTime": 1682324048659,
            "trialTime": 0
        },
        {
            "exptPart": "trial",
            "trialNumber": 29,
            "roleCurrent": "receiver",
            "marblesSampled": 100,
            "probRed": 0.5,
            "practiceLambda": 5,
            "trialLambda": 21.9,
            "instructedLambda": "dishonest_big",
            "sd": 8.1,
            "drawnRed": 71,
            "reportedRed": 86,
            "inferredRed": 76,
            "playerTrialScore": -5,
            "oppTrialScore": 5,
            "playerTotalScore": -318,
            "oppTotalScore": 310,
            "waitTime": 5375.159503160192,
            "responseTime": 1682324135710,
            "catchQuestion": "How many <b class=\"r\">red<\/b> marbles did your opponent report drawing? ",
            "catchKey": -1,
            "catchResponse": -1,
            "catchTime": 1682324048659,
            "trialTime": 0
        },
        {
            "exptPart": "trial",
            "trialNumber": 30,
            "roleCurrent": "receiver",
            "marblesSampled": 100,
            "probRed": 0.5,
            "practiceLambda": 5,
            "trialLambda": 21.9,
            "instructedLambda": "dishonest_big",
            "sd": 8.1,
            "drawnRed": 78,
            "reportedRed": 82,
            "inferredRed": 72,
            "playerTrialScore": -6,
            "oppTrialScore": 0,
            "playerTotalScore": -324,
            "oppTotalScore": 310,
            "waitTime": 5544.076115020749,
            "responseTime": 1682324145261,
            "catchQuestion": "How many <b class=\"r\">red<\/b> marbles did your opponent report drawing? ",
            "catchKey": 82,
            "catchResponse": 82,
            "catchTime": 1682324145261,
            "trialTime": 0
        },
        {
            "exptPart": "trial",
            "trialNumber": 31,
            "roleCurrent": "receiver",
            "marblesSampled": 100,
            "probRed": 0.5,
            "practiceLambda": 5,
            "trialLambda": 21.9,
            "instructedLambda": "dishonest_big",
            "sd": 8.1,
            "drawnRed": 65,
            "reportedRed": 81,
            "inferredRed": 71,
            "playerTrialScore": -6,
            "oppTrialScore": 6,
            "playerTotalScore": -330,
            "oppTotalScore": 316,
            "waitTime": 5222.493357981645,
            "responseTime": 1682324169960,
            "catchQuestion": "How many <b class=\"r\">red<\/b> marbles did your opponent report drawing? ",
            "catchKey": 81,
            "catchResponse": 81,
            "catchTime": 1682324169961,
            "trialTime": 0
        },
        {
            "exptPart": "trial",
            "trialNumber": 32,
            "roleCurrent": "receiver",
            "marblesSampled": 100,
            "probRed": 0.5,
            "practiceLambda": 5,
            "trialLambda": 21.9,
            "instructedLambda": "dishonest_big",
            "sd": 8.1,
            "drawnRed": 64,
            "reportedRed": 91,
            "inferredRed": 81,
            "playerTrialScore": -17,
            "oppTrialScore": 17,
            "playerTotalScore": -347,
            "oppTotalScore": 333,
            "waitTime": 5443.157588319336,
            "responseTime": 1682324184594,
            "catchQuestion": "How many <b class=\"r\">red<\/b> marbles did your opponent report drawing? ",
            "catchKey": -1,
            "catchResponse": -1,
            "catchTime": 1682324169961,
            "trialTime": 0
        },
        {
            "exptPart": "trial",
            "trialNumber": 33,
            "roleCurrent": "receiver",
            "marblesSampled": 100,
            "probRed": 0.5,
            "practiceLambda": 5,
            "trialLambda": 21.9,
            "instructedLambda": "dishonest_big",
            "sd": 8.1,
            "drawnRed": 16,
            "reportedRed": 29,
            "inferredRed": 19,
            "playerTrialScore": -3,
            "oppTrialScore": 3,
            "playerTotalScore": -350,
            "oppTotalScore": 336,
            "waitTime": 6115.417693547039,
            "responseTime": 1682324195043,
            "catchQuestion": "How many <b class=\"r\">red<\/b> marbles did your opponent report drawing? ",
            "catchKey": -1,
            "catchResponse": -1,
            "catchTime": 1682324169961,
            "trialTime": 0
        },
        {
            "exptPart": "trial",
            "trialNumber": 34,
            "roleCurrent": "receiver",
            "marblesSampled": 100,
            "probRed": 0.5,
            "practiceLambda": 5,
            "trialLambda": 21.9,
            "instructedLambda": "dishonest_big",
            "sd": 8.1,
            "drawnRed": 71,
            "reportedRed": 100,
            "inferredRed": 50,
            "playerTrialScore": -21,
            "oppTrialScore": 0,
            "playerTotalScore": -371,
            "oppTotalScore": 336,
            "waitTime": 7086.777883975234,
            "responseTime": 1682324214560,
            "catchQuestion": "How many <b class=\"r\">red<\/b> marbles did your opponent report drawing? ",
            "catchKey": -1,
            "catchResponse": -1,
            "catchTime": 1682324169961,
            "trialTime": 0
        },
        {
            "exptPart": "trial",
            "trialNumber": 35,
            "roleCurrent": "receiver",
            "marblesSampled": 100,
            "probRed": 0.5,
            "practiceLambda": 5,
            "trialLambda": 21.9,
            "instructedLambda": "dishonest_big",
            "sd": 8.1,
            "drawnRed": 52,
            "reportedRed": 74,
            "inferredRed": 64,
            "playerTrialScore": -12,
            "oppTrialScore": 12,
            "playerTotalScore": -383,
            "oppTotalScore": 348,
            "waitTime": 6932.00347512949,
            "responseTime": 1682324226860,
            "catchQuestion": "How many <b class=\"r\">red<\/b> marbles did your opponent report drawing? ",
            "catchKey": -1,
            "catchResponse": -1,
            "catchTime": 1682324169961,
            "trialTime": 0
        },
        {
            "exptPart": "trial",
            "trialNumber": 36,
            "roleCurrent": "receiver",
            "marblesSampled": 100,
            "probRed": 0.5,
            "practiceLambda": 5,
            "trialLambda": 21.9,
            "instructedLambda": "dishonest_big",
            "sd": 8.1,
            "drawnRed": 18,
            "reportedRed": 33,
            "inferredRed": 23,
            "playerTrialScore": -5,
            "oppTrialScore": 5,
            "playerTotalScore": -388,
            "oppTotalScore": 353,
            "waitTime": 6740.53754702865,
            "responseTime": 1682324238275,
            "catchQuestion": "How many <b class=\"r\">red<\/b> marbles did your opponent report drawing? ",
            "catchKey": -1,
            "catchResponse": -1,
            "catchTime": 1682324169961,
            "trialTime": 0
        },
        {
            "exptPart": "trial",
            "trialNumber": 37,
            "roleCurrent": "receiver",
            "marblesSampled": 100,
            "probRed": 0.5,
            "practiceLambda": 5,
            "trialLambda": 21.9,
            "instructedLambda": "dishonest_big",
            "sd": 8.1,
            "drawnRed": 14,
            "reportedRed": 45,
            "inferredRed": 35,
            "playerTrialScore": -21,
            "oppTrialScore": 21,
            "playerTotalScore": -409,
            "oppTotalScore": 374,
            "waitTime": 6857.470330385044,
            "responseTime": 1682324249527,
            "catchQuestion": "How many <b class=\"r\">red<\/b> marbles did your opponent report drawing? ",
            "catchKey": -1,
            "catchResponse": -1,
            "catchTime": 1682324169961,
            "trialTime": 0
        },
        {
            "exptPart": "trial",
            "trialNumber": 38,
            "roleCurrent": "receiver",
            "marblesSampled": 100,
            "probRed": 0.5,
            "practiceLambda": 5,
            "trialLambda": 21.9,
            "instructedLambda": "dishonest_big",
            "sd": 8.1,
            "drawnRed": 50,
            "reportedRed": 77,
            "inferredRed": 67,
            "playerTrialScore": -17,
            "oppTrialScore": 17,
            "playerTotalScore": -426,
            "oppTotalScore": 391,
            "waitTime": 6387.945706135362,
            "responseTime": 1682324259710,
            "catchQuestion": "How many <b class=\"r\">red<\/b> marbles did your opponent report drawing? ",
            "catchKey": -1,
            "catchResponse": -1,
            "catchTime": 1682324169961,
            "trialTime": 0
        },
        {
            "exptPart": "trial",
            "trialNumber": 39,
            "roleCurrent": "receiver",
            "marblesSampled": 100,
            "probRed": 0.5,
            "practiceLambda": 5,
            "trialLambda": 21.9,
            "instructedLambda": "dishonest_big",
            "sd": 8.1,
            "drawnRed": 64,
            "reportedRed": 94,
            "inferredRed": 84,
            "playerTrialScore": -20,
            "oppTrialScore": 20,
            "playerTotalScore": -446,
            "oppTotalScore": 411,
            "waitTime": 6352.51194664763,
            "responseTime": 1682324269910,
            "catchQuestion": "How many <b class=\"r\">red<\/b> marbles did your opponent report drawing? ",
            "catchKey": 94,
            "catchResponse": 94,
            "catchTime": 1682324269910,
            "trialTime": 0
        },
        {
            "exptPart": "trial",
            "trialNumber": 40,
            "roleCurrent": "receiver",
            "marblesSampled": 100,
            "probRed": 0.5,
            "practiceLambda": 5,
            "trialLambda": 21.9,
            "instructedLambda": "dishonest_big",
            "sd": 8.1,
            "drawnRed": 41,
            "reportedRed": 77,
            "inferredRed": 67,
            "playerTrialScore": -26,
            "oppTrialScore": 26,
            "playerTotalScore": -472,
            "oppTotalScore": 437,
            "waitTime": 6735.5265106705065,
            "responseTime": 1682324289193,
            "catchQuestion": "How many <b class=\"r\">red<\/b> marbles did your opponent report drawing? ",
            "catchKey": -1,
            "catchResponse": -1,
            "catchTime": 1682324289193,
            "trialTime": 0
        },
        {
            "exptPart": "trial",
            "trialNumber": 41,
            "roleCurrent": "receiver",
            "marblesSampled": 100,
            "probRed": 0.5,
            "practiceLambda": 5,
            "trialLambda": 21.9,
            "instructedLambda": "dishonest_big",
            "sd": 8.1,
            "drawnRed": 46,
            "reportedRed": 79,
            "inferredRed": 69,
            "playerTrialScore": -23,
            "oppTrialScore": 23,
            "playerTotalScore": -495,
            "oppTotalScore": 460,
            "waitTime": 7380.220527521007,
            "responseTime": 1682324304027,
            "catchQuestion": "How many <b class=\"r\">red<\/b> marbles did your opponent report drawing? ",
            "catchKey": -1,
            "catchResponse": -1,
            "catchTime": 1682324289193,
            "trialTime": 0
        },
        {
            "exptPart": "trial",
            "trialNumber": 42,
            "roleCurrent": "receiver",
            "marblesSampled": 100,
            "probRed": 0.5,
            "practiceLambda": 5,
            "trialLambda": 21.9,
            "instructedLambda": "dishonest_big",
            "sd": 8.1,
            "drawnRed": 61,
            "reportedRed": 83,
            "inferredRed": 50,
            "playerTrialScore": -11,
            "oppTrialScore": 0,
            "playerTotalScore": -506,
            "oppTotalScore": 460,
            "waitTime": 5729.569494505035,
            "responseTime": 1682324323677,
            "catchQuestion": "How many <b class=\"r\">red<\/b> marbles did your opponent report drawing? ",
            "catchKey": -1,
            "catchResponse": -1,
            "catchTime": 1682324289193,
            "trialTime": 0
        },
        {
            "exptPart": "trial",
            "trialNumber": 43,
            "roleCurrent": "receiver",
            "marblesSampled": 100,
            "probRed": 0.5,
            "practiceLambda": 5,
            "trialLambda": 21.9,
            "instructedLambda": "dishonest_big",
            "sd": 8.1,
            "drawnRed": 47,
            "reportedRed": 62,
            "inferredRed": 40,
            "playerTrialScore": -7,
            "oppTrialScore": 0,
            "playerTotalScore": -513,
            "oppTotalScore": 460,
            "waitTime": 6446.462847227655,
            "responseTime": 1682324334894,
            "catchQuestion": "How many <b class=\"r\">red<\/b> marbles did your opponent report drawing? ",
            "catchKey": -1,
            "catchResponse": -1,
            "catchTime": 1682324289193,
            "trialTime": 0
        },
        {
            "exptPart": "trial",
            "trialNumber": 44,
            "roleCurrent": "receiver",
            "marblesSampled": 100,
            "probRed": 0.5,
            "practiceLambda": 5,
            "trialLambda": 21.9,
            "instructedLambda": "dishonest_big",
            "sd": 8.1,
            "drawnRed": 74,
            "reportedRed": 87,
            "inferredRed": 47,
            "playerTrialScore": -27,
            "oppTrialScore": 0,
            "playerTotalScore": -540,
            "oppTotalScore": 460,
            "waitTime": 5234.39594199334,
            "responseTime": 1682324344159,
            "catchQuestion": "How many <b class=\"r\">red<\/b> marbles did your opponent report drawing? ",
            "catchKey": -1,
            "catchResponse": -1,
            "catchTime": 1682324289193,
            "trialTime": 0
        },
        {
            "exptPart": "trial",
            "trialNumber": 45,
            "roleCurrent": "receiver",
            "marblesSampled": 100,
            "probRed": 0.5,
            "practiceLambda": 5,
            "trialLambda": 21.9,
            "instructedLambda": "dishonest_big",
            "sd": 8.1,
            "drawnRed": 39,
            "reportedRed": 64,
            "inferredRed": 44,
            "playerTrialScore": -5,
            "oppTrialScore": 5,
            "playerTotalScore": -545,
            "oppTotalScore": 465,
            "waitTime": 6674.329767956809,
            "responseTime": 1682324355110,
            "catchQuestion": "How many <b class=\"r\">red<\/b> marbles did your opponent report drawing? ",
            "catchKey": -1,
            "catchResponse": -1,
            "catchTime": 1682324289193,
            "trialTime": 0
        },
        {
            "exptPart": "trial",
            "trialNumber": 46,
            "roleCurrent": "receiver",
            "marblesSampled": 100,
            "probRed": 0.5,
            "practiceLambda": 5,
            "trialLambda": 21.9,
            "instructedLambda": "dishonest_big",
            "sd": 8.1,
            "drawnRed": 48,
            "reportedRed": 82,
            "inferredRed": 42,
            "playerTrialScore": -6,
            "oppTrialScore": 0,
            "playerTotalScore": -551,
            "oppTotalScore": 465,
            "waitTime": 5905.518425171524,
            "responseTime": 1682324365644,
            "catchQuestion": "How many <b class=\"r\">red<\/b> marbles did your opponent report drawing? ",
            "catchKey": -1,
            "catchResponse": -1,
            "catchTime": 1682324289193,
            "trialTime": 0
        },
        {
            "exptPart": "trial",
            "trialNumber": 47,
            "roleCurrent": "receiver",
            "marblesSampled": 100,
            "probRed": 0.5,
            "practiceLambda": 5,
            "trialLambda": 21.9,
            "instructedLambda": "dishonest_big",
            "sd": 8.1,
            "drawnRed": 68,
            "reportedRed": 91,
            "inferredRed": 41,
            "playerTrialScore": -27,
            "oppTrialScore": 0,
            "playerTotalScore": -578,
            "oppTotalScore": 465,
            "waitTime": 7432.5555349521555,
            "responseTime": 1682324376894,
            "catchQuestion": "How many <b class=\"r\">red<\/b> marbles did your opponent report drawing? ",
            "catchKey": -1,
            "catchResponse": -1,
            "catchTime": 1682324289193,
            "trialTime": 0
        },
        {
            "exptPart": "trial",
            "trialNumber": 48,
            "roleCurrent": "receiver",
            "marblesSampled": 100,
            "probRed": 0.5,
            "practiceLambda": 5,
            "trialLambda": 21.9,
            "instructedLambda": "dishonest_big",
            "sd": 8.1,
            "drawnRed": 80,
            "reportedRed": 100,
            "inferredRed": 50,
            "playerTrialScore": -30,
            "oppTrialScore": 0,
            "playerTotalScore": -608,
            "oppTotalScore": 465,
            "waitTime": 6725.540500265324,
            "responseTime": 1682324386843,
            "catchQuestion": "How many <b class=\"r\">red<\/b> marbles did your opponent report drawing? ",
            "catchKey": -1,
            "catchResponse": -1,
            "catchTime": 1682324289193,
            "trialTime": 0
        },
        {
            "exptPart": "trial",
            "trialNumber": 49,
            "roleCurrent": "receiver",
            "marblesSampled": 100,
            "probRed": 0.5,
            "practiceLambda": 5,
            "trialLambda": 21.9,
            "instructedLambda": "dishonest_big",
            "sd": 8.1,
            "drawnRed": 28,
            "reportedRed": 55,
            "inferredRed": 50,
            "playerTrialScore": -22,
            "oppTrialScore": 22,
            "playerTotalScore": -630,
            "oppTotalScore": 487,
            "waitTime": 5201.647567135917,
            "responseTime": 1682324396011,
            "catchQuestion": "How many <b class=\"r\">red<\/b> marbles did your opponent report drawing? ",
            "catchKey": -1,
            "catchResponse": -1,
            "catchTime": 1682324289193,
            "trialTime": 0
        },
        {
            "exptPart": "trial",
            "trialNumber": 50,
            "roleCurrent": "receiver",
            "marblesSampled": 100,
            "probRed": 0.5,
            "practiceLambda": 5,
            "trialLambda": 21.9,
            "instructedLambda": "dishonest_big",
            "sd": 8.1,
            "drawnRed": 45,
            "reportedRed": 68,
            "inferredRed": 48,
            "playerTrialScore": -3,
            "oppTrialScore": 3,
            "playerTotalScore": -633,
            "oppTotalScore": 490,
            "waitTime": 6483.919306032749,
            "responseTime": 1682324406109,
            "catchQuestion": "How many <b class=\"r\">red<\/b> marbles did your opponent report drawing? ",
            "catchKey": -1,
            "catchResponse": -1,
            "catchTime": 1682324406110,
            "trialTime": 0
        },
        {
            "exptPart": "trial",
            "trialNumber": 51,
            "roleCurrent": "receiver",
            "marblesSampled": 100,
            "probRed": 0.5,
            "practiceLambda": 5,
            "trialLambda": 21.9,
            "instructedLambda": "dishonest_big",
            "sd": 8.1,
            "drawnRed": 79,
            "reportedRed": 98,
            "inferredRed": 88,
            "playerTrialScore": -9,
            "oppTrialScore": 9,
            "playerTotalScore": -642,
            "oppTotalScore": 499,
            "waitTime": 6319.8539737721885,
            "responseTime": 1682324418877,
            "catchQuestion": "How many <b class=\"r\">red<\/b> marbles did your opponent report drawing? ",
            "catchKey": -1,
            "catchResponse": -1,
            "catchTime": 1682324406110,
            "trialTime": 0
        },
        {
            "exptPart": "trial",
            "trialNumber": 52,
            "roleCurrent": "receiver",
            "marblesSampled": 100,
            "probRed": 0.5,
            "practiceLambda": 5,
            "trialLambda": 21.9,
            "instructedLambda": "dishonest_big",
            "sd": 8.1,
            "drawnRed": 51,
            "reportedRed": 69,
            "inferredRed": 59,
            "playerTrialScore": -8,
            "oppTrialScore": 8,
            "playerTotalScore": -650,
            "oppTotalScore": 507,
            "waitTime": 6381.608863602921,
            "responseTime": 1682324431677,
            "catchQuestion": "How many <b class=\"r\">red<\/b> marbles did your opponent report drawing? ",
            "catchKey": -1,
            "catchResponse": -1,
            "catchTime": 1682324406110,
            "trialTime": 0
        },
        {
            "exptPart": "trial",
            "trialNumber": 53,
            "roleCurrent": "receiver",
            "marblesSampled": 100,
            "probRed": 0.5,
            "practiceLambda": 5,
            "trialLambda": 21.9,
            "instructedLambda": "dishonest_big",
            "sd": 8.1,
            "drawnRed": 46,
            "reportedRed": 60,
            "inferredRed": 50,
            "playerTrialScore": -4,
            "oppTrialScore": 4,
            "playerTotalScore": -654,
            "oppTotalScore": 511,
            "waitTime": 5474.2629352726435,
            "responseTime": 1682324440843,
            "catchQuestion": "How many <b class=\"r\">red<\/b> marbles did your opponent report drawing? ",
            "catchKey": -1,
            "catchResponse": -1,
            "catchTime": 1682324406110,
            "trialTime": 0
        },
        {
            "exptPart": "trial",
            "trialNumber": 54,
            "roleCurrent": "receiver",
            "marblesSampled": 100,
            "probRed": 0.5,
            "practiceLambda": 5,
            "trialLambda": 21.9,
            "instructedLambda": "dishonest_big",
            "sd": 8.1,
            "drawnRed": 38,
            "reportedRed": 71,
            "inferredRed": 61,
            "playerTrialScore": -23,
            "oppTrialScore": 23,
            "playerTotalScore": -677,
            "oppTotalScore": 534,
            "waitTime": 7201.825294498908,
            "responseTime": 1682324451293,
            "catchQuestion": "How many <b class=\"r\">red<\/b> marbles did your opponent report drawing? ",
            "catchKey": -1,
            "catchResponse": -1,
            "catchTime": 1682324406110,
            "trialTime": 0
        },
        {
            "exptPart": "trial",
            "trialNumber": 55,
            "roleCurrent": "receiver",
            "marblesSampled": 100,
            "probRed": 0.5,
            "practiceLambda": 5,
            "trialLambda": 21.9,
            "instructedLambda": "dishonest_big",
            "sd": 8.1,
            "drawnRed": 19,
            "reportedRed": 36,
            "inferredRed": 26,
            "playerTrialScore": -7,
            "oppTrialScore": 7,
            "playerTotalScore": -684,
            "oppTotalScore": 541,
            "waitTime": 6454.423539651252,
            "responseTime": 1682324461476,
            "catchQuestion": "How many <b class=\"r\">red<\/b> marbles did your opponent report drawing? ",
            "catchKey": -1,
            "catchResponse": -1,
            "catchTime": 1682324406110,
            "trialTime": 0
        },
        {
            "exptPart": "trial",
            "trialNumber": 56,
            "roleCurrent": "receiver",
            "marblesSampled": 100,
            "probRed": 0.5,
            "practiceLambda": 5,
            "trialLambda": 21.9,
            "instructedLambda": "dishonest_big",
            "sd": 8.1,
            "drawnRed": 53,
            "reportedRed": 70,
            "inferredRed": 60,
            "playerTrialScore": -7,
            "oppTrialScore": 7,
            "playerTotalScore": -691,
            "oppTotalScore": 548,
            "waitTime": 6803.793129647014,
            "responseTime": 1682324471192,
            "catchQuestion": "How many <b class=\"r\">red<\/b> marbles did your opponent report drawing? ",
            "catchKey": -1,
            "catchResponse": -1,
            "catchTime": 1682324406110,
            "trialTime": 0
        },
        {
            "exptPart": "trial",
            "trialNumber": 57,
            "roleCurrent": "receiver",
            "marblesSampled": 100,
            "probRed": 0.5,
            "practiceLambda": 5,
            "trialLambda": 21.9,
            "instructedLambda": "dishonest_big",
            "sd": 8.1,
            "drawnRed": 37,
            "reportedRed": 59,
            "inferredRed": 49,
            "playerTrialScore": -12,
            "oppTrialScore": 12,
            "playerTotalScore": -703,
            "oppTotalScore": 560,
            "waitTime": 5595.885972538117,
            "responseTime": 1682324482710,
            "catchQuestion": "How many <b class=\"r\">red<\/b> marbles did your opponent report drawing? ",
            "catchKey": -1,
            "catchResponse": -1,
            "catchTime": 1682324406110,
            "trialTime": 0
        },
        {
            "exptPart": "trial",
            "trialNumber": 58,
            "roleCurrent": "receiver",
            "marblesSampled": 100,
            "probRed": 0.5,
            "practiceLambda": 5,
            "trialLambda": 21.9,
            "instructedLambda": "dishonest_big",
            "sd": 8.1,
            "drawnRed": 36,
            "reportedRed": 55,
            "inferredRed": 45,
            "playerTrialScore": -9,
            "oppTrialScore": 9,
            "playerTotalScore": -712,
            "oppTotalScore": 569,
            "waitTime": 6207.006043659547,
            "responseTime": 1682324491961,
            "catchQuestion": "How many <b class=\"r\">red<\/b> marbles did your opponent report drawing? ",
            "catchKey": -1,
            "catchResponse": -1,
            "catchTime": 1682324406110,
            "trialTime": 0
        },
        {
            "exptPart": "trial",
            "trialNumber": 59,
            "roleCurrent": "receiver",
            "marblesSampled": 100,
            "probRed": 0.5,
            "practiceLambda": 5,
            "trialLambda": 21.9,
            "instructedLambda": "dishonest_big",
            "sd": 8.1,
            "drawnRed": 95,
            "reportedRed": 100,
            "inferredRed": 90,
            "playerTrialScore": -5,
            "oppTrialScore": 0,
            "playerTotalScore": -717,
            "oppTotalScore": 569,
            "waitTime": 5686.59930781222,
            "responseTime": 1682324500810,
            "catchQuestion": "How many <b class=\"r\">red<\/b> marbles did your opponent report drawing? ",
            "catchKey": -1,
            "catchResponse": -1,
            "catchTime": 1682324406110,
            "trialTime": 0
        },
        {
            "exptPart": "trial",
            "trialNumber": 60,
            "roleCurrent": "receiver",
            "marblesSampled": 100,
            "probRed": 0.5,
            "practiceLambda": 5,
            "trialLambda": 21.9,
            "instructedLambda": "dishonest_big",
            "sd": 8.1,
            "drawnRed": 70,
            "reportedRed": 95,
            "inferredRed": 85,
            "playerTrialScore": -15,
            "oppTrialScore": 15,
            "playerTotalScore": -732,
            "oppTotalScore": 584,
            "waitTime": 5271.228134126446,
            "responseTime": 1682324510161,
            "catchQuestion": "How many <b class=\"r\">red<\/b> marbles did your opponent report drawing? ",
            "catchKey": -1,
            "catchResponse": -1,
            "catchTime": 1682324510161,
            "trialTime": 0
        },
        {
            "exptPart": "trial",
            "trialNumber": 61,
            "roleCurrent": "receiver",
            "marblesSampled": 100,
            "probRed": 0.5,
            "practiceLambda": 5,
            "trialLambda": 21.9,
            "instructedLambda": "dishonest_big",
            "sd": 8.1,
            "drawnRed": 34,
            "reportedRed": 66,
            "inferredRed": 46,
            "playerTrialScore": -12,
            "oppTrialScore": 12,
            "playerTotalScore": -744,
            "oppTotalScore": 596,
            "waitTime": 5249.825086981489,
            "responseTime": 1682324525027,
            "catchQuestion": "How many <b class=\"r\">red<\/b> marbles did your opponent report drawing? ",
            "catchKey": -1,
            "catchResponse": -1,
            "catchTime": 1682324510161,
            "trialTime": 0
        },
        {
            "exptPart": "trial",
            "trialNumber": 62,
            "roleCurrent": "receiver",
            "marblesSampled": 100,
            "probRed": 0.5,
            "practiceLambda": 5,
            "trialLambda": 21.9,
            "instructedLambda": "dishonest_big",
            "sd": 8.1,
            "drawnRed": 65,
            "reportedRed": 65,
            "inferredRed": 45,
            "playerTrialScore": -20,
            "oppTrialScore": 0,
            "playerTotalScore": -764,
            "oppTotalScore": 596,
            "waitTime": 5505.229507697661,
            "responseTime": 1682324534609,
            "catchQuestion": "How many <b class=\"r\">red<\/b> marbles did your opponent report drawing? ",
            "catchKey": -1,
            "catchResponse": -1,
            "catchTime": 1682324510161,
            "trialTime": 0
        },
        {
            "exptPart": "trial",
            "trialNumber": 63,
            "roleCurrent": "receiver",
            "marblesSampled": 100,
            "probRed": 0.5,
            "practiceLambda": 5,
            "trialLambda": 21.9,
            "instructedLambda": "dishonest_big",
            "sd": 8.1,
            "drawnRed": 25,
            "reportedRed": 65,
            "inferredRed": 45,
            "playerTrialScore": -20,
            "oppTrialScore": 20,
            "playerTotalScore": -784,
            "oppTotalScore": 616,
            "waitTime": 6666.896482212262,
            "responseTime": 1682324545759,
            "catchQuestion": "How many <b class=\"r\">red<\/b> marbles did your opponent report drawing? ",
            "catchKey": -1,
            "catchResponse": -1,
            "catchTime": 1682324510161,
            "trialTime": 0
        },
        {
            "exptPart": "trial",
            "trialNumber": 64,
            "roleCurrent": "receiver",
            "marblesSampled": 100,
            "probRed": 0.5,
            "practiceLambda": 5,
            "trialLambda": 21.9,
            "instructedLambda": "dishonest_big",
            "sd": 8.1,
            "drawnRed": 51,
            "reportedRed": 68,
            "inferredRed": 48,
            "playerTrialScore": -3,
            "oppTrialScore": 0,
            "playerTotalScore": -787,
            "oppTotalScore": 616,
            "waitTime": 6959.975987324668,
            "responseTime": 1682324557294,
            "catchQuestion": "How many <b class=\"r\">red<\/b> marbles did your opponent report drawing? ",
            "catchKey": -1,
            "catchResponse": -1,
            "catchTime": 1682324510161,
            "trialTime": 0
        },
        {
            "exptPart": "trial",
            "trialNumber": 65,
            "roleCurrent": "receiver",
            "marblesSampled": 100,
            "probRed": 0.5,
            "practiceLambda": 5,
            "trialLambda": 21.9,
            "instructedLambda": "dishonest_big",
            "sd": 8.1,
            "drawnRed": 53,
            "reportedRed": 66,
            "inferredRed": 56,
            "playerTrialScore": -3,
            "oppTrialScore": 3,
            "playerTotalScore": -790,
            "oppTotalScore": 619,
            "waitTime": 7011.0924859843635,
            "responseTime": 1682324568327,
            "catchQuestion": "How many <b class=\"r\">red<\/b> marbles did your opponent report drawing? ",
            "catchKey": -1,
            "catchResponse": -1,
            "catchTime": 1682324510161,
            "trialTime": 0
        },
        {
            "exptPart": "trial",
            "trialNumber": 66,
            "roleCurrent": "receiver",
            "marblesSampled": 100,
            "probRed": 0.5,
            "practiceLambda": 5,
            "trialLambda": 21.9,
            "instructedLambda": "dishonest_big",
            "sd": 8.1,
            "drawnRed": 22,
            "reportedRed": 52,
            "inferredRed": 46,
            "playerTrialScore": -24,
            "oppTrialScore": 24,
            "playerTotalScore": -814,
            "oppTotalScore": 643,
            "waitTime": 5889.253568662465,
            "responseTime": 1682324580960,
            "catchQuestion": "How many <b class=\"r\">red<\/b> marbles did your opponent report drawing? ",
            "catchKey": -1,
            "catchResponse": -1,
            "catchTime": 1682324510161,
            "trialTime": 0
        },
        {
            "exptPart": "trial",
            "trialNumber": 67,
            "roleCurrent": "receiver",
            "marblesSampled": 100,
            "probRed": 0.5,
            "practiceLambda": 5,
            "trialLambda": 21.9,
            "instructedLambda": "dishonest_big",
            "sd": 8.1,
            "drawnRed": 19,
            "reportedRed": 41,
            "inferredRed": 31,
            "playerTrialScore": -12,
            "oppTrialScore": 12,
            "playerTotalScore": -826,
            "oppTotalScore": 655,
            "waitTime": 7265.947339872759,
            "responseTime": 1682324593676,
            "catchQuestion": "How many <b class=\"r\">red<\/b> marbles did your opponent report drawing? ",
            "catchKey": -1,
            "catchResponse": -1,
            "catchTime": 1682324510161,
            "trialTime": 0
        },
        {
            "exptPart": "trial",
            "trialNumber": 68,
            "roleCurrent": "receiver",
            "marblesSampled": 100,
            "probRed": 0.5,
            "practiceLambda": 5,
            "trialLambda": 21.9,
            "instructedLambda": "dishonest_big",
            "sd": 8.1,
            "drawnRed": 54,
            "reportedRed": 77,
            "inferredRed": 67,
            "playerTrialScore": -13,
            "oppTrialScore": 13,
            "playerTotalScore": -839,
            "oppTotalScore": 668,
            "waitTime": 5600.849943444733,
            "responseTime": 1682324603159,
            "catchQuestion": "How many <b class=\"r\">red<\/b> marbles did your opponent report drawing? ",
            "catchKey": 77,
            "catchResponse": 77,
            "catchTime": 1682324603159,
            "trialTime": 0
        },
        {
            "exptPart": "trial",
            "trialNumber": 69,
            "roleCurrent": "receiver",
            "marblesSampled": 100,
            "probRed": 0.5,
            "practiceLambda": 5,
            "trialLambda": 21.9,
            "instructedLambda": "dishonest_big",
            "sd": 8.1,
            "drawnRed": 62,
            "reportedRed": 78,
            "inferredRed": 48,
            "playerTrialScore": -14,
            "oppTrialScore": 0,
            "playerTotalScore": -853,
            "oppTotalScore": 668,
            "waitTime": 5440.8887971542645,
            "responseTime": 1682324618893,
            "catchQuestion": "How many <b class=\"r\">red<\/b> marbles did your opponent report drawing? ",
            "catchKey": -1,
            "catchResponse": -1,
            "catchTime": 1682324603159,
            "trialTime": 0
        },
        {
            "exptPart": "trial",
            "trialNumber": 70,
            "roleCurrent": "receiver",
            "marblesSampled": 100,
            "probRed": 0.5,
            "practiceLambda": 5,
            "trialLambda": 21.9,
            "instructedLambda": "dishonest_big",
            "sd": 8.1,
            "drawnRed": 25,
            "reportedRed": 43,
            "inferredRed": 34,
            "playerTrialScore": -9,
            "oppTrialScore": 9,
            "playerTotalScore": -862,
            "oppTotalScore": 677,
            "waitTime": 6233.036620316859,
            "responseTime": 1682324629475,
            "catchQuestion": "How many <b class=\"r\">red<\/b> marbles did your opponent report drawing? ",
            "catchKey": -1,
            "catchResponse": -1,
            "catchTime": 1682324629475,
            "trialTime": 0
        },
        {
            "exptPart": "trial",
            "trialNumber": 71,
            "roleCurrent": "receiver",
            "marblesSampled": 100,
            "probRed": 0.5,
            "practiceLambda": 5,
            "trialLambda": 21.9,
            "instructedLambda": "dishonest_big",
            "sd": 8.1,
            "drawnRed": 54,
            "reportedRed": 85,
            "inferredRed": 55,
            "playerTrialScore": -1,
            "oppTrialScore": 1,
            "playerTotalScore": -863,
            "oppTotalScore": 678,
            "waitTime": 7275.288762273404,
            "responseTime": 1682324643260,
            "catchQuestion": "How many <b class=\"r\">red<\/b> marbles did your opponent report drawing? ",
            "catchKey": 85,
            "catchResponse": 85,
            "catchTime": 1682324643260,
            "trialTime": 0
        },
        {
            "exptPart": "trial",
            "trialNumber": 72,
            "roleCurrent": "receiver",
            "marblesSampled": 100,
            "probRed": 0.5,
            "practiceLambda": 5,
            "trialLambda": 21.9,
            "instructedLambda": "dishonest_big",
            "sd": 8.1,
            "drawnRed": 63,
            "reportedRed": 91,
            "inferredRed": 61,
            "playerTrialScore": -2,
            "oppTrialScore": 0,
            "playerTotalScore": -865,
            "oppTotalScore": 678,
            "waitTime": 6129.346345291931,
            "responseTime": 1682324660060,
            "catchQuestion": "How many <b class=\"r\">red<\/b> marbles did your opponent report drawing? ",
            "catchKey": -1,
            "catchResponse": -1,
            "catchTime": 1682324643260,
            "trialTime": 0
        },
        {
            "exptPart": "trial",
            "trialNumber": 73,
            "roleCurrent": "receiver",
            "marblesSampled": 100,
            "probRed": 0.5,
            "practiceLambda": 5,
            "trialLambda": 21.9,
            "instructedLambda": "dishonest_big",
            "sd": 8.1,
            "drawnRed": 35,
            "reportedRed": 48,
            "inferredRed": 38,
            "playerTrialScore": -3,
            "oppTrialScore": 3,
            "playerTotalScore": -868,
            "oppTotalScore": 681,
            "waitTime": 5586.264193369581,
            "responseTime": 1682324670410,
            "catchQuestion": "How many <b class=\"r\">red<\/b> marbles did your opponent report drawing? ",
            "catchKey": -1,
            "catchResponse": -1,
            "catchTime": 1682324643260,
            "trialTime": 0
        },
        {
            "exptPart": "trial",
            "trialNumber": 74,
            "roleCurrent": "receiver",
            "marblesSampled": 100,
            "probRed": 0.5,
            "practiceLambda": 5,
            "trialLambda": 21.9,
            "instructedLambda": "dishonest_big",
            "sd": 8.1,
            "drawnRed": 38,
            "reportedRed": 53,
            "inferredRed": 33,
            "playerTrialScore": -5,
            "oppTrialScore": 0,
            "playerTotalScore": -873,
            "oppTotalScore": 681,
            "waitTime": 6963.902314152065,
            "responseTime": 1682324681377,
            "catchQuestion": "How many <b class=\"r\">red<\/b> marbles did your opponent report drawing? ",
            "catchKey": -1,
            "catchResponse": -1,
            "catchTime": 1682324643260,
            "trialTime": 0
        },
        {
            "exptPart": "trial",
            "trialNumber": 75,
            "roleCurrent": "receiver",
            "marblesSampled": 100,
            "probRed": 0.5,
            "practiceLambda": 5,
            "trialLambda": 21.9,
            "instructedLambda": "dishonest_big",
            "sd": 8.1,
            "drawnRed": 64,
            "reportedRed": 83,
            "inferredRed": 53,
            "playerTrialScore": -11,
            "oppTrialScore": 0,
            "playerTotalScore": -884,
            "oppTotalScore": 681,
            "waitTime": 6970.07900222179,
            "responseTime": 1682324691976,
            "catchQuestion": "How many <b class=\"r\">red<\/b> marbles did your opponent report drawing? ",
            "catchKey": -1,
            "catchResponse": -1,
            "catchTime": 1682324643260,
            "trialTime": 0
        },
        {
            "exptPart": "trial",
            "trialNumber": 76,
            "roleCurrent": "receiver",
            "marblesSampled": 100,
            "probRed": 0.5,
            "practiceLambda": 5,
            "trialLambda": 21.9,
            "instructedLambda": "dishonest_big",
            "sd": 8.1,
            "drawnRed": 28,
            "reportedRed": 52,
            "inferredRed": 42,
            "playerTrialScore": -14,
            "oppTrialScore": 14,
            "playerTotalScore": -898,
            "oppTotalScore": 695,
            "waitTime": 7456.6723237911665,
            "responseTime": 1682324703261,
            "catchQuestion": "How many <b class=\"r\">red<\/b> marbles did your opponent report drawing? ",
            "catchKey": -1,
            "catchResponse": -1,
            "catchTime": 1682324643260,
            "trialTime": 0
        },
        {
            "exptPart": "trial",
            "trialNumber": 77,
            "roleCurrent": "receiver",
            "marblesSampled": 100,
            "probRed": 0.5,
            "practiceLambda": 5,
            "trialLambda": 21.9,
            "instructedLambda": "dishonest_big",
            "sd": 8.1,
            "drawnRed": 60,
            "reportedRed": 76,
            "inferredRed": 56,
            "playerTrialScore": -4,
            "oppTrialScore": 0,
            "playerTotalScore": -902,
            "oppTotalScore": 695,
            "waitTime": 7139.781298838237,
            "responseTime": 1682324714444,
            "catchQuestion": "How many <b class=\"r\">red<\/b> marbles did your opponent report drawing? ",
            "catchKey": -1,
            "catchResponse": -1,
            "catchTime": 1682324643260,
            "trialTime": 0
        },
        {
            "exptPart": "trial",
            "trialNumber": 78,
            "roleCurrent": "receiver",
            "marblesSampled": 100,
            "probRed": 0.5,
            "practiceLambda": 5,
            "trialLambda": 21.9,
            "instructedLambda": "dishonest_big",
            "sd": 8.1,
            "drawnRed": 9,
            "reportedRed": 24,
            "inferredRed": 14,
            "playerTrialScore": -5,
            "oppTrialScore": 5,
            "playerTotalScore": -907,
            "oppTotalScore": 700,
            "waitTime": 6551.160814164114,
            "responseTime": 1682324725710,
            "catchQuestion": "How many <b class=\"r\">red<\/b> marbles did your opponent report drawing? ",
            "catchKey": -1,
            "catchResponse": -1,
            "catchTime": 1682324643260,
            "trialTime": 0
        },
        {
            "exptPart": "trial",
            "trialNumber": 79,
            "roleCurrent": "receiver",
            "marblesSampled": 100,
            "probRed": 0.5,
            "practiceLambda": 5,
            "trialLambda": 21.9,
            "instructedLambda": "dishonest_big",
            "sd": 8.1,
            "drawnRed": 79,
            "reportedRed": 100,
            "inferredRed": 90,
            "playerTrialScore": -11,
            "oppTrialScore": 11,
            "playerTotalScore": -918,
            "oppTotalScore": 711,
            "waitTime": 7373.4539028602685,
            "responseTime": 1682324736409,
            "catchQuestion": "How many <b class=\"r\">red<\/b> marbles did your opponent report drawing? ",
            "catchKey": -1,
            "catchResponse": -1,
            "catchTime": 1682324643260,
            "trialTime": 0
        },
        {
            "exptPart": "trial",
            "trialNumber": 80,
            "roleCurrent": "receiver",
            "marblesSampled": 100,
            "probRed": 0.5,
            "practiceLambda": 5,
            "trialLambda": 21.9,
            "instructedLambda": "dishonest_big",
            "sd": 8.1,
            "drawnRed": 43,
            "reportedRed": 65,
            "inferredRed": 55,
            "playerTrialScore": -12,
            "oppTrialScore": 12,
            "playerTotalScore": -930,
            "oppTotalScore": 723,
            "waitTime": 5355.826263363968,
            "responseTime": 1682324745143,
            "catchQuestion": "How many <b class=\"r\">red<\/b> marbles did your opponent report drawing? ",
            "catchKey": -1,
            "catchResponse": -1,
            "catchTime": 1682324745143,
            "trialTime": 0
        },
        {
            "exptPart": "trial",
            "trialNumber": 81,
            "roleCurrent": "receiver",
            "marblesSampled": 100,
            "probRed": 0.5,
            "practiceLambda": 5,
            "trialLambda": 21.9,
            "instructedLambda": "dishonest_big",
            "sd": 8.1,
            "drawnRed": 89,
            "reportedRed": 100,
            "inferredRed": 80,
            "playerTrialScore": -9,
            "oppTrialScore": 0,
            "playerTotalScore": -939,
            "oppTotalScore": 723,
            "waitTime": 6775.684273295885,
            "responseTime": 1682324760226,
            "catchQuestion": "How many <b class=\"r\">red<\/b> marbles did your opponent report drawing? ",
            "catchKey": -1,
            "catchResponse": -1,
            "catchTime": 1682324745143,
            "trialTime": 0
        },
        {
            "exptPart": "trial",
            "trialNumber": 82,
            "roleCurrent": "receiver",
            "marblesSampled": 100,
            "probRed": 0.5,
            "practiceLambda": 5,
            "trialLambda": 21.9,
            "instructedLambda": "dishonest_big",
            "sd": 8.1,
            "drawnRed": 42,
            "reportedRed": 76,
            "inferredRed": 56,
            "playerTrialScore": -14,
            "oppTrialScore": 14,
            "playerTotalScore": -953,
            "oppTotalScore": 737,
            "waitTime": 5402.747408544744,
            "responseTime": 1682324772110,
            "catchQuestion": "How many <b class=\"r\">red<\/b> marbles did your opponent report drawing? ",
            "catchKey": -1,
            "catchResponse": -1,
            "catchTime": 1682324745143,
            "trialTime": 0
        },
        {
            "exptPart": "trial",
            "trialNumber": 83,
            "roleCurrent": "receiver",
            "marblesSampled": 100,
            "probRed": 0.5,
            "practiceLambda": 5,
            "trialLambda": 21.9,
            "instructedLambda": "dishonest_big",
            "sd": 8.1,
            "drawnRed": 68,
            "reportedRed": 90,
            "inferredRed": 55,
            "playerTrialScore": -13,
            "oppTrialScore": 0,
            "playerTotalScore": -966,
            "oppTotalScore": 737,
            "waitTime": 6432.056670250229,
            "responseTime": 1682324781259,
            "catchQuestion": "How many <b class=\"r\">red<\/b> marbles did your opponent report drawing? ",
            "catchKey": -1,
            "catchResponse": -1,
            "catchTime": 1682324745143,
            "trialTime": 0
        },
        {
            "exptPart": "trial",
            "trialNumber": 84,
            "roleCurrent": "receiver",
            "marblesSampled": 100,
            "probRed": 0.5,
            "practiceLambda": 5,
            "trialLambda": 21.9,
            "instructedLambda": "dishonest_big",
            "sd": 8.1,
            "drawnRed": 30,
            "reportedRed": 43,
            "inferredRed": 33,
            "playerTrialScore": -3,
            "oppTrialScore": 3,
            "playerTotalScore": -969,
            "oppTotalScore": 740,
            "waitTime": 5402.666919969131,
            "responseTime": 1682324791180,
            "catchQuestion": "How many <b class=\"r\">red<\/b> marbles did your opponent report drawing? ",
            "catchKey": -1,
            "catchResponse": -1,
            "catchTime": 1682324745143,
            "trialTime": 0
        },
        {
            "exptPart": "trial",
            "trialNumber": 85,
            "roleCurrent": "receiver",
            "marblesSampled": 100,
            "probRed": 0.5,
            "practiceLambda": 5,
            "trialLambda": 21.9,
            "instructedLambda": "dishonest_big",
            "sd": 8.1,
            "drawnRed": 52,
            "reportedRed": 81,
            "inferredRed": 71,
            "playerTrialScore": -19,
            "oppTrialScore": 19,
            "playerTotalScore": -988,
            "oppTotalScore": 759,
            "waitTime": 6367.712577890396,
            "responseTime": 1682324801226,
            "catchQuestion": "How many <b class=\"r\">red<\/b> marbles did your opponent report drawing? ",
            "catchKey": 81,
            "catchResponse": 81,
            "catchTime": 1682324801226,
            "trialTime": 0
        },
        {
            "exptPart": "trial",
            "trialNumber": 86,
            "roleCurrent": "receiver",
            "marblesSampled": 100,
            "probRed": 0.5,
            "practiceLambda": 5,
            "trialLambda": 21.9,
            "instructedLambda": "dishonest_big",
            "sd": 8.1,
            "drawnRed": 38,
            "reportedRed": 58,
            "inferredRed": 58,
            "playerTrialScore": -20,
            "oppTrialScore": 20,
            "playerTotalScore": -1008,
            "oppTotalScore": 779,
            "waitTime": 5657.391495651875,
            "responseTime": 1682324819693,
            "catchQuestion": "How many <b class=\"r\">red<\/b> marbles did your opponent report drawing? ",
            "catchKey": -1,
            "catchResponse": -1,
            "catchTime": 1682324801226,
            "trialTime": 0
        },
        {
            "exptPart": "trial",
            "trialNumber": 87,
            "roleCurrent": "receiver",
            "marblesSampled": 100,
            "probRed": 0.5,
            "practiceLambda": 5,
            "trialLambda": 21.9,
            "instructedLambda": "dishonest_big",
            "sd": 8.1,
            "drawnRed": 44,
            "reportedRed": 66,
            "inferredRed": 66,
            "playerTrialScore": -22,
            "oppTrialScore": 22,
            "playerTotalScore": -1030,
            "oppTotalScore": 801,
            "waitTime": 5571.815055174241,
            "responseTime": 1682324827927,
            "catchQuestion": "How many <b class=\"r\">red<\/b> marbles did your opponent report drawing? ",
            "catchKey": -1,
            "catchResponse": -1,
            "catchTime": 1682324801226,
            "trialTime": 0
        },
        {
            "exptPart": "trial",
            "trialNumber": 88,
            "roleCurrent": "receiver",
            "marblesSampled": 100,
            "probRed": 0.5,
            "practiceLambda": 5,
            "trialLambda": 21.9,
            "instructedLambda": "dishonest_big",
            "sd": 8.1,
            "drawnRed": 21,
            "reportedRed": 41,
            "inferredRed": 41,
            "playerTrialScore": -20,
            "oppTrialScore": 20,
            "playerTotalScore": -1050,
            "oppTotalScore": 821,
            "waitTime": 5532.907028640294,
            "responseTime": 1682324836277,
            "catchQuestion": "How many <b class=\"r\">red<\/b> marbles did your opponent report drawing? ",
            "catchKey": -1,
            "catchResponse": -1,
            "catchTime": 1682324801226,
            "trialTime": 0
        },
        {
            "exptPart": "trial",
            "trialNumber": 89,
            "roleCurrent": "receiver",
            "marblesSampled": 100,
            "probRed": 0.5,
            "practiceLambda": 5,
            "trialLambda": 21.9,
            "instructedLambda": "dishonest_big",
            "sd": 8.1,
            "drawnRed": 47,
            "reportedRed": 72,
            "inferredRed": 72,
            "playerTrialScore": -25,
            "oppTrialScore": 25,
            "playerTotalScore": -1075,
            "oppTotalScore": 846,
            "waitTime": 7423.332740146494,
            "responseTime": 1682324847026,
            "catchQuestion": "How many <b class=\"r\">red<\/b> marbles did your opponent report drawing? ",
            "catchKey": -1,
            "catchResponse": -1,
            "catchTime": 1682324801226,
            "trialTime": 0
        },
        {
            "exptPart": "trial",
            "trialNumber": 90,
            "roleCurrent": "receiver",
            "marblesSampled": 100,
            "probRed": 0.5,
            "practiceLambda": 5,
            "trialLambda": 21.9,
            "instructedLambda": "dishonest_big",
            "sd": 8.1,
            "drawnRed": 49,
            "reportedRed": 79,
            "inferredRed": 79,
            "playerTrialScore": -30,
            "oppTrialScore": 30,
            "playerTotalScore": -1105,
            "oppTotalScore": 876,
            "waitTime": 7162.457715218756,
            "responseTime": 1682324856976,
            "catchQuestion": "How many <b class=\"r\">red<\/b> marbles did your opponent report drawing? ",
            "catchKey": -1,
            "catchResponse": -1,
            "catchTime": 1682324856976,
            "trialTime": 0
        },
        {
            "exptPart": "trial",
            "trialNumber": 91,
            "roleCurrent": "receiver",
            "marblesSampled": 100,
            "probRed": 0.5,
            "practiceLambda": 5,
            "trialLambda": 21.9,
            "instructedLambda": "dishonest_big",
            "sd": 8.1,
            "drawnRed": 77,
            "reportedRed": 91,
            "inferredRed": 8,
            "playerTrialScore": -69,
            "oppTrialScore": 0,
            "playerTotalScore": -1174,
            "oppTotalScore": 876,
            "waitTime": 5129.143922137113,
            "responseTime": 1682324869076,
            "catchQuestion": "How many <b class=\"r\">red<\/b> marbles did your opponent report drawing? ",
            "catchKey": -1,
            "catchResponse": -1,
            "catchTime": 1682324856976,
            "trialTime": 0
        },
        {
            "exptPart": "trial",
            "trialNumber": 92,
            "roleCurrent": "receiver",
            "marblesSampled": 100,
            "probRed": 0.5,
            "practiceLambda": 5,
            "trialLambda": 21.9,
            "instructedLambda": "dishonest_big",
            "sd": 8.1,
            "drawnRed": 55,
            "reportedRed": 73,
            "inferredRed": 82,
            "playerTrialScore": -27,
            "oppTrialScore": 27,
            "playerTotalScore": -1201,
            "oppTotalScore": 903,
            "waitTime": 7266.2503389397,
            "responseTime": 1682324881744,
            "catchQuestion": "How many <b class=\"r\">red<\/b> marbles did your opponent report drawing? ",
            "catchKey": -1,
            "catchResponse": -1,
            "catchTime": 1682324856976,
            "trialTime": 0
        },
        {
            "exptPart": "trial",
            "trialNumber": 93,
            "roleCurrent": "receiver",
            "marblesSampled": 100,
            "probRed": 0.5,
            "practiceLambda": 5,
            "trialLambda": 21.9,
            "instructedLambda": "dishonest_big",
            "sd": 8.1,
            "drawnRed": 79,
            "reportedRed": 100,
            "inferredRed": 60,
            "playerTrialScore": -19,
            "oppTrialScore": 0,
            "playerTotalScore": -1220,
            "oppTotalScore": 903,
            "waitTime": 5916.265009619052,
            "responseTime": 1682324892343,
            "catchQuestion": "How many <b class=\"r\">red<\/b> marbles did your opponent report drawing? ",
            "catchKey": -1,
            "catchResponse": -1,
            "catchTime": 1682324856976,
            "trialTime": 0
        },
        {
            "exptPart": "trial",
            "trialNumber": 94,
            "roleCurrent": "receiver",
            "marblesSampled": 100,
            "probRed": 0.5,
            "practiceLambda": 5,
            "trialLambda": 21.9,
            "instructedLambda": "dishonest_big",
            "sd": 8.1,
            "drawnRed": 58,
            "reportedRed": 95,
            "inferredRed": 85,
            "playerTrialScore": -27,
            "oppTrialScore": 27,
            "playerTotalScore": -1247,
            "oppTotalScore": 930,
            "waitTime": 6183.427050964921,
            "responseTime": 1682324903010,
            "catchQuestion": "How many <b class=\"r\">red<\/b> marbles did your opponent report drawing? ",
            "catchKey": 95,
            "catchResponse": 95,
            "catchTime": 1682324903010,
            "trialTime": 0
        },
        {
            "exptPart": "trial",
            "trialNumber": 95,
            "roleCurrent": "receiver",
            "marblesSampled": 100,
            "probRed": 0.5,
            "practiceLambda": 5,
            "trialLambda": 21.9,
            "instructedLambda": "dishonest_big",
            "sd": 8.1,
            "drawnRed": 74,
            "reportedRed": 100,
            "inferredRed": 80,
            "playerTrialScore": -6,
            "oppTrialScore": 6,
            "playerTotalScore": -1253,
            "oppTotalScore": 936,
            "waitTime": 7275.506466524557,
            "responseTime": 1682324920808,
            "catchQuestion": "How many <b class=\"r\">red<\/b> marbles did your opponent report drawing? ",
            "catchKey": -1,
            "catchResponse": -1,
            "catchTime": 1682324903010,
            "trialTime": 0
        },
        {
            "exptPart": "trial",
            "trialNumber": 96,
            "roleCurrent": "receiver",
            "marblesSampled": 100,
            "probRed": 0.5,
            "practiceLambda": 5,
            "trialLambda": 21.9,
            "instructedLambda": "dishonest_big",
            "sd": 8.1,
            "drawnRed": 44,
            "reportedRed": 57,
            "inferredRed": 47,
            "playerTrialScore": -3,
            "oppTrialScore": 3,
            "playerTotalScore": -1256,
            "oppTotalScore": 939,
            "waitTime": 6113.019828241784,
            "responseTime": 1682324931207,
            "catchQuestion": "How many <b class=\"r\">red<\/b> marbles did your opponent report drawing? ",
            "catchKey": -1,
            "catchResponse": -1,
            "catchTime": 1682324903010,
            "trialTime": 0
        },
        {
            "exptPart": "trial",
            "trialNumber": 97,
            "roleCurrent": "receiver",
            "marblesSampled": 100,
            "probRed": 0.5,
            "practiceLambda": 5,
            "trialLambda": 21.9,
            "instructedLambda": "dishonest_big",
            "sd": 8.1,
            "drawnRed": 58,
            "reportedRed": 82,
            "inferredRed": 72,
            "playerTrialScore": -14,
            "oppTrialScore": 14,
            "playerTotalScore": -1270,
            "oppTotalScore": 953,
            "waitTime": 5741.358010070031,
            "responseTime": 1682324940721,
            "catchQuestion": "How many <b class=\"r\">red<\/b> marbles did your opponent report drawing? ",
            "catchKey": -1,
            "catchResponse": -1,
            "catchTime": 1682324903010,
            "trialTime": 0
        },
        {
            "exptPart": "trial",
            "trialNumber": 98,
            "roleCurrent": "receiver",
            "marblesSampled": 100,
            "probRed": 0.5,
            "practiceLambda": 5,
            "trialLambda": 21.9,
            "instructedLambda": "dishonest_big",
            "sd": 8.1,
            "drawnRed": 68,
            "reportedRed": 93,
            "inferredRed": 83,
            "playerTrialScore": -15,
            "oppTrialScore": 15,
            "playerTotalScore": -1285,
            "oppTotalScore": 968,
            "waitTime": 6477.301505279124,
            "responseTime": 1682324951221,
            "catchQuestion": "How many <b class=\"r\">red<\/b> marbles did your opponent report drawing? ",
            "catchKey": -1,
            "catchResponse": -1,
            "catchTime": 1682324903010,
            "trialTime": 0
        },
        {
            "exptPart": "trial",
            "trialNumber": 99,
            "roleCurrent": "receiver",
            "marblesSampled": 100,
            "probRed": 0.5,
            "practiceLambda": 5,
            "trialLambda": 21.9,
            "instructedLambda": "dishonest_big",
            "sd": 8.1,
            "drawnRed": 14,
            "reportedRed": 37,
            "inferredRed": 27,
            "playerTrialScore": -13,
            "oppTrialScore": 13,
            "playerTotalScore": -1298,
            "oppTotalScore": 981,
            "waitTime": 7291.113835596343,
            "responseTime": 1682324962853,
            "catchQuestion": "How many <b class=\"r\">red<\/b> marbles did your opponent report drawing? ",
            "catchKey": -1,
            "catchResponse": -1,
            "catchTime": 1682324903010,
            "trialTime": 0
        },
        {
            "exptPart": "trial",
            "trialNumber": 100,
            "roleCurrent": "receiver",
            "marblesSampled": 100,
            "probRed": 0.5,
            "practiceLambda": 5,
            "trialLambda": 21.9,
            "instructedLambda": "dishonest_big",
            "sd": 8.1,
            "drawnRed": 39,
            "reportedRed": 56,
            "inferredRed": 46,
            "playerTrialScore": -7,
            "oppTrialScore": 7,
            "playerTotalScore": -1305,
            "oppTotalScore": 988,
            "waitTime": 6935.7723865802955,
            "responseTime": 1682324974169,
            "catchQuestion": "How many <b class=\"r\">red<\/b> marbles did your opponent report drawing? ",
            "catchKey": -1,
            "catchResponse": -1,
            "catchTime": 1682324974169,
            "trialTime": 0
        }
    ]
}