{
    "client": {
        "type": "sona",
        "experiment_id": 2228,
        "credit_token": "b315147ae43241ea9c65086cb510cfb7",
        "survey_code": "45172",
        "sid": "sona-45172",
        "window": {
            "width": 1440,
            "height": 821
        },
        "screen": {
            "width": 1440,
            "height": 900
        },
        "userAgent": "Mozilla\/5.0 (Macintosh; Intel Mac OS X 10_15_7) AppleWebKit\/537.36 (KHTML, like Gecko) Chrome\/112.0.0.0 Safari\/537.36",
        "score": 0,
        "bonus": 0
    },
    "expt": {
        "saveURL": "submit.simple.php",
        "trials": 100,
        "practiceTrials": 2,
        "marblesSampled": 100,
        "probRed": 0.5,
        "practiceLambdaAI": 5,
        "lambdaAI": 8.1,
        "sd": 8.1,
        "roles": [
            "sender",
            "receiver"
        ],
        "cost": "unif",
        "goal": "over",
        "oppDishonesty": "dishonest_small",
        "catchTrials": [
            90,
            54,
            4,
            7,
            2,
            66,
            33,
            55,
            15,
            89
        ],
        "scoreTotal": {
            "player": -959,
            "opp": 895
        },
        "sona": {
            "experiment_id": 2228,
            "credit_token": "b315147ae43241ea9c65086cb510cfb7"
        },
        "pilot": false,
        "debug": false
    },
    "trials": [
        {
            "exptPart": "practice",
            "trialNumber": 1,
            "roleCurrent": "sender",
            "marblesSampled": 100,
            "probRed": 0.5,
            "practiceLambda": 5,
            "trialLambda": 8.1,
            "instructedLambda": "dishonest_small",
            "sd": 8.1,
            "drawnRed": 65,
            "reportedRed": 65,
            "inferredRed": 59,
            "playerTrialScore": 0,
            "oppTrialScore": -6,
            "playerTotalScore": 0,
            "oppTotalScore": -6,
            "waitTime": 2735.7298172752467,
            "responseTime": 1682388461108,
            "catchQuestion": "How many <b class=\"r\">red<\/b> marbles did you actually draw (before any changes)? ",
            "catchKey": 65,
            "catchResponse": 56,
            "catchTime": 1682388461109,
            "trialTime": 0
        },
        {
            "exptPart": "practice",
            "trialNumber": 2,
            "roleCurrent": "receiver",
            "marblesSampled": 100,
            "probRed": 0.5,
            "practiceLambda": 5,
            "trialLambda": 8.1,
            "instructedLambda": "dishonest_small",
            "sd": 8.1,
            "drawnRed": 17,
            "reportedRed": 13,
            "inferredRed": 13,
            "playerTrialScore": -4,
            "oppTrialScore": 0,
            "playerTotalScore": -4,
            "oppTotalScore": -6,
            "waitTime": 6360.799975202513,
            "responseTime": 1682388495261,
            "catchQuestion": "How many <b class=\"r\">red<\/b> marbles did your opponent report drawing? ",
            "catchKey": 13,
            "catchResponse": 13,
            "catchTime": 1682388495262,
            "trialTime": 0
        },
        {
            "exptPart": "trial",
            "trialNumber": 1,
            "roleCurrent": "receiver",
            "marblesSampled": 100,
            "probRed": 0.5,
            "practiceLambda": 5,
            "trialLambda": 8.1,
            "instructedLambda": "dishonest_small",
            "sd": 8.1,
            "drawnRed": 66,
            "reportedRed": 69,
            "inferredRed": 59,
            "playerTrialScore": -7,
            "oppTrialScore": 0,
            "playerTotalScore": -7,
            "oppTotalScore": 0,
            "waitTime": 6458.405366343382,
            "responseTime": 1682388517110,
            "catchQuestion": "How many <b class=\"r\">red<\/b> marbles did your opponent report drawing? ",
            "catchKey": -1,
            "catchResponse": -1,
            "catchTime": 1682388495262,
            "trialTime": 0
        },
        {
            "exptPart": "trial",
            "trialNumber": 2,
            "roleCurrent": "receiver",
            "marblesSampled": 100,
            "probRed": 0.5,
            "practiceLambda": 5,
            "trialLambda": 8.1,
            "instructedLambda": "dishonest_small",
            "sd": 8.1,
            "drawnRed": 72,
            "reportedRed": 81,
            "inferredRed": 71,
            "playerTrialScore": -1,
            "oppTrialScore": 0,
            "playerTotalScore": -8,
            "oppTotalScore": 0,
            "waitTime": 5935.564875108828,
            "responseTime": 1682388528968,
            "catchQuestion": "How many <b class=\"r\">red<\/b> marbles did your opponent report drawing? ",
            "catchKey": -1,
            "catchResponse": -1,
            "catchTime": 1682388495262,
            "trialTime": 0
        },
        {
            "exptPart": "trial",
            "trialNumber": 3,
            "roleCurrent": "receiver",
            "marblesSampled": 100,
            "probRed": 0.5,
            "practiceLambda": 5,
            "trialLambda": 8.1,
            "instructedLambda": "dishonest_small",
            "sd": 8.1,
            "drawnRed": 53,
            "reportedRed": 68,
            "inferredRed": 70,
            "playerTrialScore": -17,
            "oppTrialScore": 17,
            "playerTotalScore": -25,
            "oppTotalScore": 17,
            "waitTime": 5671.041804835315,
            "responseTime": 1682388546752,
            "catchQuestion": "How many <b class=\"r\">red<\/b> marbles did your opponent report drawing? ",
            "catchKey": 68,
            "catchResponse": 68,
            "catchTime": 1682388546752,
            "trialTime": 0
        },
        {
            "exptPart": "trial",
            "trialNumber": 4,
            "roleCurrent": "receiver",
            "marblesSampled": 100,
            "probRed": 0.5,
            "practiceLambda": 5,
            "trialLambda": 8.1,
            "instructedLambda": "dishonest_small",
            "sd": 8.1,
            "drawnRed": 51,
            "reportedRed": 57,
            "inferredRed": 60,
            "playerTrialScore": -9,
            "oppTrialScore": 9,
            "playerTotalScore": -34,
            "oppTotalScore": 26,
            "waitTime": 6132.735723821979,
            "responseTime": 1682388564422,
            "catchQuestion": "How many <b class=\"r\">red<\/b> marbles did your opponent report drawing? ",
            "catchKey": -1,
            "catchResponse": -1,
            "catchTime": 1682388546752,
            "trialTime": 0
        },
        {
            "exptPart": "trial",
            "trialNumber": 5,
            "roleCurrent": "receiver",
            "marblesSampled": 100,
            "probRed": 0.5,
            "practiceLambda": 5,
            "trialLambda": 8.1,
            "instructedLambda": "dishonest_small",
            "sd": 8.1,
            "drawnRed": 72,
            "reportedRed": 73,
            "inferredRed": 75,
            "playerTrialScore": -3,
            "oppTrialScore": 3,
            "playerTotalScore": -37,
            "oppTotalScore": 29,
            "waitTime": 7207.845474535192,
            "responseTime": 1682388577002,
            "catchQuestion": "How many <b class=\"r\">red<\/b> marbles did your opponent report drawing? ",
            "catchKey": 73,
            "catchResponse": 73,
            "catchTime": 1682388577002,
            "trialTime": 0
        },
        {
            "exptPart": "trial",
            "trialNumber": 6,
            "roleCurrent": "receiver",
            "marblesSampled": 100,
            "probRed": 0.5,
            "practiceLambda": 5,
            "trialLambda": 8.1,
            "instructedLambda": "dishonest_small",
            "sd": 8.1,
            "drawnRed": 55,
            "reportedRed": 58,
            "inferredRed": 60,
            "playerTrialScore": -5,
            "oppTrialScore": 5,
            "playerTotalScore": -42,
            "oppTotalScore": 34,
            "waitTime": 5524.6990313797905,
            "responseTime": 1682388591341,
            "catchQuestion": "How many <b class=\"r\">red<\/b> marbles did your opponent report drawing? ",
            "catchKey": -1,
            "catchResponse": -1,
            "catchTime": 1682388577002,
            "trialTime": 0
        },
        {
            "exptPart": "trial",
            "trialNumber": 7,
            "roleCurrent": "receiver",
            "marblesSampled": 100,
            "probRed": 0.5,
            "practiceLambda": 5,
            "trialLambda": 8.1,
            "instructedLambda": "dishonest_small",
            "sd": 8.1,
            "drawnRed": 59,
            "reportedRed": 63,
            "inferredRed": 63,
            "playerTrialScore": -4,
            "oppTrialScore": 4,
            "playerTotalScore": -46,
            "oppTotalScore": 38,
            "waitTime": 7233.325476848605,
            "responseTime": 1682388602113,
            "catchQuestion": "How many <b class=\"r\">red<\/b> marbles did your opponent report drawing? ",
            "catchKey": -1,
            "catchResponse": -1,
            "catchTime": 1682388577002,
            "trialTime": 0
        },
        {
            "exptPart": "trial",
            "trialNumber": 8,
            "roleCurrent": "receiver",
            "marblesSampled": 100,
            "probRed": 0.5,
            "practiceLambda": 5,
            "trialLambda": 8.1,
            "instructedLambda": "dishonest_small",
            "sd": 8.1,
            "drawnRed": 36,
            "reportedRed": 56,
            "inferredRed": 60,
            "playerTrialScore": -24,
            "oppTrialScore": 24,
            "playerTotalScore": -70,
            "oppTotalScore": 62,
            "waitTime": 6481.637722551694,
            "responseTime": 1682388616226,
            "catchQuestion": "How many <b class=\"r\">red<\/b> marbles did your opponent report drawing? ",
            "catchKey": 56,
            "catchResponse": 56,
            "catchTime": 1682388616226,
            "trialTime": 0
        },
        {
            "exptPart": "trial",
            "trialNumber": 9,
            "roleCurrent": "receiver",
            "marblesSampled": 100,
            "probRed": 0.5,
            "practiceLambda": 5,
            "trialLambda": 8.1,
            "instructedLambda": "dishonest_small",
            "sd": 8.1,
            "drawnRed": 58,
            "reportedRed": 52,
            "inferredRed": 60,
            "playerTrialScore": -2,
            "oppTrialScore": 2,
            "playerTotalScore": -72,
            "oppTotalScore": 64,
            "waitTime": 6475.955952403037,
            "responseTime": 1682388635038,
            "catchQuestion": "How many <b class=\"r\">red<\/b> marbles did your opponent report drawing? ",
            "catchKey": -1,
            "catchResponse": -1,
            "catchTime": 1682388616226,
            "trialTime": 0
        },
        {
            "exptPart": "trial",
            "trialNumber": 10,
            "roleCurrent": "receiver",
            "marblesSampled": 100,
            "probRed": 0.5,
            "practiceLambda": 5,
            "trialLambda": 8.1,
            "instructedLambda": "dishonest_small",
            "sd": 8.1,
            "drawnRed": 22,
            "reportedRed": 27,
            "inferredRed": 30,
            "playerTrialScore": -8,
            "oppTrialScore": 8,
            "playerTotalScore": -80,
            "oppTotalScore": 72,
            "waitTime": 7118.121151662892,
            "responseTime": 1682388667990,
            "catchQuestion": "How many <b class=\"r\">red<\/b> marbles did your opponent report drawing? ",
            "catchKey": -1,
            "catchResponse": -1,
            "catchTime": 1682388667990,
            "trialTime": 0
        },
        {
            "exptPart": "trial",
            "trialNumber": 11,
            "roleCurrent": "receiver",
            "marblesSampled": 100,
            "probRed": 0.5,
            "practiceLambda": 5,
            "trialLambda": 8.1,
            "instructedLambda": "dishonest_small",
            "sd": 8.1,
            "drawnRed": 80,
            "reportedRed": 83,
            "inferredRed": 83,
            "playerTrialScore": -3,
            "oppTrialScore": 3,
            "playerTotalScore": -83,
            "oppTotalScore": 75,
            "waitTime": 7412.421684927633,
            "responseTime": 1682388689265,
            "catchQuestion": "How many <b class=\"r\">red<\/b> marbles did your opponent report drawing? ",
            "catchKey": -1,
            "catchResponse": -1,
            "catchTime": 1682388667990,
            "trialTime": 0
        },
        {
            "exptPart": "trial",
            "trialNumber": 12,
            "roleCurrent": "receiver",
            "marblesSampled": 100,
            "probRed": 0.5,
            "practiceLambda": 5,
            "trialLambda": 8.1,
            "instructedLambda": "dishonest_small",
            "sd": 8.1,
            "drawnRed": 52,
            "reportedRed": 58,
            "inferredRed": 58,
            "playerTrialScore": -6,
            "oppTrialScore": 6,
            "playerTotalScore": -89,
            "oppTotalScore": 81,
            "waitTime": 6550.435798197188,
            "responseTime": 1682388705188,
            "catchQuestion": "How many <b class=\"r\">red<\/b> marbles did your opponent report drawing? ",
            "catchKey": -1,
            "catchResponse": -1,
            "catchTime": 1682388667990,
            "trialTime": 0
        },
        {
            "exptPart": "trial",
            "trialNumber": 13,
            "roleCurrent": "receiver",
            "marblesSampled": 100,
            "probRed": 0.5,
            "practiceLambda": 5,
            "trialLambda": 8.1,
            "instructedLambda": "dishonest_small",
            "sd": 8.1,
            "drawnRed": 46,
            "reportedRed": 47,
            "inferredRed": 50,
            "playerTrialScore": -4,
            "oppTrialScore": 4,
            "playerTotalScore": -93,
            "oppTotalScore": 85,
            "waitTime": 6226.626868096614,
            "responseTime": 1682388716209,
            "catchQuestion": "How many <b class=\"r\">red<\/b> marbles did your opponent report drawing? ",
            "catchKey": -1,
            "catchResponse": -1,
            "catchTime": 1682388667990,
            "trialTime": 0
        },
        {
            "exptPart": "trial",
            "trialNumber": 14,
            "roleCurrent": "receiver",
            "marblesSampled": 100,
            "probRed": 0.5,
            "practiceLambda": 5,
            "trialLambda": 8.1,
            "instructedLambda": "dishonest_small",
            "sd": 8.1,
            "drawnRed": 51,
            "reportedRed": 38,
            "inferredRed": 40,
            "playerTrialScore": -11,
            "oppTrialScore": 0,
            "playerTotalScore": -104,
            "oppTotalScore": 85,
            "waitTime": 7083.797969256025,
            "responseTime": 1682388731653,
            "catchQuestion": "How many <b class=\"r\">red<\/b> marbles did your opponent report drawing? ",
            "catchKey": -1,
            "catchResponse": -1,
            "catchTime": 1682388667990,
            "trialTime": 0
        },
        {
            "exptPart": "trial",
            "trialNumber": 15,
            "roleCurrent": "receiver",
            "marblesSampled": 100,
            "probRed": 0.5,
            "practiceLambda": 5,
            "trialLambda": 8.1,
            "instructedLambda": "dishonest_small",
            "sd": 8.1,
            "drawnRed": 66,
            "reportedRed": 90,
            "inferredRed": 90,
            "playerTrialScore": -24,
            "oppTrialScore": 24,
            "playerTotalScore": -128,
            "oppTotalScore": 109,
            "waitTime": 6712.246932391718,
            "responseTime": 1682388751170,
            "catchQuestion": "How many <b class=\"r\">red<\/b> marbles did your opponent report drawing? ",
            "catchKey": -1,
            "catchResponse": -1,
            "catchTime": 1682388667990,
            "trialTime": 0
        },
        {
            "exptPart": "trial",
            "trialNumber": 16,
            "roleCurrent": "receiver",
            "marblesSampled": 100,
            "probRed": 0.5,
            "practiceLambda": 5,
            "trialLambda": 8.1,
            "instructedLambda": "dishonest_small",
            "sd": 8.1,
            "drawnRed": 40,
            "reportedRed": 47,
            "inferredRed": 47,
            "playerTrialScore": -7,
            "oppTrialScore": 7,
            "playerTotalScore": -135,
            "oppTotalScore": 116,
            "waitTime": 7116.626739790277,
            "responseTime": 1682388767728,
            "catchQuestion": "How many <b class=\"r\">red<\/b> marbles did your opponent report drawing? ",
            "catchKey": 47,
            "catchResponse": 46,
            "catchTime": 1682388767728,
            "trialTime": 0
        },
        {
            "exptPart": "trial",
            "trialNumber": 17,
            "roleCurrent": "receiver",
            "marblesSampled": 100,
            "probRed": 0.5,
            "practiceLambda": 5,
            "trialLambda": 8.1,
            "instructedLambda": "dishonest_small",
            "sd": 8.1,
            "drawnRed": 51,
            "reportedRed": 54,
            "inferredRed": 60,
            "playerTrialScore": -9,
            "oppTrialScore": 9,
            "playerTotalScore": -144,
            "oppTotalScore": 125,
            "waitTime": 5225.205494390404,
            "responseTime": 1682388794570,
            "catchQuestion": "How many <b class=\"r\">red<\/b> marbles did your opponent report drawing? ",
            "catchKey": -1,
            "catchResponse": -1,
            "catchTime": 1682388767728,
            "trialTime": 0
        },
        {
            "exptPart": "trial",
            "trialNumber": 18,
            "roleCurrent": "receiver",
            "marblesSampled": 100,
            "probRed": 0.5,
            "practiceLambda": 5,
            "trialLambda": 8.1,
            "instructedLambda": "dishonest_small",
            "sd": 8.1,
            "drawnRed": 31,
            "reportedRed": 35,
            "inferredRed": 35,
            "playerTrialScore": -4,
            "oppTrialScore": 4,
            "playerTotalScore": -148,
            "oppTotalScore": 129,
            "waitTime": 6999.2591014860045,
            "responseTime": 1682388804857,
            "catchQuestion": "How many <b class=\"r\">red<\/b> marbles did your opponent report drawing? ",
            "catchKey": -1,
            "catchResponse": -1,
            "catchTime": 1682388767728,
            "trialTime": 0
        },
        {
            "exptPart": "trial",
            "trialNumber": 19,
            "roleCurrent": "receiver",
            "marblesSampled": 100,
            "probRed": 0.5,
            "practiceLambda": 5,
            "trialLambda": 8.1,
            "instructedLambda": "dishonest_small",
            "sd": 8.1,
            "drawnRed": 58,
            "reportedRed": 70,
            "inferredRed": 70,
            "playerTrialScore": -12,
            "oppTrialScore": 12,
            "playerTotalScore": -160,
            "oppTotalScore": 141,
            "waitTime": 6141.119958350222,
            "responseTime": 1682388818680,
            "catchQuestion": "How many <b class=\"r\">red<\/b> marbles did your opponent report drawing? ",
            "catchKey": -1,
            "catchResponse": -1,
            "catchTime": 1682388767728,
            "trialTime": 0
        },
        {
            "exptPart": "trial",
            "trialNumber": 20,
            "roleCurrent": "receiver",
            "marblesSampled": 100,
            "probRed": 0.5,
            "practiceLambda": 5,
            "trialLambda": 8.1,
            "instructedLambda": "dishonest_small",
            "sd": 8.1,
            "drawnRed": 15,
            "reportedRed": 18,
            "inferredRed": 17,
            "playerTrialScore": -2,
            "oppTrialScore": 2,
            "playerTotalScore": -162,
            "oppTotalScore": 143,
            "waitTime": 6531.745130813657,
            "responseTime": 1682388836565,
            "catchQuestion": "How many <b class=\"r\">red<\/b> marbles did your opponent report drawing? ",
            "catchKey": -1,
            "catchResponse": -1,
            "catchTime": 1682388836565,
            "trialTime": 0
        },
        {
            "exptPart": "trial",
            "trialNumber": 21,
            "roleCurrent": "receiver",
            "marblesSampled": 100,
            "probRed": 0.5,
            "practiceLambda": 5,
            "trialLambda": 8.1,
            "instructedLambda": "dishonest_small",
            "sd": 8.1,
            "drawnRed": 47,
            "reportedRed": 56,
            "inferredRed": 60,
            "playerTrialScore": -13,
            "oppTrialScore": 13,
            "playerTotalScore": -175,
            "oppTotalScore": 156,
            "waitTime": 6801.417336313676,
            "responseTime": 1682388852424,
            "catchQuestion": "How many <b class=\"r\">red<\/b> marbles did your opponent report drawing? ",
            "catchKey": -1,
            "catchResponse": -1,
            "catchTime": 1682388836565,
            "trialTime": 0
        },
        {
            "exptPart": "trial",
            "trialNumber": 22,
            "roleCurrent": "receiver",
            "marblesSampled": 100,
            "probRed": 0.5,
            "practiceLambda": 5,
            "trialLambda": 8.1,
            "instructedLambda": "dishonest_small",
            "sd": 8.1,
            "drawnRed": 68,
            "reportedRed": 80,
            "inferredRed": 80,
            "playerTrialScore": -12,
            "oppTrialScore": 12,
            "playerTotalScore": -187,
            "oppTotalScore": 168,
            "waitTime": 5734.770980425216,
            "responseTime": 1682388871698,
            "catchQuestion": "How many <b class=\"r\">red<\/b> marbles did your opponent report drawing? ",
            "catchKey": -1,
            "catchResponse": -1,
            "catchTime": 1682388836565,
            "trialTime": 0
        },
        {
            "exptPart": "trial",
            "trialNumber": 23,
            "roleCurrent": "receiver",
            "marblesSampled": 100,
            "probRed": 0.5,
            "practiceLambda": 5,
            "trialLambda": 8.1,
            "instructedLambda": "dishonest_small",
            "sd": 8.1,
            "drawnRed": 63,
            "reportedRed": 63,
            "inferredRed": 70,
            "playerTrialScore": -7,
            "oppTrialScore": 7,
            "playerTotalScore": -194,
            "oppTotalScore": 175,
            "waitTime": 7301.444656920411,
            "responseTime": 1682388883816,
            "catchQuestion": "How many <b class=\"r\">red<\/b> marbles did your opponent report drawing? ",
            "catchKey": -1,
            "catchResponse": -1,
            "catchTime": 1682388836565,
            "trialTime": 0
        },
        {
            "exptPart": "trial",
            "trialNumber": 24,
            "roleCurrent": "receiver",
            "marblesSampled": 100,
            "probRed": 0.5,
            "practiceLambda": 5,
            "trialLambda": 8.1,
            "instructedLambda": "dishonest_small",
            "sd": 8.1,
            "drawnRed": 41,
            "reportedRed": 53,
            "inferredRed": 60,
            "playerTrialScore": -19,
            "oppTrialScore": 19,
            "playerTotalScore": -213,
            "oppTotalScore": 194,
            "waitTime": 6928.675751408635,
            "responseTime": 1682388894410,
            "catchQuestion": "How many <b class=\"r\">red<\/b> marbles did your opponent report drawing? ",
            "catchKey": -1,
            "catchResponse": -1,
            "catchTime": 1682388836565,
            "trialTime": 0
        },
        {
            "exptPart": "trial",
            "trialNumber": 25,
            "roleCurrent": "receiver",
            "marblesSampled": 100,
            "probRed": 0.5,
            "practiceLambda": 5,
            "trialLambda": 8.1,
            "instructedLambda": "dishonest_small",
            "sd": 8.1,
            "drawnRed": 87,
            "reportedRed": 72,
            "inferredRed": 80,
            "playerTrialScore": -7,
            "oppTrialScore": 0,
            "playerTotalScore": -220,
            "oppTotalScore": 194,
            "waitTime": 5353.879582635991,
            "responseTime": 1682388903112,
            "catchQuestion": "How many <b class=\"r\">red<\/b> marbles did your opponent report drawing? ",
            "catchKey": -1,
            "catchResponse": -1,
            "catchTime": 1682388836565,
            "trialTime": 0
        },
        {
            "exptPart": "trial",
            "trialNumber": 26,
            "roleCurrent": "receiver",
            "marblesSampled": 100,
            "probRed": 0.5,
            "practiceLambda": 5,
            "trialLambda": 8.1,
            "instructedLambda": "dishonest_small",
            "sd": 8.1,
            "drawnRed": 65,
            "reportedRed": 75,
            "inferredRed": 80,
            "playerTrialScore": -15,
            "oppTrialScore": 15,
            "playerTotalScore": -235,
            "oppTotalScore": 209,
            "waitTime": 5796.449227750366,
            "responseTime": 1682388913335,
            "catchQuestion": "How many <b class=\"r\">red<\/b> marbles did your opponent report drawing? ",
            "catchKey": -1,
            "catchResponse": -1,
            "catchTime": 1682388836565,
            "trialTime": 0
        },
        {
            "exptPart": "trial",
            "trialNumber": 27,
            "roleCurrent": "receiver",
            "marblesSampled": 100,
            "probRed": 0.5,
            "practiceLambda": 5,
            "trialLambda": 8.1,
            "instructedLambda": "dishonest_small",
            "sd": 8.1,
            "drawnRed": 31,
            "reportedRed": 23,
            "inferredRed": 40,
            "playerTrialScore": -9,
            "oppTrialScore": 9,
            "playerTotalScore": -244,
            "oppTotalScore": 218,
            "waitTime": 6494.603213165756,
            "responseTime": 1682388923186,
            "catchQuestion": "How many <b class=\"r\">red<\/b> marbles did your opponent report drawing? ",
            "catchKey": -1,
            "catchResponse": -1,
            "catchTime": 1682388836565,
            "trialTime": 0
        },
        {
            "exptPart": "trial",
            "trialNumber": 28,
            "roleCurrent": "receiver",
            "marblesSampled": 100,
            "probRed": 0.5,
            "practiceLambda": 5,
            "trialLambda": 8.1,
            "instructedLambda": "dishonest_small",
            "sd": 8.1,
            "drawnRed": 68,
            "reportedRed": 85,
            "inferredRed": 90,
            "playerTrialScore": -22,
            "oppTrialScore": 22,
            "playerTotalScore": -266,
            "oppTotalScore": 240,
            "waitTime": 5804.399898808679,
            "responseTime": 1682388933898,
            "catchQuestion": "How many <b class=\"r\">red<\/b> marbles did your opponent report drawing? ",
            "catchKey": -1,
            "catchResponse": -1,
            "catchTime": 1682388836565,
            "trialTime": 0
        },
        {
            "exptPart": "trial",
            "trialNumber": 29,
            "roleCurrent": "receiver",
            "marblesSampled": 100,
            "probRed": 0.5,
            "practiceLambda": 5,
            "trialLambda": 8.1,
            "instructedLambda": "dishonest_small",
            "sd": 8.1,
            "drawnRed": 37,
            "reportedRed": 51,
            "inferredRed": 60,
            "playerTrialScore": -23,
            "oppTrialScore": 23,
            "playerTotalScore": -289,
            "oppTotalScore": 263,
            "waitTime": 5962.657090256729,
            "responseTime": 1682388952306,
            "catchQuestion": "How many <b class=\"r\">red<\/b> marbles did your opponent report drawing? ",
            "catchKey": -1,
            "catchResponse": -1,
            "catchTime": 1682388836565,
            "trialTime": 0
        },
        {
            "exptPart": "trial",
            "trialNumber": 30,
            "roleCurrent": "receiver",
            "marblesSampled": 100,
            "probRed": 0.5,
            "practiceLambda": 5,
            "trialLambda": 8.1,
            "instructedLambda": "dishonest_small",
            "sd": 8.1,
            "drawnRed": 34,
            "reportedRed": 51,
            "inferredRed": 60,
            "playerTrialScore": -26,
            "oppTrialScore": 26,
            "playerTotalScore": -315,
            "oppTotalScore": 289,
            "waitTime": 6956.321813939974,
            "responseTime": 1682388967565,
            "catchQuestion": "How many <b class=\"r\">red<\/b> marbles did your opponent report drawing? ",
            "catchKey": -1,
            "catchResponse": -1,
            "catchTime": 1682388967565,
            "trialTime": 0
        },
        {
            "exptPart": "trial",
            "trialNumber": 31,
            "roleCurrent": "receiver",
            "marblesSampled": 100,
            "probRed": 0.5,
            "practiceLambda": 5,
            "trialLambda": 8.1,
            "instructedLambda": "dishonest_small",
            "sd": 8.1,
            "drawnRed": 14,
            "reportedRed": 27,
            "inferredRed": 27,
            "playerTrialScore": -13,
            "oppTrialScore": 13,
            "playerTotalScore": -328,
            "oppTotalScore": 302,
            "waitTime": 5531.505279233403,
            "responseTime": 1682388983175,
            "catchQuestion": "How many <b class=\"r\">red<\/b> marbles did your opponent report drawing? ",
            "catchKey": -1,
            "catchResponse": -1,
            "catchTime": 1682388967565,
            "trialTime": 0
        },
        {
            "exptPart": "trial",
            "trialNumber": 32,
            "roleCurrent": "receiver",
            "marblesSampled": 100,
            "probRed": 0.5,
            "practiceLambda": 5,
            "trialLambda": 8.1,
            "instructedLambda": "dishonest_small",
            "sd": 8.1,
            "drawnRed": 65,
            "reportedRed": 73,
            "inferredRed": 73,
            "playerTrialScore": -8,
            "oppTrialScore": 8,
            "playerTotalScore": -336,
            "oppTotalScore": 310,
            "waitTime": 5374.981324171072,
            "responseTime": 1682388991996,
            "catchQuestion": "How many <b class=\"r\">red<\/b> marbles did your opponent report drawing? ",
            "catchKey": -1,
            "catchResponse": -1,
            "catchTime": 1682388967565,
            "trialTime": 0
        },
        {
            "exptPart": "trial",
            "trialNumber": 33,
            "roleCurrent": "receiver",
            "marblesSampled": 100,
            "probRed": 0.5,
            "practiceLambda": 5,
            "trialLambda": 8.1,
            "instructedLambda": "dishonest_small",
            "sd": 8.1,
            "drawnRed": 60,
            "reportedRed": 64,
            "inferredRed": 64,
            "playerTrialScore": -4,
            "oppTrialScore": 4,
            "playerTotalScore": -340,
            "oppTotalScore": 314,
            "waitTime": 6086.625294407133,
            "responseTime": 1682389001293,
            "catchQuestion": "How many <b class=\"r\">red<\/b> marbles did your opponent report drawing? ",
            "catchKey": -1,
            "catchResponse": -1,
            "catchTime": 1682388967565,
            "trialTime": 0
        },
        {
            "exptPart": "trial",
            "trialNumber": 34,
            "roleCurrent": "receiver",
            "marblesSampled": 100,
            "probRed": 0.5,
            "practiceLambda": 5,
            "trialLambda": 8.1,
            "instructedLambda": "dishonest_small",
            "sd": 8.1,
            "drawnRed": 48,
            "reportedRed": 53,
            "inferredRed": 53,
            "playerTrialScore": -5,
            "oppTrialScore": 5,
            "playerTotalScore": -345,
            "oppTotalScore": 319,
            "waitTime": 7014.500701259312,
            "responseTime": 1682389011954,
            "catchQuestion": "How many <b class=\"r\">red<\/b> marbles did your opponent report drawing? ",
            "catchKey": 53,
            "catchResponse": 53,
            "catchTime": 1682389011954,
            "trialTime": 0
        },
        {
            "exptPart": "trial",
            "trialNumber": 35,
            "roleCurrent": "receiver",
            "marblesSampled": 100,
            "probRed": 0.5,
            "practiceLambda": 5,
            "trialLambda": 8.1,
            "instructedLambda": "dishonest_small",
            "sd": 8.1,
            "drawnRed": 62,
            "reportedRed": 58,
            "inferredRed": 60,
            "playerTrialScore": -2,
            "oppTrialScore": 0,
            "playerTotalScore": -347,
            "oppTotalScore": 319,
            "waitTime": 7225.828593832061,
            "responseTime": 1682389031338,
            "catchQuestion": "How many <b class=\"r\">red<\/b> marbles did your opponent report drawing? ",
            "catchKey": -1,
            "catchResponse": -1,
            "catchTime": 1682389011954,
            "trialTime": 0
        },
        {
            "exptPart": "trial",
            "trialNumber": 36,
            "roleCurrent": "receiver",
            "marblesSampled": 100,
            "probRed": 0.5,
            "practiceLambda": 5,
            "trialLambda": 8.1,
            "instructedLambda": "dishonest_small",
            "sd": 8.1,
            "drawnRed": 64,
            "reportedRed": 60,
            "inferredRed": 60,
            "playerTrialScore": -4,
            "oppTrialScore": 0,
            "playerTotalScore": -351,
            "oppTotalScore": 319,
            "waitTime": 6118.738290895337,
            "responseTime": 1682389040330,
            "catchQuestion": "How many <b class=\"r\">red<\/b> marbles did your opponent report drawing? ",
            "catchKey": -1,
            "catchResponse": -1,
            "catchTime": 1682389011954,
            "trialTime": 0
        },
        {
            "exptPart": "trial",
            "trialNumber": 37,
            "roleCurrent": "receiver",
            "marblesSampled": 100,
            "probRed": 0.5,
            "practiceLambda": 5,
            "trialLambda": 8.1,
            "instructedLambda": "dishonest_small",
            "sd": 8.1,
            "drawnRed": 44,
            "reportedRed": 54,
            "inferredRed": 54,
            "playerTrialScore": -10,
            "oppTrialScore": 10,
            "playerTotalScore": -361,
            "oppTotalScore": 329,
            "waitTime": 7468.05912695627,
            "responseTime": 1682389050594,
            "catchQuestion": "How many <b class=\"r\">red<\/b> marbles did your opponent report drawing? ",
            "catchKey": -1,
            "catchResponse": -1,
            "catchTime": 1682389011954,
            "trialTime": 0
        },
        {
            "exptPart": "trial",
            "trialNumber": 38,
            "roleCurrent": "receiver",
            "marblesSampled": 100,
            "probRed": 0.5,
            "practiceLambda": 5,
            "trialLambda": 8.1,
            "instructedLambda": "dishonest_small",
            "sd": 8.1,
            "drawnRed": 44,
            "reportedRed": 58,
            "inferredRed": 58,
            "playerTrialScore": -14,
            "oppTrialScore": 14,
            "playerTotalScore": -375,
            "oppTotalScore": 343,
            "waitTime": 6470.923498146137,
            "responseTime": 1682389061457,
            "catchQuestion": "How many <b class=\"r\">red<\/b> marbles did your opponent report drawing? ",
            "catchKey": -1,
            "catchResponse": -1,
            "catchTime": 1682389011954,
            "trialTime": 0
        },
        {
            "exptPart": "trial",
            "trialNumber": 39,
            "roleCurrent": "receiver",
            "marblesSampled": 100,
            "probRed": 0.5,
            "practiceLambda": 5,
            "trialLambda": 8.1,
            "instructedLambda": "dishonest_small",
            "sd": 8.1,
            "drawnRed": 65,
            "reportedRed": 79,
            "inferredRed": 79,
            "playerTrialScore": -14,
            "oppTrialScore": 14,
            "playerTotalScore": -389,
            "oppTotalScore": 357,
            "waitTime": 7281.517941434757,
            "responseTime": 1682389071496,
            "catchQuestion": "How many <b class=\"r\">red<\/b> marbles did your opponent report drawing? ",
            "catchKey": -1,
            "catchResponse": -1,
            "catchTime": 1682389011954,
            "trialTime": 0
        },
        {
            "exptPart": "trial",
            "trialNumber": 40,
            "roleCurrent": "receiver",
            "marblesSampled": 100,
            "probRed": 0.5,
            "practiceLambda": 5,
            "trialLambda": 8.1,
            "instructedLambda": "dishonest_small",
            "sd": 8.1,
            "drawnRed": 61,
            "reportedRed": 65,
            "inferredRed": 65,
            "playerTrialScore": -4,
            "oppTrialScore": 4,
            "playerTotalScore": -393,
            "oppTotalScore": 361,
            "waitTime": 6661.620402123341,
            "responseTime": 1682389080483,
            "catchQuestion": "How many <b class=\"r\">red<\/b> marbles did your opponent report drawing? ",
            "catchKey": -1,
            "catchResponse": -1,
            "catchTime": 1682389080483,
            "trialTime": 0
        },
        {
            "exptPart": "trial",
            "trialNumber": 41,
            "roleCurrent": "receiver",
            "marblesSampled": 100,
            "probRed": 0.5,
            "practiceLambda": 5,
            "trialLambda": 8.1,
            "instructedLambda": "dishonest_small",
            "sd": 8.1,
            "drawnRed": 18,
            "reportedRed": 33,
            "inferredRed": 33,
            "playerTrialScore": -15,
            "oppTrialScore": 15,
            "playerTotalScore": -408,
            "oppTotalScore": 376,
            "waitTime": 5191.0245557378075,
            "responseTime": 1682389090455,
            "catchQuestion": "How many <b class=\"r\">red<\/b> marbles did your opponent report drawing? ",
            "catchKey": -1,
            "catchResponse": -1,
            "catchTime": 1682389080483,
            "trialTime": 0
        },
        {
            "exptPart": "trial",
            "trialNumber": 42,
            "roleCurrent": "receiver",
            "marblesSampled": 100,
            "probRed": 0.5,
            "practiceLambda": 5,
            "trialLambda": 8.1,
            "instructedLambda": "dishonest_small",
            "sd": 8.1,
            "drawnRed": 32,
            "reportedRed": 36,
            "inferredRed": 40,
            "playerTrialScore": -8,
            "oppTrialScore": 8,
            "playerTotalScore": -416,
            "oppTotalScore": 384,
            "waitTime": 6332.0925598797585,
            "responseTime": 1682389100363,
            "catchQuestion": "How many <b class=\"r\">red<\/b> marbles did your opponent report drawing? ",
            "catchKey": -1,
            "catchResponse": -1,
            "catchTime": 1682389080483,
            "trialTime": 0
        },
        {
            "exptPart": "trial",
            "trialNumber": 43,
            "roleCurrent": "receiver",
            "marblesSampled": 100,
            "probRed": 0.5,
            "practiceLambda": 5,
            "trialLambda": 8.1,
            "instructedLambda": "dishonest_small",
            "sd": 8.1,
            "drawnRed": 77,
            "reportedRed": 95,
            "inferredRed": 95,
            "playerTrialScore": -18,
            "oppTrialScore": 18,
            "playerTotalScore": -434,
            "oppTotalScore": 402,
            "waitTime": 5580.076252139581,
            "responseTime": 1682389111249,
            "catchQuestion": "How many <b class=\"r\">red<\/b> marbles did your opponent report drawing? ",
            "catchKey": -1,
            "catchResponse": -1,
            "catchTime": 1682389080483,
            "trialTime": 0
        },
        {
            "exptPart": "trial",
            "trialNumber": 44,
            "roleCurrent": "receiver",
            "marblesSampled": 100,
            "probRed": 0.5,
            "practiceLambda": 5,
            "trialLambda": 8.1,
            "instructedLambda": "dishonest_small",
            "sd": 8.1,
            "drawnRed": 48,
            "reportedRed": 54,
            "inferredRed": 54,
            "playerTrialScore": -6,
            "oppTrialScore": 6,
            "playerTotalScore": -440,
            "oppTotalScore": 408,
            "waitTime": 5505.660713591737,
            "responseTime": 1682389120204,
            "catchQuestion": "How many <b class=\"r\">red<\/b> marbles did your opponent report drawing? ",
            "catchKey": -1,
            "catchResponse": -1,
            "catchTime": 1682389080483,
            "trialTime": 0
        },
        {
            "exptPart": "trial",
            "trialNumber": 45,
            "roleCurrent": "receiver",
            "marblesSampled": 100,
            "probRed": 0.5,
            "practiceLambda": 5,
            "trialLambda": 8.1,
            "instructedLambda": "dishonest_small",
            "sd": 8.1,
            "drawnRed": 54,
            "reportedRed": 83,
            "inferredRed": 83,
            "playerTrialScore": -29,
            "oppTrialScore": 29,
            "playerTotalScore": -469,
            "oppTotalScore": 437,
            "waitTime": 6439.012572592863,
            "responseTime": 1682389135006,
            "catchQuestion": "How many <b class=\"r\">red<\/b> marbles did your opponent report drawing? ",
            "catchKey": -1,
            "catchResponse": -1,
            "catchTime": 1682389080483,
            "trialTime": 0
        },
        {
            "exptPart": "trial",
            "trialNumber": 46,
            "roleCurrent": "receiver",
            "marblesSampled": 100,
            "probRed": 0.5,
            "practiceLambda": 5,
            "trialLambda": 8.1,
            "instructedLambda": "dishonest_small",
            "sd": 8.1,
            "drawnRed": 22,
            "reportedRed": 35,
            "inferredRed": 35,
            "playerTrialScore": -13,
            "oppTrialScore": 13,
            "playerTotalScore": -482,
            "oppTotalScore": 450,
            "waitTime": 6424.44529803435,
            "responseTime": 1682389144189,
            "catchQuestion": "How many <b class=\"r\">red<\/b> marbles did your opponent report drawing? ",
            "catchKey": -1,
            "catchResponse": -1,
            "catchTime": 1682389080483,
            "trialTime": 0
        },
        {
            "exptPart": "trial",
            "trialNumber": 47,
            "roleCurrent": "receiver",
            "marblesSampled": 100,
            "probRed": 0.5,
            "practiceLambda": 5,
            "trialLambda": 8.1,
            "instructedLambda": "dishonest_small",
            "sd": 8.1,
            "drawnRed": 69,
            "reportedRed": 77,
            "inferredRed": 77,
            "playerTrialScore": -8,
            "oppTrialScore": 8,
            "playerTotalScore": -490,
            "oppTotalScore": 458,
            "waitTime": 7091.7929728135405,
            "responseTime": 1682389154145,
            "catchQuestion": "How many <b class=\"r\">red<\/b> marbles did your opponent report drawing? ",
            "catchKey": -1,
            "catchResponse": -1,
            "catchTime": 1682389080483,
            "trialTime": 0
        },
        {
            "exptPart": "trial",
            "trialNumber": 48,
            "roleCurrent": "receiver",
            "marblesSampled": 100,
            "probRed": 0.5,
            "practiceLambda": 5,
            "trialLambda": 8.1,
            "instructedLambda": "dishonest_small",
            "sd": 8.1,
            "drawnRed": 58,
            "reportedRed": 73,
            "inferredRed": 73,
            "playerTrialScore": -15,
            "oppTrialScore": 15,
            "playerTotalScore": -505,
            "oppTotalScore": 473,
            "waitTime": 6520.486128472237,
            "responseTime": 1682389163579,
            "catchQuestion": "How many <b class=\"r\">red<\/b> marbles did your opponent report drawing? ",
            "catchKey": -1,
            "catchResponse": -1,
            "catchTime": 1682389080483,
            "trialTime": 0
        },
        {
            "exptPart": "trial",
            "trialNumber": 49,
            "roleCurrent": "receiver",
            "marblesSampled": 100,
            "probRed": 0.5,
            "practiceLambda": 5,
            "trialLambda": 8.1,
            "instructedLambda": "dishonest_small",
            "sd": 8.1,
            "drawnRed": 30,
            "reportedRed": 38,
            "inferredRed": 38,
            "playerTrialScore": -8,
            "oppTrialScore": 8,
            "playerTotalScore": -513,
            "oppTotalScore": 481,
            "waitTime": 6002.567502159782,
            "responseTime": 1682389174540,
            "catchQuestion": "How many <b class=\"r\">red<\/b> marbles did your opponent report drawing? ",
            "catchKey": -1,
            "catchResponse": -1,
            "catchTime": 1682389080483,
            "trialTime": 0
        },
        {
            "exptPart": "trial",
            "trialNumber": 50,
            "roleCurrent": "receiver",
            "marblesSampled": 100,
            "probRed": 0.5,
            "practiceLambda": 5,
            "trialLambda": 8.1,
            "instructedLambda": "dishonest_small",
            "sd": 8.1,
            "drawnRed": 73,
            "reportedRed": 93,
            "inferredRed": 93,
            "playerTrialScore": -20,
            "oppTrialScore": 20,
            "playerTotalScore": -533,
            "oppTotalScore": 501,
            "waitTime": 6178.859724867791,
            "responseTime": 1682389201149,
            "catchQuestion": "How many <b class=\"r\">red<\/b> marbles did your opponent report drawing? ",
            "catchKey": -1,
            "catchResponse": -1,
            "catchTime": 1682389201149,
            "trialTime": 0
        },
        {
            "exptPart": "trial",
            "trialNumber": 51,
            "roleCurrent": "receiver",
            "marblesSampled": 100,
            "probRed": 0.5,
            "practiceLambda": 5,
            "trialLambda": 8.1,
            "instructedLambda": "dishonest_small",
            "sd": 8.1,
            "drawnRed": 53,
            "reportedRed": 70,
            "inferredRed": 70,
            "playerTrialScore": -17,
            "oppTrialScore": 17,
            "playerTotalScore": -550,
            "oppTotalScore": 518,
            "waitTime": 7359.8963203927815,
            "responseTime": 1682389215354,
            "catchQuestion": "How many <b class=\"r\">red<\/b> marbles did your opponent report drawing? ",
            "catchKey": -1,
            "catchResponse": -1,
            "catchTime": 1682389201149,
            "trialTime": 0
        },
        {
            "exptPart": "trial",
            "trialNumber": 52,
            "roleCurrent": "receiver",
            "marblesSampled": 100,
            "probRed": 0.5,
            "practiceLambda": 5,
            "trialLambda": 8.1,
            "instructedLambda": "dishonest_small",
            "sd": 8.1,
            "drawnRed": 33,
            "reportedRed": 47,
            "inferredRed": 47,
            "playerTrialScore": -14,
            "oppTrialScore": 14,
            "playerTotalScore": -564,
            "oppTotalScore": 532,
            "waitTime": 6356.587453710609,
            "responseTime": 1682389224466,
            "catchQuestion": "How many <b class=\"r\">red<\/b> marbles did your opponent report drawing? ",
            "catchKey": -1,
            "catchResponse": -1,
            "catchTime": 1682389201149,
            "trialTime": 0
        },
        {
            "exptPart": "trial",
            "trialNumber": 53,
            "roleCurrent": "receiver",
            "marblesSampled": 100,
            "probRed": 0.5,
            "practiceLambda": 5,
            "trialLambda": 8.1,
            "instructedLambda": "dishonest_small",
            "sd": 8.1,
            "drawnRed": 57,
            "reportedRed": 68,
            "inferredRed": 68,
            "playerTrialScore": -11,
            "oppTrialScore": 11,
            "playerTotalScore": -575,
            "oppTotalScore": 543,
            "waitTime": 6434.012190847307,
            "responseTime": 1682389242616,
            "catchQuestion": "How many <b class=\"r\">red<\/b> marbles did your opponent report drawing? ",
            "catchKey": -1,
            "catchResponse": -1,
            "catchTime": 1682389201149,
            "trialTime": 0
        },
        {
            "exptPart": "trial",
            "trialNumber": 54,
            "roleCurrent": "receiver",
            "marblesSampled": 100,
            "probRed": 0.5,
            "practiceLambda": 5,
            "trialLambda": 8.1,
            "instructedLambda": "dishonest_small",
            "sd": 8.1,
            "drawnRed": 62,
            "reportedRed": 71,
            "inferredRed": 71,
            "playerTrialScore": -9,
            "oppTrialScore": 9,
            "playerTotalScore": -584,
            "oppTotalScore": 552,
            "waitTime": 5172.305432208697,
            "responseTime": 1682389250983,
            "catchQuestion": "How many <b class=\"r\">red<\/b> marbles did your opponent report drawing? ",
            "catchKey": -1,
            "catchResponse": -1,
            "catchTime": 1682389201149,
            "trialTime": 0
        },
        {
            "exptPart": "trial",
            "trialNumber": 55,
            "roleCurrent": "receiver",
            "marblesSampled": 100,
            "probRed": 0.5,
            "practiceLambda": 5,
            "trialLambda": 8.1,
            "instructedLambda": "dishonest_small",
            "sd": 8.1,
            "drawnRed": 64,
            "reportedRed": 83,
            "inferredRed": 70,
            "playerTrialScore": -6,
            "oppTrialScore": 6,
            "playerTotalScore": -590,
            "oppTotalScore": 558,
            "waitTime": 6991.728449340057,
            "responseTime": 1682389270766,
            "catchQuestion": "How many <b class=\"r\">red<\/b> marbles did your opponent report drawing? ",
            "catchKey": 83,
            "catchResponse": 83,
            "catchTime": 1682389270766,
            "trialTime": 0
        },
        {
            "exptPart": "trial",
            "trialNumber": 56,
            "roleCurrent": "receiver",
            "marblesSampled": 100,
            "probRed": 0.5,
            "practiceLambda": 5,
            "trialLambda": 8.1,
            "instructedLambda": "dishonest_small",
            "sd": 8.1,
            "drawnRed": 51,
            "reportedRed": 56,
            "inferredRed": 56,
            "playerTrialScore": -5,
            "oppTrialScore": 5,
            "playerTotalScore": -595,
            "oppTotalScore": 563,
            "waitTime": 5826.754075690646,
            "responseTime": 1682389286815,
            "catchQuestion": "How many <b class=\"r\">red<\/b> marbles did your opponent report drawing? ",
            "catchKey": 56,
            "catchResponse": 56,
            "catchTime": 1682389286815,
            "trialTime": 0
        },
        {
            "exptPart": "trial",
            "trialNumber": 57,
            "roleCurrent": "receiver",
            "marblesSampled": 100,
            "probRed": 0.5,
            "practiceLambda": 5,
            "trialLambda": 8.1,
            "instructedLambda": "dishonest_small",
            "sd": 8.1,
            "drawnRed": 42,
            "reportedRed": 66,
            "inferredRed": 66,
            "playerTrialScore": -24,
            "oppTrialScore": 24,
            "playerTotalScore": -619,
            "oppTotalScore": 587,
            "waitTime": 6310.847032563083,
            "responseTime": 1682389300168,
            "catchQuestion": "How many <b class=\"r\">red<\/b> marbles did your opponent report drawing? ",
            "catchKey": -1,
            "catchResponse": -1,
            "catchTime": 1682389286815,
            "trialTime": 0
        },
        {
            "exptPart": "trial",
            "trialNumber": 58,
            "roleCurrent": "receiver",
            "marblesSampled": 100,
            "probRed": 0.5,
            "practiceLambda": 5,
            "trialLambda": 8.1,
            "instructedLambda": "dishonest_small",
            "sd": 8.1,
            "drawnRed": 23,
            "reportedRed": 23,
            "inferredRed": 23,
            "playerTrialScore": 0,
            "oppTrialScore": 0,
            "playerTotalScore": -619,
            "oppTotalScore": 587,
            "waitTime": 5297.991272453317,
            "responseTime": 1682389307557,
            "catchQuestion": "How many <b class=\"r\">red<\/b> marbles did your opponent report drawing? ",
            "catchKey": -1,
            "catchResponse": -1,
            "catchTime": 1682389286815,
            "trialTime": 0
        },
        {
            "exptPart": "trial",
            "trialNumber": 59,
            "roleCurrent": "receiver",
            "marblesSampled": 100,
            "probRed": 0.5,
            "practiceLambda": 5,
            "trialLambda": 8.1,
            "instructedLambda": "dishonest_small",
            "sd": 8.1,
            "drawnRed": 34,
            "reportedRed": 38,
            "inferredRed": 35,
            "playerTrialScore": -1,
            "oppTrialScore": 1,
            "playerTotalScore": -620,
            "oppTotalScore": 588,
            "waitTime": 5345.744178605622,
            "responseTime": 1682389316764,
            "catchQuestion": "How many <b class=\"r\">red<\/b> marbles did your opponent report drawing? ",
            "catchKey": -1,
            "catchResponse": -1,
            "catchTime": 1682389286815,
            "trialTime": 0
        },
        {
            "exptPart": "trial",
            "trialNumber": 60,
            "roleCurrent": "receiver",
            "marblesSampled": 100,
            "probRed": 0.5,
            "practiceLambda": 5,
            "trialLambda": 8.1,
            "instructedLambda": "dishonest_small",
            "sd": 8.1,
            "drawnRed": 86,
            "reportedRed": 84,
            "inferredRed": 84,
            "playerTrialScore": -2,
            "oppTrialScore": 0,
            "playerTotalScore": -622,
            "oppTotalScore": 588,
            "waitTime": 6115.564498240665,
            "responseTime": 1682389325584,
            "catchQuestion": "How many <b class=\"r\">red<\/b> marbles did your opponent report drawing? ",
            "catchKey": -1,
            "catchResponse": -1,
            "catchTime": 1682389325585,
            "trialTime": 0
        },
        {
            "exptPart": "trial",
            "trialNumber": 61,
            "roleCurrent": "receiver",
            "marblesSampled": 100,
            "probRed": 0.5,
            "practiceLambda": 5,
            "trialLambda": 8.1,
            "instructedLambda": "dishonest_small",
            "sd": 8.1,
            "drawnRed": 57,
            "reportedRed": 78,
            "inferredRed": 78,
            "playerTrialScore": -21,
            "oppTrialScore": 21,
            "playerTotalScore": -643,
            "oppTotalScore": 609,
            "waitTime": 5266.45539248897,
            "responseTime": 1682389335188,
            "catchQuestion": "How many <b class=\"r\">red<\/b> marbles did your opponent report drawing? ",
            "catchKey": -1,
            "catchResponse": -1,
            "catchTime": 1682389325585,
            "trialTime": 0
        },
        {
            "exptPart": "trial",
            "trialNumber": 62,
            "roleCurrent": "receiver",
            "marblesSampled": 100,
            "probRed": 0.5,
            "practiceLambda": 5,
            "trialLambda": 8.1,
            "instructedLambda": "dishonest_small",
            "sd": 8.1,
            "drawnRed": 32,
            "reportedRed": 38,
            "inferredRed": 35,
            "playerTrialScore": -3,
            "oppTrialScore": 3,
            "playerTotalScore": -646,
            "oppTotalScore": 612,
            "waitTime": 5432.037687609857,
            "responseTime": 1682389344851,
            "catchQuestion": "How many <b class=\"r\">red<\/b> marbles did your opponent report drawing? ",
            "catchKey": -1,
            "catchResponse": -1,
            "catchTime": 1682389325585,
            "trialTime": 0
        },
        {
            "exptPart": "trial",
            "trialNumber": 63,
            "roleCurrent": "receiver",
            "marblesSampled": 100,
            "probRed": 0.5,
            "practiceLambda": 5,
            "trialLambda": 8.1,
            "instructedLambda": "dishonest_small",
            "sd": 8.1,
            "drawnRed": 46,
            "reportedRed": 72,
            "inferredRed": 72,
            "playerTrialScore": -26,
            "oppTrialScore": 26,
            "playerTotalScore": -672,
            "oppTotalScore": 638,
            "waitTime": 6970.8792977634685,
            "responseTime": 1682389354627,
            "catchQuestion": "How many <b class=\"r\">red<\/b> marbles did your opponent report drawing? ",
            "catchKey": -1,
            "catchResponse": -1,
            "catchTime": 1682389325585,
            "trialTime": 0
        },
        {
            "exptPart": "trial",
            "trialNumber": 64,
            "roleCurrent": "receiver",
            "marblesSampled": 100,
            "probRed": 0.5,
            "practiceLambda": 5,
            "trialLambda": 8.1,
            "instructedLambda": "dishonest_small",
            "sd": 8.1,
            "drawnRed": 57,
            "reportedRed": 59,
            "inferredRed": 59,
            "playerTrialScore": -2,
            "oppTrialScore": 2,
            "playerTotalScore": -674,
            "oppTotalScore": 640,
            "waitTime": 6526.691039465103,
            "responseTime": 1682389364426,
            "catchQuestion": "How many <b class=\"r\">red<\/b> marbles did your opponent report drawing? ",
            "catchKey": -1,
            "catchResponse": -1,
            "catchTime": 1682389325585,
            "trialTime": 0
        },
        {
            "exptPart": "trial",
            "trialNumber": 65,
            "roleCurrent": "receiver",
            "marblesSampled": 100,
            "probRed": 0.5,
            "practiceLambda": 5,
            "trialLambda": 8.1,
            "instructedLambda": "dishonest_small",
            "sd": 8.1,
            "drawnRed": 43,
            "reportedRed": 55,
            "inferredRed": 55,
            "playerTrialScore": -12,
            "oppTrialScore": 12,
            "playerTotalScore": -686,
            "oppTotalScore": 652,
            "waitTime": 7482.3477085211325,
            "responseTime": 1682389375013,
            "catchQuestion": "How many <b class=\"r\">red<\/b> marbles did your opponent report drawing? ",
            "catchKey": -1,
            "catchResponse": -1,
            "catchTime": 1682389325585,
            "trialTime": 0
        },
        {
            "exptPart": "trial",
            "trialNumber": 66,
            "roleCurrent": "receiver",
            "marblesSampled": 100,
            "probRed": 0.5,
            "practiceLambda": 5,
            "trialLambda": 8.1,
            "instructedLambda": "dishonest_small",
            "sd": 8.1,
            "drawnRed": 30,
            "reportedRed": 32,
            "inferredRed": 32,
            "playerTrialScore": -2,
            "oppTrialScore": 2,
            "playerTotalScore": -688,
            "oppTotalScore": 654,
            "waitTime": 5247.077386906136,
            "responseTime": 1682389405071,
            "catchQuestion": "How many <b class=\"r\">red<\/b> marbles did your opponent report drawing? ",
            "catchKey": -1,
            "catchResponse": -1,
            "catchTime": 1682389325585,
            "trialTime": 0
        },
        {
            "exptPart": "trial",
            "trialNumber": 67,
            "roleCurrent": "receiver",
            "marblesSampled": 100,
            "probRed": 0.5,
            "practiceLambda": 5,
            "trialLambda": 8.1,
            "instructedLambda": "dishonest_small",
            "sd": 8.1,
            "drawnRed": 80,
            "reportedRed": 74,
            "inferredRed": 74,
            "playerTrialScore": -6,
            "oppTrialScore": 0,
            "playerTotalScore": -694,
            "oppTotalScore": 654,
            "waitTime": 6459.464203720988,
            "responseTime": 1682389418677,
            "catchQuestion": "How many <b class=\"r\">red<\/b> marbles did your opponent report drawing? ",
            "catchKey": 74,
            "catchResponse": 74,
            "catchTime": 1682389418677,
            "trialTime": 0
        },
        {
            "exptPart": "trial",
            "trialNumber": 68,
            "roleCurrent": "receiver",
            "marblesSampled": 100,
            "probRed": 0.5,
            "practiceLambda": 5,
            "trialLambda": 8.1,
            "instructedLambda": "dishonest_small",
            "sd": 8.1,
            "drawnRed": 56,
            "reportedRed": 54,
            "inferredRed": 54,
            "playerTrialScore": -2,
            "oppTrialScore": 0,
            "playerTotalScore": -696,
            "oppTotalScore": 654,
            "waitTime": 6124.965291946193,
            "responseTime": 1682389434613,
            "catchQuestion": "How many <b class=\"r\">red<\/b> marbles did your opponent report drawing? ",
            "catchKey": -1,
            "catchResponse": -1,
            "catchTime": 1682389418677,
            "trialTime": 0
        },
        {
            "exptPart": "trial",
            "trialNumber": 69,
            "roleCurrent": "receiver",
            "marblesSampled": 100,
            "probRed": 0.5,
            "practiceLambda": 5,
            "trialLambda": 8.1,
            "instructedLambda": "dishonest_small",
            "sd": 8.1,
            "drawnRed": 63,
            "reportedRed": 66,
            "inferredRed": 66,
            "playerTrialScore": -3,
            "oppTrialScore": 3,
            "playerTotalScore": -699,
            "oppTotalScore": 657,
            "waitTime": 6409.110244950573,
            "responseTime": 1682389443945,
            "catchQuestion": "How many <b class=\"r\">red<\/b> marbles did your opponent report drawing? ",
            "catchKey": -1,
            "catchResponse": -1,
            "catchTime": 1682389418677,
            "trialTime": 0
        },
        {
            "exptPart": "trial",
            "trialNumber": 70,
            "roleCurrent": "receiver",
            "marblesSampled": 100,
            "probRed": 0.5,
            "practiceLambda": 5,
            "trialLambda": 8.1,
            "instructedLambda": "dishonest_small",
            "sd": 8.1,
            "drawnRed": 66,
            "reportedRed": 66,
            "inferredRed": 66,
            "playerTrialScore": 0,
            "oppTrialScore": 0,
            "playerTotalScore": -699,
            "oppTotalScore": 657,
            "waitTime": 5342.441793160191,
            "responseTime": 1682389451107,
            "catchQuestion": "How many <b class=\"r\">red<\/b> marbles did your opponent report drawing? ",
            "catchKey": -1,
            "catchResponse": -1,
            "catchTime": 1682389451107,
            "trialTime": 0
        },
        {
            "exptPart": "trial",
            "trialNumber": 71,
            "roleCurrent": "receiver",
            "marblesSampled": 100,
            "probRed": 0.5,
            "practiceLambda": 5,
            "trialLambda": 8.1,
            "instructedLambda": "dishonest_small",
            "sd": 8.1,
            "drawnRed": 36,
            "reportedRed": 43,
            "inferredRed": 43,
            "playerTrialScore": -7,
            "oppTrialScore": 7,
            "playerTotalScore": -706,
            "oppTotalScore": 664,
            "waitTime": 5740.513370145827,
            "responseTime": 1682389460089,
            "catchQuestion": "How many <b class=\"r\">red<\/b> marbles did your opponent report drawing? ",
            "catchKey": -1,
            "catchResponse": -1,
            "catchTime": 1682389451107,
            "trialTime": 0
        },
        {
            "exptPart": "trial",
            "trialNumber": 72,
            "roleCurrent": "receiver",
            "marblesSampled": 100,
            "probRed": 0.5,
            "practiceLambda": 5,
            "trialLambda": 8.1,
            "instructedLambda": "dishonest_small",
            "sd": 8.1,
            "drawnRed": 71,
            "reportedRed": 76,
            "inferredRed": 76,
            "playerTrialScore": -5,
            "oppTrialScore": 5,
            "playerTotalScore": -711,
            "oppTotalScore": 669,
            "waitTime": 5336.18580559104,
            "responseTime": 1682389468745,
            "catchQuestion": "How many <b class=\"r\">red<\/b> marbles did your opponent report drawing? ",
            "catchKey": -1,
            "catchResponse": -1,
            "catchTime": 1682389451107,
            "trialTime": 0
        },
        {
            "exptPart": "trial",
            "trialNumber": 73,
            "roleCurrent": "receiver",
            "marblesSampled": 100,
            "probRed": 0.5,
            "practiceLambda": 5,
            "trialLambda": 8.1,
            "instructedLambda": "dishonest_small",
            "sd": 8.1,
            "drawnRed": 64,
            "reportedRed": 75,
            "inferredRed": 75,
            "playerTrialScore": -11,
            "oppTrialScore": 11,
            "playerTotalScore": -722,
            "oppTotalScore": 680,
            "waitTime": 6660.8548804175425,
            "responseTime": 1682389477584,
            "catchQuestion": "How many <b class=\"r\">red<\/b> marbles did your opponent report drawing? ",
            "catchKey": -1,
            "catchResponse": -1,
            "catchTime": 1682389451107,
            "trialTime": 0
        },
        {
            "exptPart": "trial",
            "trialNumber": 74,
            "roleCurrent": "receiver",
            "marblesSampled": 100,
            "probRed": 0.5,
            "practiceLambda": 5,
            "trialLambda": 8.1,
            "instructedLambda": "dishonest_small",
            "sd": 8.1,
            "drawnRed": 40,
            "reportedRed": 43,
            "inferredRed": 40,
            "playerTrialScore": 0,
            "oppTrialScore": 0,
            "playerTotalScore": -722,
            "oppTotalScore": 680,
            "waitTime": 6181.045128138942,
            "responseTime": 1682389486462,
            "catchQuestion": "How many <b class=\"r\">red<\/b> marbles did your opponent report drawing? ",
            "catchKey": -1,
            "catchResponse": -1,
            "catchTime": 1682389451107,
            "trialTime": 0
        },
        {
            "exptPart": "trial",
            "trialNumber": 75,
            "roleCurrent": "receiver",
            "marblesSampled": 100,
            "probRed": 0.5,
            "practiceLambda": 5,
            "trialLambda": 8.1,
            "instructedLambda": "dishonest_small",
            "sd": 8.1,
            "drawnRed": 53,
            "reportedRed": 60,
            "inferredRed": 50,
            "playerTrialScore": -3,
            "oppTrialScore": 0,
            "playerTotalScore": -725,
            "oppTotalScore": 680,
            "waitTime": 5942.7862197753275,
            "responseTime": 1682389495021,
            "catchQuestion": "How many <b class=\"r\">red<\/b> marbles did your opponent report drawing? ",
            "catchKey": -1,
            "catchResponse": -1,
            "catchTime": 1682389451107,
            "trialTime": 0
        },
        {
            "exptPart": "trial",
            "trialNumber": 76,
            "roleCurrent": "receiver",
            "marblesSampled": 100,
            "probRed": 0.5,
            "practiceLambda": 5,
            "trialLambda": 8.1,
            "instructedLambda": "dishonest_small",
            "sd": 8.1,
            "drawnRed": 22,
            "reportedRed": 20,
            "inferredRed": 20,
            "playerTrialScore": -2,
            "oppTrialScore": 0,
            "playerTotalScore": -727,
            "oppTotalScore": 680,
            "waitTime": 5827.859554230382,
            "responseTime": 1682389503979,
            "catchQuestion": "How many <b class=\"r\">red<\/b> marbles did your opponent report drawing? ",
            "catchKey": -1,
            "catchResponse": -1,
            "catchTime": 1682389451107,
            "trialTime": 0
        },
        {
            "exptPart": "trial",
            "trialNumber": 77,
            "roleCurrent": "receiver",
            "marblesSampled": 100,
            "probRed": 0.5,
            "practiceLambda": 5,
            "trialLambda": 8.1,
            "instructedLambda": "dishonest_small",
            "sd": 8.1,
            "drawnRed": 20,
            "reportedRed": 37,
            "inferredRed": 35,
            "playerTrialScore": -15,
            "oppTrialScore": 15,
            "playerTotalScore": -742,
            "oppTotalScore": 695,
            "waitTime": 5413.464320585503,
            "responseTime": 1682389512395,
            "catchQuestion": "How many <b class=\"r\">red<\/b> marbles did your opponent report drawing? ",
            "catchKey": -1,
            "catchResponse": -1,
            "catchTime": 1682389451107,
            "trialTime": 0
        },
        {
            "exptPart": "trial",
            "trialNumber": 78,
            "roleCurrent": "receiver",
            "marblesSampled": 100,
            "probRed": 0.5,
            "practiceLambda": 5,
            "trialLambda": 8.1,
            "instructedLambda": "dishonest_small",
            "sd": 8.1,
            "drawnRed": 30,
            "reportedRed": 45,
            "inferredRed": 50,
            "playerTrialScore": -20,
            "oppTrialScore": 20,
            "playerTotalScore": -762,
            "oppTotalScore": 715,
            "waitTime": 5576.838246740621,
            "responseTime": 1682389520984,
            "catchQuestion": "How many <b class=\"r\">red<\/b> marbles did your opponent report drawing? ",
            "catchKey": -1,
            "catchResponse": -1,
            "catchTime": 1682389451107,
            "trialTime": 0
        },
        {
            "exptPart": "trial",
            "trialNumber": 79,
            "roleCurrent": "receiver",
            "marblesSampled": 100,
            "probRed": 0.5,
            "practiceLambda": 5,
            "trialLambda": 8.1,
            "instructedLambda": "dishonest_small",
            "sd": 8.1,
            "drawnRed": 30,
            "reportedRed": 35,
            "inferredRed": 40,
            "playerTrialScore": -10,
            "oppTrialScore": 10,
            "playerTotalScore": -772,
            "oppTotalScore": 725,
            "waitTime": 5306.315221461502,
            "responseTime": 1682389530059,
            "catchQuestion": "How many <b class=\"r\">red<\/b> marbles did your opponent report drawing? ",
            "catchKey": -1,
            "catchResponse": -1,
            "catchTime": 1682389451107,
            "trialTime": 0
        },
        {
            "exptPart": "trial",
            "trialNumber": 80,
            "roleCurrent": "receiver",
            "marblesSampled": 100,
            "probRed": 0.5,
            "practiceLambda": 5,
            "trialLambda": 8.1,
            "instructedLambda": "dishonest_small",
            "sd": 8.1,
            "drawnRed": 46,
            "reportedRed": 43,
            "inferredRed": 40,
            "playerTrialScore": -6,
            "oppTrialScore": 0,
            "playerTotalScore": -778,
            "oppTotalScore": 725,
            "waitTime": 6365.78410893905,
            "responseTime": 1682389539722,
            "catchQuestion": "How many <b class=\"r\">red<\/b> marbles did your opponent report drawing? ",
            "catchKey": -1,
            "catchResponse": -1,
            "catchTime": 1682389539722,
            "trialTime": 0
        },
        {
            "exptPart": "trial",
            "trialNumber": 81,
            "roleCurrent": "receiver",
            "marblesSampled": 100,
            "probRed": 0.5,
            "practiceLambda": 5,
            "trialLambda": 8.1,
            "instructedLambda": "dishonest_small",
            "sd": 8.1,
            "drawnRed": 24,
            "reportedRed": 36,
            "inferredRed": 30,
            "playerTrialScore": -6,
            "oppTrialScore": 6,
            "playerTotalScore": -784,
            "oppTotalScore": 731,
            "waitTime": 7332.024544536551,
            "responseTime": 1682389550878,
            "catchQuestion": "How many <b class=\"r\">red<\/b> marbles did your opponent report drawing? ",
            "catchKey": -1,
            "catchResponse": -1,
            "catchTime": 1682389539722,
            "trialTime": 0
        },
        {
            "exptPart": "trial",
            "trialNumber": 82,
            "roleCurrent": "receiver",
            "marblesSampled": 100,
            "probRed": 0.5,
            "practiceLambda": 5,
            "trialLambda": 8.1,
            "instructedLambda": "dishonest_small",
            "sd": 8.1,
            "drawnRed": 52,
            "reportedRed": 55,
            "inferredRed": 50,
            "playerTrialScore": -2,
            "oppTrialScore": 0,
            "playerTotalScore": -786,
            "oppTotalScore": 731,
            "waitTime": 5586.660177697859,
            "responseTime": 1682389559385,
            "catchQuestion": "How many <b class=\"r\">red<\/b> marbles did your opponent report drawing? ",
            "catchKey": -1,
            "catchResponse": -1,
            "catchTime": 1682389539722,
            "trialTime": 0
        },
        {
            "exptPart": "trial",
            "trialNumber": 83,
            "roleCurrent": "receiver",
            "marblesSampled": 100,
            "probRed": 0.5,
            "practiceLambda": 5,
            "trialLambda": 8.1,
            "instructedLambda": "dishonest_small",
            "sd": 8.1,
            "drawnRed": 88,
            "reportedRed": 97,
            "inferredRed": 97,
            "playerTrialScore": -9,
            "oppTrialScore": 9,
            "playerTotalScore": -795,
            "oppTotalScore": 740,
            "waitTime": 5196.05562556465,
            "responseTime": 1682389570007,
            "catchQuestion": "How many <b class=\"r\">red<\/b> marbles did your opponent report drawing? ",
            "catchKey": -1,
            "catchResponse": -1,
            "catchTime": 1682389539722,
            "trialTime": 0
        },
        {
            "exptPart": "trial",
            "trialNumber": 84,
            "roleCurrent": "receiver",
            "marblesSampled": 100,
            "probRed": 0.5,
            "practiceLambda": 5,
            "trialLambda": 8.1,
            "instructedLambda": "dishonest_small",
            "sd": 8.1,
            "drawnRed": 51,
            "reportedRed": 71,
            "inferredRed": 71,
            "playerTrialScore": -20,
            "oppTrialScore": 20,
            "playerTotalScore": -815,
            "oppTotalScore": 760,
            "waitTime": 5226.2467800525865,
            "responseTime": 1682389577949,
            "catchQuestion": "How many <b class=\"r\">red<\/b> marbles did your opponent report drawing? ",
            "catchKey": -1,
            "catchResponse": -1,
            "catchTime": 1682389539722,
            "trialTime": 0
        },
        {
            "exptPart": "trial",
            "trialNumber": 85,
            "roleCurrent": "receiver",
            "marblesSampled": 100,
            "probRed": 0.5,
            "practiceLambda": 5,
            "trialLambda": 8.1,
            "instructedLambda": "dishonest_small",
            "sd": 8.1,
            "drawnRed": 50,
            "reportedRed": 66,
            "inferredRed": 66,
            "playerTrialScore": -16,
            "oppTrialScore": 16,
            "playerTotalScore": -831,
            "oppTotalScore": 776,
            "waitTime": 5706.561715177783,
            "responseTime": 1682389585835,
            "catchQuestion": "How many <b class=\"r\">red<\/b> marbles did your opponent report drawing? ",
            "catchKey": -1,
            "catchResponse": -1,
            "catchTime": 1682389539722,
            "trialTime": 0
        },
        {
            "exptPart": "trial",
            "trialNumber": 86,
            "roleCurrent": "receiver",
            "marblesSampled": 100,
            "probRed": 0.5,
            "practiceLambda": 5,
            "trialLambda": 8.1,
            "instructedLambda": "dishonest_small",
            "sd": 8.1,
            "drawnRed": 33,
            "reportedRed": 45,
            "inferredRed": 45,
            "playerTrialScore": -12,
            "oppTrialScore": 12,
            "playerTotalScore": -843,
            "oppTotalScore": 788,
            "waitTime": 5256.182667982786,
            "responseTime": 1682389593320,
            "catchQuestion": "How many <b class=\"r\">red<\/b> marbles did your opponent report drawing? ",
            "catchKey": -1,
            "catchResponse": -1,
            "catchTime": 1682389539722,
            "trialTime": 0
        },
        {
            "exptPart": "trial",
            "trialNumber": 87,
            "roleCurrent": "receiver",
            "marblesSampled": 100,
            "probRed": 0.5,
            "practiceLambda": 5,
            "trialLambda": 8.1,
            "instructedLambda": "dishonest_small",
            "sd": 8.1,
            "drawnRed": 61,
            "reportedRed": 67,
            "inferredRed": 67,
            "playerTrialScore": -6,
            "oppTrialScore": 6,
            "playerTotalScore": -849,
            "oppTotalScore": 794,
            "waitTime": 5538.947309172283,
            "responseTime": 1682389600806,
            "catchQuestion": "How many <b class=\"r\">red<\/b> marbles did your opponent report drawing? ",
            "catchKey": -1,
            "catchResponse": -1,
            "catchTime": 1682389539722,
            "trialTime": 0
        },
        {
            "exptPart": "trial",
            "trialNumber": 88,
            "roleCurrent": "receiver",
            "marblesSampled": 100,
            "probRed": 0.5,
            "practiceLambda": 5,
            "trialLambda": 8.1,
            "instructedLambda": "dishonest_small",
            "sd": 8.1,
            "drawnRed": 39,
            "reportedRed": 59,
            "inferredRed": 59,
            "playerTrialScore": -20,
            "oppTrialScore": 20,
            "playerTotalScore": -869,
            "oppTotalScore": 814,
            "waitTime": 6009.721537104928,
            "responseTime": 1682389609005,
            "catchQuestion": "How many <b class=\"r\">red<\/b> marbles did your opponent report drawing? ",
            "catchKey": -1,
            "catchResponse": -1,
            "catchTime": 1682389539722,
            "trialTime": 0
        },
        {
            "exptPart": "trial",
            "trialNumber": 89,
            "roleCurrent": "receiver",
            "marblesSampled": 100,
            "probRed": 0.5,
            "practiceLambda": 5,
            "trialLambda": 8.1,
            "instructedLambda": "dishonest_small",
            "sd": 8.1,
            "drawnRed": 40,
            "reportedRed": 48,
            "inferredRed": 48,
            "playerTrialScore": -8,
            "oppTrialScore": 8,
            "playerTotalScore": -877,
            "oppTotalScore": 822,
            "waitTime": 5330.953573540923,
            "responseTime": 1682389616785,
            "catchQuestion": "How many <b class=\"r\">red<\/b> marbles did your opponent report drawing? ",
            "catchKey": -1,
            "catchResponse": -1,
            "catchTime": 1682389539722,
            "trialTime": 0
        },
        {
            "exptPart": "trial",
            "trialNumber": 90,
            "roleCurrent": "receiver",
            "marblesSampled": 100,
            "probRed": 0.5,
            "practiceLambda": 5,
            "trialLambda": 8.1,
            "instructedLambda": "dishonest_small",
            "sd": 8.1,
            "drawnRed": 78,
            "reportedRed": 80,
            "inferredRed": 80,
            "playerTrialScore": -2,
            "oppTrialScore": 2,
            "playerTotalScore": -879,
            "oppTotalScore": 824,
            "waitTime": 5953.0076439461245,
            "responseTime": 1682389624894,
            "catchQuestion": "How many <b class=\"r\">red<\/b> marbles did your opponent report drawing? ",
            "catchKey": 80,
            "catchResponse": 80,
            "catchTime": 1682389624894,
            "trialTime": 0
        },
        {
            "exptPart": "trial",
            "trialNumber": 91,
            "roleCurrent": "receiver",
            "marblesSampled": 100,
            "probRed": 0.5,
            "practiceLambda": 5,
            "trialLambda": 8.1,
            "instructedLambda": "dishonest_small",
            "sd": 8.1,
            "drawnRed": 60,
            "reportedRed": 75,
            "inferredRed": 75,
            "playerTrialScore": -15,
            "oppTrialScore": 15,
            "playerTotalScore": -894,
            "oppTotalScore": 839,
            "waitTime": 6955.3064665541515,
            "responseTime": 1682389638580,
            "catchQuestion": "How many <b class=\"r\">red<\/b> marbles did your opponent report drawing? ",
            "catchKey": 75,
            "catchResponse": 75,
            "catchTime": 1682389638580,
            "trialTime": 0
        },
        {
            "exptPart": "trial",
            "trialNumber": 92,
            "roleCurrent": "receiver",
            "marblesSampled": 100,
            "probRed": 0.5,
            "practiceLambda": 5,
            "trialLambda": 8.1,
            "instructedLambda": "dishonest_small",
            "sd": 8.1,
            "drawnRed": 65,
            "reportedRed": 69,
            "inferredRed": 69,
            "playerTrialScore": -4,
            "oppTrialScore": 4,
            "playerTotalScore": -898,
            "oppTotalScore": 843,
            "waitTime": 5147.016905329694,
            "responseTime": 1682389650363,
            "catchQuestion": "How many <b class=\"r\">red<\/b> marbles did your opponent report drawing? ",
            "catchKey": -1,
            "catchResponse": -1,
            "catchTime": 1682389638580,
            "trialTime": 0
        },
        {
            "exptPart": "trial",
            "trialNumber": 93,
            "roleCurrent": "receiver",
            "marblesSampled": 100,
            "probRed": 0.5,
            "practiceLambda": 5,
            "trialLambda": 8.1,
            "instructedLambda": "dishonest_small",
            "sd": 8.1,
            "drawnRed": 73,
            "reportedRed": 72,
            "inferredRed": 72,
            "playerTrialScore": -1,
            "oppTrialScore": 0,
            "playerTotalScore": -899,
            "oppTotalScore": 843,
            "waitTime": 6931.071971589772,
            "responseTime": 1682389660048,
            "catchQuestion": "How many <b class=\"r\">red<\/b> marbles did your opponent report drawing? ",
            "catchKey": -1,
            "catchResponse": -1,
            "catchTime": 1682389638580,
            "trialTime": 0
        },
        {
            "exptPart": "trial",
            "trialNumber": 94,
            "roleCurrent": "receiver",
            "marblesSampled": 100,
            "probRed": 0.5,
            "practiceLambda": 5,
            "trialLambda": 8.1,
            "instructedLambda": "dishonest_small",
            "sd": 8.1,
            "drawnRed": 36,
            "reportedRed": 52,
            "inferredRed": 52,
            "playerTrialScore": -16,
            "oppTrialScore": 16,
            "playerTotalScore": -915,
            "oppTotalScore": 859,
            "waitTime": 6574.136652463276,
            "responseTime": 1682389668853,
            "catchQuestion": "How many <b class=\"r\">red<\/b> marbles did your opponent report drawing? ",
            "catchKey": -1,
            "catchResponse": -1,
            "catchTime": 1682389638580,
            "trialTime": 0
        },
        {
            "exptPart": "trial",
            "trialNumber": 95,
            "roleCurrent": "receiver",
            "marblesSampled": 100,
            "probRed": 0.5,
            "practiceLambda": 5,
            "trialLambda": 8.1,
            "instructedLambda": "dishonest_small",
            "sd": 8.1,
            "drawnRed": 51,
            "reportedRed": 66,
            "inferredRed": 66,
            "playerTrialScore": -15,
            "oppTrialScore": 15,
            "playerTotalScore": -930,
            "oppTotalScore": 874,
            "waitTime": 5228.883766378077,
            "responseTime": 1682389676338,
            "catchQuestion": "How many <b class=\"r\">red<\/b> marbles did your opponent report drawing? ",
            "catchKey": -1,
            "catchResponse": -1,
            "catchTime": 1682389638580,
            "trialTime": 0
        },
        {
            "exptPart": "trial",
            "trialNumber": 96,
            "roleCurrent": "receiver",
            "marblesSampled": 100,
            "probRed": 0.5,
            "practiceLambda": 5,
            "trialLambda": 8.1,
            "instructedLambda": "dishonest_small",
            "sd": 8.1,
            "drawnRed": 26,
            "reportedRed": 29,
            "inferredRed": 29,
            "playerTrialScore": -3,
            "oppTrialScore": 3,
            "playerTotalScore": -933,
            "oppTotalScore": 877,
            "waitTime": 5600.847860884429,
            "responseTime": 1682389684761,
            "catchQuestion": "How many <b class=\"r\">red<\/b> marbles did your opponent report drawing? ",
            "catchKey": -1,
            "catchResponse": -1,
            "catchTime": 1682389638580,
            "trialTime": 0
        },
        {
            "exptPart": "trial",
            "trialNumber": 97,
            "roleCurrent": "receiver",
            "marblesSampled": 100,
            "probRed": 0.5,
            "practiceLambda": 5,
            "trialLambda": 8.1,
            "instructedLambda": "dishonest_small",
            "sd": 8.1,
            "drawnRed": 39,
            "reportedRed": 54,
            "inferredRed": 54,
            "playerTrialScore": -15,
            "oppTrialScore": 15,
            "playerTotalScore": -948,
            "oppTotalScore": 892,
            "waitTime": 5248.818680781628,
            "responseTime": 1682389692077,
            "catchQuestion": "How many <b class=\"r\">red<\/b> marbles did your opponent report drawing? ",
            "catchKey": -1,
            "catchResponse": -1,
            "catchTime": 1682389638580,
            "trialTime": 0
        },
        {
            "exptPart": "trial",
            "trialNumber": 98,
            "roleCurrent": "receiver",
            "marblesSampled": 100,
            "probRed": 0.5,
            "practiceLambda": 5,
            "trialLambda": 8.1,
            "instructedLambda": "dishonest_small",
            "sd": 8.1,
            "drawnRed": 48,
            "reportedRed": 41,
            "inferredRed": 41,
            "playerTrialScore": -7,
            "oppTrialScore": 0,
            "playerTotalScore": -955,
            "oppTotalScore": 892,
            "waitTime": 7387.010866251006,
            "responseTime": 1682389701897,
            "catchQuestion": "How many <b class=\"r\">red<\/b> marbles did your opponent report drawing? ",
            "catchKey": -1,
            "catchResponse": -1,
            "catchTime": 1682389638580,
            "trialTime": 0
        },
        {
            "exptPart": "trial",
            "trialNumber": 99,
            "roleCurrent": "receiver",
            "marblesSampled": 100,
            "probRed": 0.5,
            "practiceLambda": 5,
            "trialLambda": 8.1,
            "instructedLambda": "dishonest_small",
            "sd": 8.1,
            "drawnRed": 48,
            "reportedRed": 51,
            "inferredRed": 51,
            "playerTrialScore": -3,
            "oppTrialScore": 3,
            "playerTotalScore": -958,
            "oppTotalScore": 895,
            "waitTime": 5669.62099870716,
            "responseTime": 1682389710062,
            "catchQuestion": "How many <b class=\"r\">red<\/b> marbles did your opponent report drawing? ",
            "catchKey": -1,
            "catchResponse": -1,
            "catchTime": 1682389638580,
            "trialTime": 0
        },
        {
            "exptPart": "trial",
            "trialNumber": 100,
            "roleCurrent": "receiver",
            "marblesSampled": 100,
            "probRed": 0.5,
            "practiceLambda": 5,
            "trialLambda": 8.1,
            "instructedLambda": "dishonest_small",
            "sd": 8.1,
            "drawnRed": 71,
            "reportedRed": 77,
            "inferredRed": 70,
            "playerTrialScore": -1,
            "oppTrialScore": 0,
            "playerTotalScore": -959,
            "oppTotalScore": 895,
            "waitTime": 5313.2552483743075,
            "responseTime": 1682389718195,
            "catchQuestion": "How many <b class=\"r\">red<\/b> marbles did your opponent report drawing? ",
            "catchKey": -1,
            "catchResponse": -1,
            "catchTime": 1682389718195,
            "trialTime": 0
        }
    ]
}