{
    "client": {
        "type": "sona",
        "experiment_id": 2228,
        "credit_token": "b315147ae43241ea9c65086cb510cfb7",
        "survey_code": "36879",
        "sid": "sona-36879",
        "window": {
            "width": 1440,
            "height": 821
        },
        "screen": {
            "width": 1440,
            "height": 900
        },
        "userAgent": "Mozilla\/5.0 (Macintosh; Intel Mac OS X 10_15_7) AppleWebKit\/537.36 (KHTML, like Gecko) Chrome\/112.0.0.0 Safari\/537.36",
        "score": 0,
        "bonus": 0
    },
    "expt": {
        "saveURL": "submit.simple.php",
        "trials": 100,
        "practiceTrials": 2,
        "marblesSampled": 100,
        "probRed": 0.5,
        "practiceLambdaAI": 5,
        "lambdaAI": 21.9,
        "sd": 8.1,
        "roles": [
            "sender",
            "receiver"
        ],
        "cost": "unif",
        "goal": "over",
        "oppDishonesty": "dishonest_small",
        "catchTrials": [
            1,
            93,
            71,
            39,
            88,
            54,
            97,
            11,
            53,
            2
        ],
        "scoreTotal": {
            "player": -1596,
            "opp": 621
        },
        "sona": {
            "experiment_id": 2228,
            "credit_token": "b315147ae43241ea9c65086cb510cfb7"
        },
        "pilot": false,
        "debug": false
    },
    "trials": [
        {
            "exptPart": "practice",
            "trialNumber": 1,
            "roleCurrent": "sender",
            "marblesSampled": 100,
            "probRed": 0.5,
            "practiceLambda": 5,
            "trialLambda": 21.9,
            "instructedLambda": "dishonest_small",
            "sd": 8.1,
            "drawnRed": 30,
            "reportedRed": 15,
            "inferredRed": 20,
            "playerTrialScore": 0,
            "oppTrialScore": -10,
            "playerTotalScore": 0,
            "oppTotalScore": -10,
            "waitTime": 3191.717825611161,
            "responseTime": 1682181436773,
            "catchQuestion": "How many <b class=\"r\">red<\/b> marbles did you actually draw (before any changes)? ",
            "catchKey": 30,
            "catchResponse": 30,
            "catchTime": 1682181436774,
            "trialTime": 0
        },
        {
            "exptPart": "practice",
            "trialNumber": 2,
            "roleCurrent": "receiver",
            "marblesSampled": 100,
            "probRed": 0.5,
            "practiceLambda": 5,
            "trialLambda": 21.9,
            "instructedLambda": "dishonest_small",
            "sd": 8.1,
            "drawnRed": 61,
            "reportedRed": 57,
            "inferredRed": 60,
            "playerTrialScore": -1,
            "oppTrialScore": 0,
            "playerTotalScore": -1,
            "oppTotalScore": -10,
            "waitTime": 6359.536315765116,
            "responseTime": 1682181514359,
            "catchQuestion": "How many <b class=\"r\">red<\/b> marbles did your opponent report drawing? ",
            "catchKey": 57,
            "catchResponse": 45,
            "catchTime": 1682181514359,
            "trialTime": 0
        },
        {
            "exptPart": "trial",
            "trialNumber": 1,
            "roleCurrent": "receiver",
            "marblesSampled": 100,
            "probRed": 0.5,
            "practiceLambda": 5,
            "trialLambda": 21.9,
            "instructedLambda": "dishonest_small",
            "sd": 8.1,
            "drawnRed": 43,
            "reportedRed": 64,
            "inferredRed": 50,
            "playerTrialScore": -7,
            "oppTrialScore": 7,
            "playerTotalScore": -7,
            "oppTotalScore": 7,
            "waitTime": 5541.486973139374,
            "responseTime": 1682181606484,
            "catchQuestion": "How many <b class=\"r\">red<\/b> marbles did your opponent report drawing? ",
            "catchKey": -1,
            "catchResponse": -1,
            "catchTime": 1682181514359,
            "trialTime": 0
        },
        {
            "exptPart": "trial",
            "trialNumber": 2,
            "roleCurrent": "receiver",
            "marblesSampled": 100,
            "probRed": 0.5,
            "practiceLambda": 5,
            "trialLambda": 21.9,
            "instructedLambda": "dishonest_small",
            "sd": 8.1,
            "drawnRed": 49,
            "reportedRed": 68,
            "inferredRed": 70,
            "playerTrialScore": -21,
            "oppTrialScore": 21,
            "playerTotalScore": -28,
            "oppTotalScore": 28,
            "waitTime": 5606.893512704592,
            "responseTime": 1682181623201,
            "catchQuestion": "How many <b class=\"r\">red<\/b> marbles did your opponent report drawing? ",
            "catchKey": 68,
            "catchResponse": 68,
            "catchTime": 1682181623201,
            "trialTime": 0
        },
        {
            "exptPart": "trial",
            "trialNumber": 3,
            "roleCurrent": "receiver",
            "marblesSampled": 100,
            "probRed": 0.5,
            "practiceLambda": 5,
            "trialLambda": 21.9,
            "instructedLambda": "dishonest_small",
            "sd": 8.1,
            "drawnRed": 35,
            "reportedRed": 53,
            "inferredRed": 62,
            "playerTrialScore": -27,
            "oppTrialScore": 27,
            "playerTotalScore": -55,
            "oppTotalScore": 55,
            "waitTime": 7345.353620236281,
            "responseTime": 1682181672850,
            "catchQuestion": "How many <b class=\"r\">red<\/b> marbles did your opponent report drawing? ",
            "catchKey": 53,
            "catchResponse": 53,
            "catchTime": 1682181672851,
            "trialTime": 0
        },
        {
            "exptPart": "trial",
            "trialNumber": 4,
            "roleCurrent": "receiver",
            "marblesSampled": 100,
            "probRed": 0.5,
            "practiceLambda": 5,
            "trialLambda": 21.9,
            "instructedLambda": "dishonest_small",
            "sd": 8.1,
            "drawnRed": 46,
            "reportedRed": 64,
            "inferredRed": 69,
            "playerTrialScore": -23,
            "oppTrialScore": 23,
            "playerTotalScore": -78,
            "oppTotalScore": 78,
            "waitTime": 5631.830555286893,
            "responseTime": 1682181696468,
            "catchQuestion": "How many <b class=\"r\">red<\/b> marbles did your opponent report drawing? ",
            "catchKey": -1,
            "catchResponse": -1,
            "catchTime": 1682181672851,
            "trialTime": 0
        },
        {
            "exptPart": "trial",
            "trialNumber": 5,
            "roleCurrent": "receiver",
            "marblesSampled": 100,
            "probRed": 0.5,
            "practiceLambda": 5,
            "trialLambda": 21.9,
            "instructedLambda": "dishonest_small",
            "sd": 8.1,
            "drawnRed": 5,
            "reportedRed": 29,
            "inferredRed": 37,
            "playerTrialScore": -32,
            "oppTrialScore": 32,
            "playerTotalScore": -110,
            "oppTotalScore": 110,
            "waitTime": 5798.1992030813635,
            "responseTime": 1682181751918,
            "catchQuestion": "How many <b class=\"r\">red<\/b> marbles did your opponent report drawing? ",
            "catchKey": -1,
            "catchResponse": -1,
            "catchTime": 1682181672851,
            "trialTime": 0
        },
        {
            "exptPart": "trial",
            "trialNumber": 6,
            "roleCurrent": "receiver",
            "marblesSampled": 100,
            "probRed": 0.5,
            "practiceLambda": 5,
            "trialLambda": 21.9,
            "instructedLambda": "dishonest_small",
            "sd": 8.1,
            "drawnRed": 67,
            "reportedRed": 74,
            "inferredRed": 65,
            "playerTrialScore": -2,
            "oppTrialScore": 0,
            "playerTotalScore": -112,
            "oppTotalScore": 110,
            "waitTime": 5187.925848813207,
            "responseTime": 1682181767918,
            "catchQuestion": "How many <b class=\"r\">red<\/b> marbles did your opponent report drawing? ",
            "catchKey": -1,
            "catchResponse": -1,
            "catchTime": 1682181672851,
            "trialTime": 0
        },
        {
            "exptPart": "trial",
            "trialNumber": 7,
            "roleCurrent": "receiver",
            "marblesSampled": 100,
            "probRed": 0.5,
            "practiceLambda": 5,
            "trialLambda": 21.9,
            "instructedLambda": "dishonest_small",
            "sd": 8.1,
            "drawnRed": 69,
            "reportedRed": 100,
            "inferredRed": 76,
            "playerTrialScore": -7,
            "oppTrialScore": 7,
            "playerTotalScore": -119,
            "oppTotalScore": 117,
            "waitTime": 5502.911203094567,
            "responseTime": 1682181780984,
            "catchQuestion": "How many <b class=\"r\">red<\/b> marbles did your opponent report drawing? ",
            "catchKey": -1,
            "catchResponse": -1,
            "catchTime": 1682181672851,
            "trialTime": 0
        },
        {
            "exptPart": "trial",
            "trialNumber": 8,
            "roleCurrent": "receiver",
            "marblesSampled": 100,
            "probRed": 0.5,
            "practiceLambda": 5,
            "trialLambda": 21.9,
            "instructedLambda": "dishonest_small",
            "sd": 8.1,
            "drawnRed": 83,
            "reportedRed": 100,
            "inferredRed": 63,
            "playerTrialScore": -20,
            "oppTrialScore": 0,
            "playerTotalScore": -139,
            "oppTotalScore": 117,
            "waitTime": 6527.331682362455,
            "responseTime": 1682181794350,
            "catchQuestion": "How many <b class=\"r\">red<\/b> marbles did your opponent report drawing? ",
            "catchKey": -1,
            "catchResponse": -1,
            "catchTime": 1682181672851,
            "trialTime": 0
        },
        {
            "exptPart": "trial",
            "trialNumber": 9,
            "roleCurrent": "receiver",
            "marblesSampled": 100,
            "probRed": 0.5,
            "practiceLambda": 5,
            "trialLambda": 21.9,
            "instructedLambda": "dishonest_small",
            "sd": 8.1,
            "drawnRed": 39,
            "reportedRed": 52,
            "inferredRed": 57,
            "playerTrialScore": -18,
            "oppTrialScore": 18,
            "playerTotalScore": -157,
            "oppTotalScore": 135,
            "waitTime": 6996.910089692136,
            "responseTime": 1682181809967,
            "catchQuestion": "How many <b class=\"r\">red<\/b> marbles did your opponent report drawing? ",
            "catchKey": -1,
            "catchResponse": -1,
            "catchTime": 1682181672851,
            "trialTime": 0
        },
        {
            "exptPart": "trial",
            "trialNumber": 10,
            "roleCurrent": "receiver",
            "marblesSampled": 100,
            "probRed": 0.5,
            "practiceLambda": 5,
            "trialLambda": 21.9,
            "instructedLambda": "dishonest_small",
            "sd": 8.1,
            "drawnRed": 14,
            "reportedRed": 42,
            "inferredRed": 48,
            "playerTrialScore": -34,
            "oppTrialScore": 34,
            "playerTotalScore": -191,
            "oppTotalScore": 169,
            "waitTime": 5163.319313565282,
            "responseTime": 1682181820817,
            "catchQuestion": "How many <b class=\"r\">red<\/b> marbles did your opponent report drawing? ",
            "catchKey": -1,
            "catchResponse": -1,
            "catchTime": 1682181820817,
            "trialTime": 0
        },
        {
            "exptPart": "trial",
            "trialNumber": 11,
            "roleCurrent": "receiver",
            "marblesSampled": 100,
            "probRed": 0.5,
            "practiceLambda": 5,
            "trialLambda": 21.9,
            "instructedLambda": "dishonest_small",
            "sd": 8.1,
            "drawnRed": 29,
            "reportedRed": 35,
            "inferredRed": 15,
            "playerTrialScore": -14,
            "oppTrialScore": 0,
            "playerTotalScore": -205,
            "oppTotalScore": 169,
            "waitTime": 5285.000107750449,
            "responseTime": 1682181846217,
            "catchQuestion": "How many <b class=\"r\">red<\/b> marbles did your opponent report drawing? ",
            "catchKey": -1,
            "catchResponse": -1,
            "catchTime": 1682181820817,
            "trialTime": 0
        },
        {
            "exptPart": "trial",
            "trialNumber": 12,
            "roleCurrent": "receiver",
            "marblesSampled": 100,
            "probRed": 0.5,
            "practiceLambda": 5,
            "trialLambda": 21.9,
            "instructedLambda": "dishonest_small",
            "sd": 8.1,
            "drawnRed": 23,
            "reportedRed": 46,
            "inferredRed": 32,
            "playerTrialScore": -9,
            "oppTrialScore": 9,
            "playerTotalScore": -214,
            "oppTotalScore": 178,
            "waitTime": 6241.568073130709,
            "responseTime": 1682181864835,
            "catchQuestion": "How many <b class=\"r\">red<\/b> marbles did your opponent report drawing? ",
            "catchKey": 46,
            "catchResponse": 46,
            "catchTime": 1682181864835,
            "trialTime": 0
        },
        {
            "exptPart": "trial",
            "trialNumber": 13,
            "roleCurrent": "receiver",
            "marblesSampled": 100,
            "probRed": 0.5,
            "practiceLambda": 5,
            "trialLambda": 21.9,
            "instructedLambda": "dishonest_small",
            "sd": 8.1,
            "drawnRed": 62,
            "reportedRed": 80,
            "inferredRed": 53,
            "playerTrialScore": -9,
            "oppTrialScore": 0,
            "playerTotalScore": -223,
            "oppTotalScore": 178,
            "waitTime": 5935.2083032454175,
            "responseTime": 1682181887433,
            "catchQuestion": "How many <b class=\"r\">red<\/b> marbles did your opponent report drawing? ",
            "catchKey": -1,
            "catchResponse": -1,
            "catchTime": 1682181864835,
            "trialTime": 0
        },
        {
            "exptPart": "trial",
            "trialNumber": 14,
            "roleCurrent": "receiver",
            "marblesSampled": 100,
            "probRed": 0.5,
            "practiceLambda": 5,
            "trialLambda": 21.9,
            "instructedLambda": "dishonest_small",
            "sd": 8.1,
            "drawnRed": 30,
            "reportedRed": 50,
            "inferredRed": 30,
            "playerTrialScore": 0,
            "oppTrialScore": 0,
            "playerTotalScore": -223,
            "oppTotalScore": 178,
            "waitTime": 6289.401244538995,
            "responseTime": 1682181906067,
            "catchQuestion": "How many <b class=\"r\">red<\/b> marbles did your opponent report drawing? ",
            "catchKey": -1,
            "catchResponse": -1,
            "catchTime": 1682181864835,
            "trialTime": 0
        },
        {
            "exptPart": "trial",
            "trialNumber": 15,
            "roleCurrent": "receiver",
            "marblesSampled": 100,
            "probRed": 0.5,
            "practiceLambda": 5,
            "trialLambda": 21.9,
            "instructedLambda": "dishonest_small",
            "sd": 8.1,
            "drawnRed": 28,
            "reportedRed": 63,
            "inferredRed": 40,
            "playerTrialScore": -12,
            "oppTrialScore": 12,
            "playerTotalScore": -235,
            "oppTotalScore": 190,
            "waitTime": 5466.178335056189,
            "responseTime": 1682181918650,
            "catchQuestion": "How many <b class=\"r\">red<\/b> marbles did your opponent report drawing? ",
            "catchKey": -1,
            "catchResponse": -1,
            "catchTime": 1682181864835,
            "trialTime": 0
        },
        {
            "exptPart": "trial",
            "trialNumber": 16,
            "roleCurrent": "receiver",
            "marblesSampled": 100,
            "probRed": 0.5,
            "practiceLambda": 5,
            "trialLambda": 21.9,
            "instructedLambda": "dishonest_small",
            "sd": 8.1,
            "drawnRed": 36,
            "reportedRed": 55,
            "inferredRed": 37,
            "playerTrialScore": -1,
            "oppTrialScore": 1,
            "playerTotalScore": -236,
            "oppTotalScore": 191,
            "waitTime": 6648.803698310563,
            "responseTime": 1682181933568,
            "catchQuestion": "How many <b class=\"r\">red<\/b> marbles did your opponent report drawing? ",
            "catchKey": -1,
            "catchResponse": -1,
            "catchTime": 1682181864835,
            "trialTime": 0
        },
        {
            "exptPart": "trial",
            "trialNumber": 17,
            "roleCurrent": "receiver",
            "marblesSampled": 100,
            "probRed": 0.5,
            "practiceLambda": 5,
            "trialLambda": 21.9,
            "instructedLambda": "dishonest_small",
            "sd": 8.1,
            "drawnRed": 66,
            "reportedRed": 89,
            "inferredRed": 45,
            "playerTrialScore": -21,
            "oppTrialScore": 0,
            "playerTotalScore": -257,
            "oppTotalScore": 191,
            "waitTime": 5251.376604028706,
            "responseTime": 1682181945100,
            "catchQuestion": "How many <b class=\"r\">red<\/b> marbles did your opponent report drawing? ",
            "catchKey": -1,
            "catchResponse": -1,
            "catchTime": 1682181864835,
            "trialTime": 0
        },
        {
            "exptPart": "trial",
            "trialNumber": 18,
            "roleCurrent": "receiver",
            "marblesSampled": 100,
            "probRed": 0.5,
            "practiceLambda": 5,
            "trialLambda": 21.9,
            "instructedLambda": "dishonest_small",
            "sd": 8.1,
            "drawnRed": 57,
            "reportedRed": 75,
            "inferredRed": 30,
            "playerTrialScore": -27,
            "oppTrialScore": 0,
            "playerTotalScore": -284,
            "oppTotalScore": 191,
            "waitTime": 5177.431849734252,
            "responseTime": 1682181955600,
            "catchQuestion": "How many <b class=\"r\">red<\/b> marbles did your opponent report drawing? ",
            "catchKey": -1,
            "catchResponse": -1,
            "catchTime": 1682181864835,
            "trialTime": 0
        },
        {
            "exptPart": "trial",
            "trialNumber": 19,
            "roleCurrent": "receiver",
            "marblesSampled": 100,
            "probRed": 0.5,
            "practiceLambda": 5,
            "trialLambda": 21.9,
            "instructedLambda": "dishonest_small",
            "sd": 8.1,
            "drawnRed": 46,
            "reportedRed": 60,
            "inferredRed": 43,
            "playerTrialScore": -3,
            "oppTrialScore": 0,
            "playerTotalScore": -287,
            "oppTotalScore": 191,
            "waitTime": 7103.719478789269,
            "responseTime": 1682181967850,
            "catchQuestion": "How many <b class=\"r\">red<\/b> marbles did your opponent report drawing? ",
            "catchKey": -1,
            "catchResponse": -1,
            "catchTime": 1682181864835,
            "trialTime": 0
        },
        {
            "exptPart": "trial",
            "trialNumber": 20,
            "roleCurrent": "receiver",
            "marblesSampled": 100,
            "probRed": 0.5,
            "practiceLambda": 5,
            "trialLambda": 21.9,
            "instructedLambda": "dishonest_small",
            "sd": 8.1,
            "drawnRed": 60,
            "reportedRed": 85,
            "inferredRed": 46,
            "playerTrialScore": -14,
            "oppTrialScore": 0,
            "playerTotalScore": -301,
            "oppTotalScore": 191,
            "waitTime": 7001.439677777207,
            "responseTime": 1682181980017,
            "catchQuestion": "How many <b class=\"r\">red<\/b> marbles did your opponent report drawing? ",
            "catchKey": -1,
            "catchResponse": -1,
            "catchTime": 1682181980017,
            "trialTime": 0
        },
        {
            "exptPart": "trial",
            "trialNumber": 21,
            "roleCurrent": "receiver",
            "marblesSampled": 100,
            "probRed": 0.5,
            "practiceLambda": 5,
            "trialLambda": 21.9,
            "instructedLambda": "dishonest_small",
            "sd": 8.1,
            "drawnRed": 61,
            "reportedRed": 88,
            "inferredRed": 20,
            "playerTrialScore": -41,
            "oppTrialScore": 0,
            "playerTotalScore": -342,
            "oppTotalScore": 191,
            "waitTime": 6934.331734137588,
            "responseTime": 1682182024817,
            "catchQuestion": "How many <b class=\"r\">red<\/b> marbles did your opponent report drawing? ",
            "catchKey": -1,
            "catchResponse": -1,
            "catchTime": 1682181980017,
            "trialTime": 0
        },
        {
            "exptPart": "trial",
            "trialNumber": 22,
            "roleCurrent": "receiver",
            "marblesSampled": 100,
            "probRed": 0.5,
            "practiceLambda": 5,
            "trialLambda": 21.9,
            "instructedLambda": "dishonest_small",
            "sd": 8.1,
            "drawnRed": 38,
            "reportedRed": 55,
            "inferredRed": 23,
            "playerTrialScore": -15,
            "oppTrialScore": 0,
            "playerTotalScore": -357,
            "oppTotalScore": 191,
            "waitTime": 5943.024475617536,
            "responseTime": 1682182034267,
            "catchQuestion": "How many <b class=\"r\">red<\/b> marbles did your opponent report drawing? ",
            "catchKey": -1,
            "catchResponse": -1,
            "catchTime": 1682181980017,
            "trialTime": 0
        },
        {
            "exptPart": "trial",
            "trialNumber": 23,
            "roleCurrent": "receiver",
            "marblesSampled": 100,
            "probRed": 0.5,
            "practiceLambda": 5,
            "trialLambda": 21.9,
            "instructedLambda": "dishonest_small",
            "sd": 8.1,
            "drawnRed": 68,
            "reportedRed": 87,
            "inferredRed": 15,
            "playerTrialScore": -53,
            "oppTrialScore": 0,
            "playerTotalScore": -410,
            "oppTotalScore": 191,
            "waitTime": 6424.165133313398,
            "responseTime": 1682182046016,
            "catchQuestion": "How many <b class=\"r\">red<\/b> marbles did your opponent report drawing? ",
            "catchKey": -1,
            "catchResponse": -1,
            "catchTime": 1682181980017,
            "trialTime": 0
        },
        {
            "exptPart": "trial",
            "trialNumber": 24,
            "roleCurrent": "receiver",
            "marblesSampled": 100,
            "probRed": 0.5,
            "practiceLambda": 5,
            "trialLambda": 21.9,
            "instructedLambda": "dishonest_small",
            "sd": 8.1,
            "drawnRed": 56,
            "reportedRed": 73,
            "inferredRed": 28,
            "playerTrialScore": -28,
            "oppTrialScore": 0,
            "playerTotalScore": -438,
            "oppTotalScore": 191,
            "waitTime": 5586.001217690413,
            "responseTime": 1682182055550,
            "catchQuestion": "How many <b class=\"r\">red<\/b> marbles did your opponent report drawing? ",
            "catchKey": -1,
            "catchResponse": -1,
            "catchTime": 1682181980017,
            "trialTime": 0
        },
        {
            "exptPart": "trial",
            "trialNumber": 25,
            "roleCurrent": "receiver",
            "marblesSampled": 100,
            "probRed": 0.5,
            "practiceLambda": 5,
            "trialLambda": 21.9,
            "instructedLambda": "dishonest_small",
            "sd": 8.1,
            "drawnRed": 48,
            "reportedRed": 76,
            "inferredRed": 32,
            "playerTrialScore": -16,
            "oppTrialScore": 0,
            "playerTotalScore": -454,
            "oppTotalScore": 191,
            "waitTime": 6892.531381136923,
            "responseTime": 1682182066483,
            "catchQuestion": "How many <b class=\"r\">red<\/b> marbles did your opponent report drawing? ",
            "catchKey": -1,
            "catchResponse": -1,
            "catchTime": 1682181980017,
            "trialTime": 0
        },
        {
            "exptPart": "trial",
            "trialNumber": 26,
            "roleCurrent": "receiver",
            "marblesSampled": 100,
            "probRed": 0.5,
            "practiceLambda": 5,
            "trialLambda": 21.9,
            "instructedLambda": "dishonest_small",
            "sd": 8.1,
            "drawnRed": 39,
            "reportedRed": 58,
            "inferredRed": 24,
            "playerTrialScore": -15,
            "oppTrialScore": 0,
            "playerTotalScore": -469,
            "oppTotalScore": 191,
            "waitTime": 5347.334100427771,
            "responseTime": 1682182076133,
            "catchQuestion": "How many <b class=\"r\">red<\/b> marbles did your opponent report drawing? ",
            "catchKey": -1,
            "catchResponse": -1,
            "catchTime": 1682181980017,
            "trialTime": 0
        },
        {
            "exptPart": "trial",
            "trialNumber": 27,
            "roleCurrent": "receiver",
            "marblesSampled": 100,
            "probRed": 0.5,
            "practiceLambda": 5,
            "trialLambda": 21.9,
            "instructedLambda": "dishonest_small",
            "sd": 8.1,
            "drawnRed": 81,
            "reportedRed": 100,
            "inferredRed": 26,
            "playerTrialScore": -55,
            "oppTrialScore": 0,
            "playerTotalScore": -524,
            "oppTotalScore": 191,
            "waitTime": 6530.5330044667135,
            "responseTime": 1682182086684,
            "catchQuestion": "How many <b class=\"r\">red<\/b> marbles did your opponent report drawing? ",
            "catchKey": -1,
            "catchResponse": -1,
            "catchTime": 1682181980017,
            "trialTime": 0
        },
        {
            "exptPart": "trial",
            "trialNumber": 28,
            "roleCurrent": "receiver",
            "marblesSampled": 100,
            "probRed": 0.5,
            "practiceLambda": 5,
            "trialLambda": 21.9,
            "instructedLambda": "dishonest_small",
            "sd": 8.1,
            "drawnRed": 48,
            "reportedRed": 62,
            "inferredRed": 25,
            "playerTrialScore": -23,
            "oppTrialScore": 0,
            "playerTotalScore": -547,
            "oppTotalScore": 191,
            "waitTime": 6218.87700563001,
            "responseTime": 1682182096200,
            "catchQuestion": "How many <b class=\"r\">red<\/b> marbles did your opponent report drawing? ",
            "catchKey": -1,
            "catchResponse": -1,
            "catchTime": 1682181980017,
            "trialTime": 0
        },
        {
            "exptPart": "trial",
            "trialNumber": 29,
            "roleCurrent": "receiver",
            "marblesSampled": 100,
            "probRed": 0.5,
            "practiceLambda": 5,
            "trialLambda": 21.9,
            "instructedLambda": "dishonest_small",
            "sd": 8.1,
            "drawnRed": 48,
            "reportedRed": 74,
            "inferredRed": 26,
            "playerTrialScore": -22,
            "oppTrialScore": 0,
            "playerTotalScore": -569,
            "oppTotalScore": 191,
            "waitTime": 7313.709097006781,
            "responseTime": 1682182107883,
            "catchQuestion": "How many <b class=\"r\">red<\/b> marbles did your opponent report drawing? ",
            "catchKey": -1,
            "catchResponse": -1,
            "catchTime": 1682181980017,
            "trialTime": 0
        },
        {
            "exptPart": "trial",
            "trialNumber": 30,
            "roleCurrent": "receiver",
            "marblesSampled": 100,
            "probRed": 0.5,
            "practiceLambda": 5,
            "trialLambda": 21.9,
            "instructedLambda": "dishonest_small",
            "sd": 8.1,
            "drawnRed": 51,
            "reportedRed": 75,
            "inferredRed": 27,
            "playerTrialScore": -24,
            "oppTrialScore": 0,
            "playerTotalScore": -593,
            "oppTotalScore": 191,
            "waitTime": 6971.983961572599,
            "responseTime": 1682182118500,
            "catchQuestion": "How many <b class=\"r\">red<\/b> marbles did your opponent report drawing? ",
            "catchKey": -1,
            "catchResponse": -1,
            "catchTime": 1682182118500,
            "trialTime": 0
        },
        {
            "exptPart": "trial",
            "trialNumber": 31,
            "roleCurrent": "receiver",
            "marblesSampled": 100,
            "probRed": 0.5,
            "practiceLambda": 5,
            "trialLambda": 21.9,
            "instructedLambda": "dishonest_small",
            "sd": 8.1,
            "drawnRed": 30,
            "reportedRed": 46,
            "inferredRed": 32,
            "playerTrialScore": -2,
            "oppTrialScore": 2,
            "playerTotalScore": -595,
            "oppTotalScore": 193,
            "waitTime": 7420.308478308438,
            "responseTime": 1682182148617,
            "catchQuestion": "How many <b class=\"r\">red<\/b> marbles did your opponent report drawing? ",
            "catchKey": -1,
            "catchResponse": -1,
            "catchTime": 1682182118500,
            "trialTime": 0
        },
        {
            "exptPart": "trial",
            "trialNumber": 32,
            "roleCurrent": "receiver",
            "marblesSampled": 100,
            "probRed": 0.5,
            "practiceLambda": 5,
            "trialLambda": 21.9,
            "instructedLambda": "dishonest_small",
            "sd": 8.1,
            "drawnRed": 18,
            "reportedRed": 47,
            "inferredRed": 34,
            "playerTrialScore": -16,
            "oppTrialScore": 16,
            "playerTotalScore": -611,
            "oppTotalScore": 209,
            "waitTime": 7027.164742108327,
            "responseTime": 1682182166516,
            "catchQuestion": "How many <b class=\"r\">red<\/b> marbles did your opponent report drawing? ",
            "catchKey": -1,
            "catchResponse": -1,
            "catchTime": 1682182118500,
            "trialTime": 0
        },
        {
            "exptPart": "trial",
            "trialNumber": 33,
            "roleCurrent": "receiver",
            "marblesSampled": 100,
            "probRed": 0.5,
            "practiceLambda": 5,
            "trialLambda": 21.9,
            "instructedLambda": "dishonest_small",
            "sd": 8.1,
            "drawnRed": 26,
            "reportedRed": 40,
            "inferredRed": 10,
            "playerTrialScore": -16,
            "oppTrialScore": 0,
            "playerTotalScore": -627,
            "oppTotalScore": 209,
            "waitTime": 6446.046187291339,
            "responseTime": 1682182176566,
            "catchQuestion": "How many <b class=\"r\">red<\/b> marbles did your opponent report drawing? ",
            "catchKey": -1,
            "catchResponse": -1,
            "catchTime": 1682182118500,
            "trialTime": 0
        },
        {
            "exptPart": "trial",
            "trialNumber": 34,
            "roleCurrent": "receiver",
            "marblesSampled": 100,
            "probRed": 0.5,
            "practiceLambda": 5,
            "trialLambda": 21.9,
            "instructedLambda": "dishonest_small",
            "sd": 8.1,
            "drawnRed": 36,
            "reportedRed": 70,
            "inferredRed": 1,
            "playerTrialScore": -35,
            "oppTrialScore": 0,
            "playerTotalScore": -662,
            "oppTotalScore": 209,
            "waitTime": 5367.300573154942,
            "responseTime": 1682182189583,
            "catchQuestion": "How many <b class=\"r\">red<\/b> marbles did your opponent report drawing? ",
            "catchKey": -1,
            "catchResponse": -1,
            "catchTime": 1682182118500,
            "trialTime": 0
        },
        {
            "exptPart": "trial",
            "trialNumber": 35,
            "roleCurrent": "receiver",
            "marblesSampled": 100,
            "probRed": 0.5,
            "practiceLambda": 5,
            "trialLambda": 21.9,
            "instructedLambda": "dishonest_small",
            "sd": 8.1,
            "drawnRed": 51,
            "reportedRed": 54,
            "inferredRed": 36,
            "playerTrialScore": -15,
            "oppTrialScore": 0,
            "playerTotalScore": -677,
            "oppTotalScore": 209,
            "waitTime": 6407.869237960464,
            "responseTime": 1682182201399,
            "catchQuestion": "How many <b class=\"r\">red<\/b> marbles did your opponent report drawing? ",
            "catchKey": -1,
            "catchResponse": -1,
            "catchTime": 1682182118500,
            "trialTime": 0
        },
        {
            "exptPart": "trial",
            "trialNumber": 36,
            "roleCurrent": "receiver",
            "marblesSampled": 100,
            "probRed": 0.5,
            "practiceLambda": 5,
            "trialLambda": 21.9,
            "instructedLambda": "dishonest_small",
            "sd": 8.1,
            "drawnRed": 54,
            "reportedRed": 78,
            "inferredRed": 22,
            "playerTrialScore": -32,
            "oppTrialScore": 0,
            "playerTotalScore": -709,
            "oppTotalScore": 209,
            "waitTime": 5243.451052576273,
            "responseTime": 1682182215350,
            "catchQuestion": "How many <b class=\"r\">red<\/b> marbles did your opponent report drawing? ",
            "catchKey": -1,
            "catchResponse": -1,
            "catchTime": 1682182118500,
            "trialTime": 0
        },
        {
            "exptPart": "trial",
            "trialNumber": 37,
            "roleCurrent": "receiver",
            "marblesSampled": 100,
            "probRed": 0.5,
            "practiceLambda": 5,
            "trialLambda": 21.9,
            "instructedLambda": "dishonest_small",
            "sd": 8.1,
            "drawnRed": 32,
            "reportedRed": 55,
            "inferredRed": 10,
            "playerTrialScore": -22,
            "oppTrialScore": 0,
            "playerTotalScore": -731,
            "oppTotalScore": 209,
            "waitTime": 5377.094158111029,
            "responseTime": 1682182225066,
            "catchQuestion": "How many <b class=\"r\">red<\/b> marbles did your opponent report drawing? ",
            "catchKey": -1,
            "catchResponse": -1,
            "catchTime": 1682182118500,
            "trialTime": 0
        },
        {
            "exptPart": "trial",
            "trialNumber": 38,
            "roleCurrent": "receiver",
            "marblesSampled": 100,
            "probRed": 0.5,
            "practiceLambda": 5,
            "trialLambda": 21.9,
            "instructedLambda": "dishonest_small",
            "sd": 8.1,
            "drawnRed": 66,
            "reportedRed": 92,
            "inferredRed": 70,
            "playerTrialScore": -4,
            "oppTrialScore": 4,
            "playerTotalScore": -735,
            "oppTotalScore": 213,
            "waitTime": 6801.546189911374,
            "responseTime": 1682182237232,
            "catchQuestion": "How many <b class=\"r\">red<\/b> marbles did your opponent report drawing? ",
            "catchKey": -1,
            "catchResponse": -1,
            "catchTime": 1682182118500,
            "trialTime": 0
        },
        {
            "exptPart": "trial",
            "trialNumber": 39,
            "roleCurrent": "receiver",
            "marblesSampled": 100,
            "probRed": 0.5,
            "practiceLambda": 5,
            "trialLambda": 21.9,
            "instructedLambda": "dishonest_small",
            "sd": 8.1,
            "drawnRed": 59,
            "reportedRed": 92,
            "inferredRed": 55,
            "playerTrialScore": -4,
            "oppTrialScore": 0,
            "playerTotalScore": -739,
            "oppTotalScore": 213,
            "waitTime": 5759.490764503148,
            "responseTime": 1682182248700,
            "catchQuestion": "How many <b class=\"r\">red<\/b> marbles did your opponent report drawing? ",
            "catchKey": -1,
            "catchResponse": -1,
            "catchTime": 1682182118500,
            "trialTime": 0
        },
        {
            "exptPart": "trial",
            "trialNumber": 40,
            "roleCurrent": "receiver",
            "marblesSampled": 100,
            "probRed": 0.5,
            "practiceLambda": 5,
            "trialLambda": 21.9,
            "instructedLambda": "dishonest_small",
            "sd": 8.1,
            "drawnRed": 42,
            "reportedRed": 61,
            "inferredRed": 44,
            "playerTrialScore": -2,
            "oppTrialScore": 2,
            "playerTotalScore": -741,
            "oppTotalScore": 215,
            "waitTime": 5757.851717378266,
            "responseTime": 1682182260367,
            "catchQuestion": "How many <b class=\"r\">red<\/b> marbles did your opponent report drawing? ",
            "catchKey": 61,
            "catchResponse": 61,
            "catchTime": 1682182260367,
            "trialTime": 0
        },
        {
            "exptPart": "trial",
            "trialNumber": 41,
            "roleCurrent": "receiver",
            "marblesSampled": 100,
            "probRed": 0.5,
            "practiceLambda": 5,
            "trialLambda": 21.9,
            "instructedLambda": "dishonest_small",
            "sd": 8.1,
            "drawnRed": 48,
            "reportedRed": 68,
            "inferredRed": 0,
            "playerTrialScore": -48,
            "oppTrialScore": 0,
            "playerTotalScore": -789,
            "oppTotalScore": 215,
            "waitTime": 5828.455701623598,
            "responseTime": 1682182286633,
            "catchQuestion": "How many <b class=\"r\">red<\/b> marbles did your opponent report drawing? ",
            "catchKey": -1,
            "catchResponse": -1,
            "catchTime": 1682182260367,
            "trialTime": 0
        },
        {
            "exptPart": "trial",
            "trialNumber": 42,
            "roleCurrent": "receiver",
            "marblesSampled": 100,
            "probRed": 0.5,
            "practiceLambda": 5,
            "trialLambda": 21.9,
            "instructedLambda": "dishonest_small",
            "sd": 8.1,
            "drawnRed": 69,
            "reportedRed": 85,
            "inferredRed": 2,
            "playerTrialScore": -67,
            "oppTrialScore": 0,
            "playerTotalScore": -856,
            "oppTotalScore": 215,
            "waitTime": 7435.8863825937515,
            "responseTime": 1682182298416,
            "catchQuestion": "How many <b class=\"r\">red<\/b> marbles did your opponent report drawing? ",
            "catchKey": -1,
            "catchResponse": -1,
            "catchTime": 1682182260367,
            "trialTime": 0
        },
        {
            "exptPart": "trial",
            "trialNumber": 43,
            "roleCurrent": "receiver",
            "marblesSampled": 100,
            "probRed": 0.5,
            "practiceLambda": 5,
            "trialLambda": 21.9,
            "instructedLambda": "dishonest_small",
            "sd": 8.1,
            "drawnRed": 68,
            "reportedRed": 86,
            "inferredRed": 5,
            "playerTrialScore": -63,
            "oppTrialScore": 0,
            "playerTotalScore": -919,
            "oppTotalScore": 215,
            "waitTime": 6114.1207282489095,
            "responseTime": 1682182307549,
            "catchQuestion": "How many <b class=\"r\">red<\/b> marbles did your opponent report drawing? ",
            "catchKey": -1,
            "catchResponse": -1,
            "catchTime": 1682182260367,
            "trialTime": 0
        },
        {
            "exptPart": "trial",
            "trialNumber": 44,
            "roleCurrent": "receiver",
            "marblesSampled": 100,
            "probRed": 0.5,
            "practiceLambda": 5,
            "trialLambda": 21.9,
            "instructedLambda": "dishonest_small",
            "sd": 8.1,
            "drawnRed": 32,
            "reportedRed": 45,
            "inferredRed": 7,
            "playerTrialScore": -25,
            "oppTrialScore": 0,
            "playerTotalScore": -944,
            "oppTotalScore": 215,
            "waitTime": 7209.467274557007,
            "responseTime": 1682182317382,
            "catchQuestion": "How many <b class=\"r\">red<\/b> marbles did your opponent report drawing? ",
            "catchKey": -1,
            "catchResponse": -1,
            "catchTime": 1682182260367,
            "trialTime": 0
        },
        {
            "exptPart": "trial",
            "trialNumber": 45,
            "roleCurrent": "receiver",
            "marblesSampled": 100,
            "probRed": 0.5,
            "practiceLambda": 5,
            "trialLambda": 21.9,
            "instructedLambda": "dishonest_small",
            "sd": 8.1,
            "drawnRed": 47,
            "reportedRed": 80,
            "inferredRed": 10,
            "playerTrialScore": -37,
            "oppTrialScore": 0,
            "playerTotalScore": -981,
            "oppTotalScore": 215,
            "waitTime": 6195.311068266329,
            "responseTime": 1682182327716,
            "catchQuestion": "How many <b class=\"r\">red<\/b> marbles did your opponent report drawing? ",
            "catchKey": -1,
            "catchResponse": -1,
            "catchTime": 1682182260367,
            "trialTime": 0
        },
        {
            "exptPart": "trial",
            "trialNumber": 46,
            "roleCurrent": "receiver",
            "marblesSampled": 100,
            "probRed": 0.5,
            "practiceLambda": 5,
            "trialLambda": 21.9,
            "instructedLambda": "dishonest_small",
            "sd": 8.1,
            "drawnRed": 56,
            "reportedRed": 86,
            "inferredRed": 10,
            "playerTrialScore": -46,
            "oppTrialScore": 0,
            "playerTotalScore": -1027,
            "oppTotalScore": 215,
            "waitTime": 7039.8098930074575,
            "responseTime": 1682182341633,
            "catchQuestion": "How many <b class=\"r\">red<\/b> marbles did your opponent report drawing? ",
            "catchKey": -1,
            "catchResponse": -1,
            "catchTime": 1682182260367,
            "trialTime": 0
        },
        {
            "exptPart": "trial",
            "trialNumber": 47,
            "roleCurrent": "receiver",
            "marblesSampled": 100,
            "probRed": 0.5,
            "practiceLambda": 5,
            "trialLambda": 21.9,
            "instructedLambda": "dishonest_small",
            "sd": 8.1,
            "drawnRed": 51,
            "reportedRed": 75,
            "inferredRed": 10,
            "playerTrialScore": -41,
            "oppTrialScore": 0,
            "playerTotalScore": -1068,
            "oppTotalScore": 215,
            "waitTime": 6332.629531891316,
            "responseTime": 1682182351983,
            "catchQuestion": "How many <b class=\"r\">red<\/b> marbles did your opponent report drawing? ",
            "catchKey": -1,
            "catchResponse": -1,
            "catchTime": 1682182260367,
            "trialTime": 0
        },
        {
            "exptPart": "trial",
            "trialNumber": 48,
            "roleCurrent": "receiver",
            "marblesSampled": 100,
            "probRed": 0.5,
            "practiceLambda": 5,
            "trialLambda": 21.9,
            "instructedLambda": "dishonest_small",
            "sd": 8.1,
            "drawnRed": 43,
            "reportedRed": 71,
            "inferredRed": 10,
            "playerTrialScore": -33,
            "oppTrialScore": 0,
            "playerTotalScore": -1101,
            "oppTotalScore": 215,
            "waitTime": 5458.8613889275275,
            "responseTime": 1682182361383,
            "catchQuestion": "How many <b class=\"r\">red<\/b> marbles did your opponent report drawing? ",
            "catchKey": -1,
            "catchResponse": -1,
            "catchTime": 1682182260367,
            "trialTime": 0
        },
        {
            "exptPart": "trial",
            "trialNumber": 49,
            "roleCurrent": "receiver",
            "marblesSampled": 100,
            "probRed": 0.5,
            "practiceLambda": 5,
            "trialLambda": 21.9,
            "instructedLambda": "dishonest_small",
            "sd": 8.1,
            "drawnRed": 44,
            "reportedRed": 56,
            "inferredRed": 10,
            "playerTrialScore": -34,
            "oppTrialScore": 0,
            "playerTotalScore": -1135,
            "oppTotalScore": 215,
            "waitTime": 6860.173977766275,
            "responseTime": 1682182372132,
            "catchQuestion": "How many <b class=\"r\">red<\/b> marbles did your opponent report drawing? ",
            "catchKey": -1,
            "catchResponse": -1,
            "catchTime": 1682182260367,
            "trialTime": 0
        },
        {
            "exptPart": "trial",
            "trialNumber": 50,
            "roleCurrent": "receiver",
            "marblesSampled": 100,
            "probRed": 0.5,
            "practiceLambda": 5,
            "trialLambda": 21.9,
            "instructedLambda": "dishonest_small",
            "sd": 8.1,
            "drawnRed": 19,
            "reportedRed": 53,
            "inferredRed": 15,
            "playerTrialScore": -4,
            "oppTrialScore": 0,
            "playerTotalScore": -1139,
            "oppTotalScore": 215,
            "waitTime": 5403.527177209701,
            "responseTime": 1682182383649,
            "catchQuestion": "How many <b class=\"r\">red<\/b> marbles did your opponent report drawing? ",
            "catchKey": -1,
            "catchResponse": -1,
            "catchTime": 1682182383649,
            "trialTime": 0
        },
        {
            "exptPart": "trial",
            "trialNumber": 51,
            "roleCurrent": "receiver",
            "marblesSampled": 100,
            "probRed": 0.5,
            "practiceLambda": 5,
            "trialLambda": 21.9,
            "instructedLambda": "dishonest_small",
            "sd": 8.1,
            "drawnRed": 64,
            "reportedRed": 88,
            "inferredRed": 72,
            "playerTrialScore": -8,
            "oppTrialScore": 8,
            "playerTotalScore": -1147,
            "oppTotalScore": 223,
            "waitTime": 5481.764628431152,
            "responseTime": 1682182404366,
            "catchQuestion": "How many <b class=\"r\">red<\/b> marbles did your opponent report drawing? ",
            "catchKey": -1,
            "catchResponse": -1,
            "catchTime": 1682182383649,
            "trialTime": 0
        },
        {
            "exptPart": "trial",
            "trialNumber": 52,
            "roleCurrent": "receiver",
            "marblesSampled": 100,
            "probRed": 0.5,
            "practiceLambda": 5,
            "trialLambda": 21.9,
            "instructedLambda": "dishonest_small",
            "sd": 8.1,
            "drawnRed": 80,
            "reportedRed": 100,
            "inferredRed": 90,
            "playerTrialScore": -10,
            "oppTrialScore": 10,
            "playerTotalScore": -1157,
            "oppTotalScore": 233,
            "waitTime": 6219.555409555493,
            "responseTime": 1682182413749,
            "catchQuestion": "How many <b class=\"r\">red<\/b> marbles did your opponent report drawing? ",
            "catchKey": -1,
            "catchResponse": -1,
            "catchTime": 1682182383649,
            "trialTime": 0
        },
        {
            "exptPart": "trial",
            "trialNumber": 53,
            "roleCurrent": "receiver",
            "marblesSampled": 100,
            "probRed": 0.5,
            "practiceLambda": 5,
            "trialLambda": 21.9,
            "instructedLambda": "dishonest_small",
            "sd": 8.1,
            "drawnRed": 74,
            "reportedRed": 100,
            "inferredRed": 76,
            "playerTrialScore": -2,
            "oppTrialScore": 2,
            "playerTotalScore": -1159,
            "oppTotalScore": 235,
            "waitTime": 6473.100193199554,
            "responseTime": 1682182424082,
            "catchQuestion": "How many <b class=\"r\">red<\/b> marbles did your opponent report drawing? ",
            "catchKey": -1,
            "catchResponse": -1,
            "catchTime": 1682182383649,
            "trialTime": 0
        },
        {
            "exptPart": "trial",
            "trialNumber": 54,
            "roleCurrent": "receiver",
            "marblesSampled": 100,
            "probRed": 0.5,
            "practiceLambda": 5,
            "trialLambda": 21.9,
            "instructedLambda": "dishonest_small",
            "sd": 8.1,
            "drawnRed": 53,
            "reportedRed": 89,
            "inferredRed": 70,
            "playerTrialScore": -17,
            "oppTrialScore": 17,
            "playerTotalScore": -1176,
            "oppTotalScore": 252,
            "waitTime": 6928.721040420396,
            "responseTime": 1682182435583,
            "catchQuestion": "How many <b class=\"r\">red<\/b> marbles did your opponent report drawing? ",
            "catchKey": 89,
            "catchResponse": 89,
            "catchTime": 1682182435583,
            "trialTime": 0
        },
        {
            "exptPart": "trial",
            "trialNumber": 55,
            "roleCurrent": "receiver",
            "marblesSampled": 100,
            "probRed": 0.5,
            "practiceLambda": 5,
            "trialLambda": 21.9,
            "instructedLambda": "dishonest_small",
            "sd": 8.1,
            "drawnRed": 30,
            "reportedRed": 50,
            "inferredRed": 33,
            "playerTrialScore": -3,
            "oppTrialScore": 3,
            "playerTotalScore": -1179,
            "oppTotalScore": 255,
            "waitTime": 7347.557396973368,
            "responseTime": 1682182453416,
            "catchQuestion": "How many <b class=\"r\">red<\/b> marbles did your opponent report drawing? ",
            "catchKey": 50,
            "catchResponse": 50,
            "catchTime": 1682182453416,
            "trialTime": 0
        },
        {
            "exptPart": "trial",
            "trialNumber": 56,
            "roleCurrent": "receiver",
            "marblesSampled": 100,
            "probRed": 0.5,
            "practiceLambda": 5,
            "trialLambda": 21.9,
            "instructedLambda": "dishonest_small",
            "sd": 8.1,
            "drawnRed": 74,
            "reportedRed": 85,
            "inferredRed": 72,
            "playerTrialScore": -2,
            "oppTrialScore": 0,
            "playerTotalScore": -1181,
            "oppTotalScore": 255,
            "waitTime": 5670.485232876948,
            "responseTime": 1682182471066,
            "catchQuestion": "How many <b class=\"r\">red<\/b> marbles did your opponent report drawing? ",
            "catchKey": -1,
            "catchResponse": -1,
            "catchTime": 1682182453416,
            "trialTime": 0
        },
        {
            "exptPart": "trial",
            "trialNumber": 57,
            "roleCurrent": "receiver",
            "marblesSampled": 100,
            "probRed": 0.5,
            "practiceLambda": 5,
            "trialLambda": 21.9,
            "instructedLambda": "dishonest_small",
            "sd": 8.1,
            "drawnRed": 44,
            "reportedRed": 66,
            "inferredRed": 51,
            "playerTrialScore": -7,
            "oppTrialScore": 7,
            "playerTotalScore": -1188,
            "oppTotalScore": 262,
            "waitTime": 6303.984890436659,
            "responseTime": 1682182481549,
            "catchQuestion": "How many <b class=\"r\">red<\/b> marbles did your opponent report drawing? ",
            "catchKey": -1,
            "catchResponse": -1,
            "catchTime": 1682182453416,
            "trialTime": 0
        },
        {
            "exptPart": "trial",
            "trialNumber": 58,
            "roleCurrent": "receiver",
            "marblesSampled": 100,
            "probRed": 0.5,
            "practiceLambda": 5,
            "trialLambda": 21.9,
            "instructedLambda": "dishonest_small",
            "sd": 8.1,
            "drawnRed": 66,
            "reportedRed": 79,
            "inferredRed": 66,
            "playerTrialScore": 0,
            "oppTrialScore": 0,
            "playerTotalScore": -1188,
            "oppTotalScore": 262,
            "waitTime": 5476.9053319926115,
            "responseTime": 1682182493199,
            "catchQuestion": "How many <b class=\"r\">red<\/b> marbles did your opponent report drawing? ",
            "catchKey": -1,
            "catchResponse": -1,
            "catchTime": 1682182453416,
            "trialTime": 0
        },
        {
            "exptPart": "trial",
            "trialNumber": 59,
            "roleCurrent": "receiver",
            "marblesSampled": 100,
            "probRed": 0.5,
            "practiceLambda": 5,
            "trialLambda": 21.9,
            "instructedLambda": "dishonest_small",
            "sd": 8.1,
            "drawnRed": 59,
            "reportedRed": 75,
            "inferredRed": 54,
            "playerTrialScore": -5,
            "oppTrialScore": 0,
            "playerTotalScore": -1193,
            "oppTotalScore": 262,
            "waitTime": 5380.3076271908685,
            "responseTime": 1682182502532,
            "catchQuestion": "How many <b class=\"r\">red<\/b> marbles did your opponent report drawing? ",
            "catchKey": -1,
            "catchResponse": -1,
            "catchTime": 1682182453416,
            "trialTime": 0
        },
        {
            "exptPart": "trial",
            "trialNumber": 60,
            "roleCurrent": "receiver",
            "marblesSampled": 100,
            "probRed": 0.5,
            "practiceLambda": 5,
            "trialLambda": 21.9,
            "instructedLambda": "dishonest_small",
            "sd": 8.1,
            "drawnRed": 37,
            "reportedRed": 60,
            "inferredRed": 49,
            "playerTrialScore": -12,
            "oppTrialScore": 12,
            "playerTotalScore": -1205,
            "oppTotalScore": 274,
            "waitTime": 5475.581801240869,
            "responseTime": 1682182512332,
            "catchQuestion": "How many <b class=\"r\">red<\/b> marbles did your opponent report drawing? ",
            "catchKey": -1,
            "catchResponse": -1,
            "catchTime": 1682182512332,
            "trialTime": 0
        },
        {
            "exptPart": "trial",
            "trialNumber": 61,
            "roleCurrent": "receiver",
            "marblesSampled": 100,
            "probRed": 0.5,
            "practiceLambda": 5,
            "trialLambda": 21.9,
            "instructedLambda": "dishonest_small",
            "sd": 8.1,
            "drawnRed": 39,
            "reportedRed": 72,
            "inferredRed": 58,
            "playerTrialScore": -19,
            "oppTrialScore": 19,
            "playerTotalScore": -1224,
            "oppTotalScore": 293,
            "waitTime": 6567.3874349825965,
            "responseTime": 1682182530533,
            "catchQuestion": "How many <b class=\"r\">red<\/b> marbles did your opponent report drawing? ",
            "catchKey": -1,
            "catchResponse": -1,
            "catchTime": 1682182512332,
            "trialTime": 0
        },
        {
            "exptPart": "trial",
            "trialNumber": 62,
            "roleCurrent": "receiver",
            "marblesSampled": 100,
            "probRed": 0.5,
            "practiceLambda": 5,
            "trialLambda": 21.9,
            "instructedLambda": "dishonest_small",
            "sd": 8.1,
            "drawnRed": 31,
            "reportedRed": 43,
            "inferredRed": 36,
            "playerTrialScore": -5,
            "oppTrialScore": 5,
            "playerTotalScore": -1229,
            "oppTotalScore": 298,
            "waitTime": 5781.422419194003,
            "responseTime": 1682182544299,
            "catchQuestion": "How many <b class=\"r\">red<\/b> marbles did your opponent report drawing? ",
            "catchKey": -1,
            "catchResponse": -1,
            "catchTime": 1682182512332,
            "trialTime": 0
        },
        {
            "exptPart": "trial",
            "trialNumber": 63,
            "roleCurrent": "receiver",
            "marblesSampled": 100,
            "probRed": 0.5,
            "practiceLambda": 5,
            "trialLambda": 21.9,
            "instructedLambda": "dishonest_small",
            "sd": 8.1,
            "drawnRed": 13,
            "reportedRed": 34,
            "inferredRed": 25,
            "playerTrialScore": -12,
            "oppTrialScore": 12,
            "playerTotalScore": -1241,
            "oppTotalScore": 310,
            "waitTime": 6669.175384953709,
            "responseTime": 1682182555699,
            "catchQuestion": "How many <b class=\"r\">red<\/b> marbles did your opponent report drawing? ",
            "catchKey": -1,
            "catchResponse": -1,
            "catchTime": 1682182512332,
            "trialTime": 0
        },
        {
            "exptPart": "trial",
            "trialNumber": 64,
            "roleCurrent": "receiver",
            "marblesSampled": 100,
            "probRed": 0.5,
            "practiceLambda": 5,
            "trialLambda": 21.9,
            "instructedLambda": "dishonest_small",
            "sd": 8.1,
            "drawnRed": 56,
            "reportedRed": 88,
            "inferredRed": 71,
            "playerTrialScore": -15,
            "oppTrialScore": 15,
            "playerTotalScore": -1256,
            "oppTotalScore": 325,
            "waitTime": 5684.5285435610895,
            "responseTime": 1682182567999,
            "catchQuestion": "How many <b class=\"r\">red<\/b> marbles did your opponent report drawing? ",
            "catchKey": -1,
            "catchResponse": -1,
            "catchTime": 1682182512332,
            "trialTime": 0
        },
        {
            "exptPart": "trial",
            "trialNumber": 65,
            "roleCurrent": "receiver",
            "marblesSampled": 100,
            "probRed": 0.5,
            "practiceLambda": 5,
            "trialLambda": 21.9,
            "instructedLambda": "dishonest_small",
            "sd": 8.1,
            "drawnRed": 62,
            "reportedRed": 85,
            "inferredRed": 65,
            "playerTrialScore": -3,
            "oppTrialScore": 3,
            "playerTotalScore": -1259,
            "oppTotalScore": 328,
            "waitTime": 5898.671099813392,
            "responseTime": 1682182579049,
            "catchQuestion": "How many <b class=\"r\">red<\/b> marbles did your opponent report drawing? ",
            "catchKey": -1,
            "catchResponse": -1,
            "catchTime": 1682182512332,
            "trialTime": 0
        },
        {
            "exptPart": "trial",
            "trialNumber": 66,
            "roleCurrent": "receiver",
            "marblesSampled": 100,
            "probRed": 0.5,
            "practiceLambda": 5,
            "trialLambda": 21.9,
            "instructedLambda": "dishonest_small",
            "sd": 8.1,
            "drawnRed": 41,
            "reportedRed": 67,
            "inferredRed": 49,
            "playerTrialScore": -8,
            "oppTrialScore": 8,
            "playerTotalScore": -1267,
            "oppTotalScore": 336,
            "waitTime": 5957.0379116438635,
            "responseTime": 1682182594532,
            "catchQuestion": "How many <b class=\"r\">red<\/b> marbles did your opponent report drawing? ",
            "catchKey": -1,
            "catchResponse": -1,
            "catchTime": 1682182512332,
            "trialTime": 0
        },
        {
            "exptPart": "trial",
            "trialNumber": 67,
            "roleCurrent": "receiver",
            "marblesSampled": 100,
            "probRed": 0.5,
            "practiceLambda": 5,
            "trialLambda": 21.9,
            "instructedLambda": "dishonest_small",
            "sd": 8.1,
            "drawnRed": 28,
            "reportedRed": 54,
            "inferredRed": 39,
            "playerTrialScore": -11,
            "oppTrialScore": 11,
            "playerTotalScore": -1278,
            "oppTotalScore": 347,
            "waitTime": 6953.636725133891,
            "responseTime": 1682182609599,
            "catchQuestion": "How many <b class=\"r\">red<\/b> marbles did your opponent report drawing? ",
            "catchKey": -1,
            "catchResponse": -1,
            "catchTime": 1682182512332,
            "trialTime": 0
        },
        {
            "exptPart": "trial",
            "trialNumber": 68,
            "roleCurrent": "receiver",
            "marblesSampled": 100,
            "probRed": 0.5,
            "practiceLambda": 5,
            "trialLambda": 21.9,
            "instructedLambda": "dishonest_small",
            "sd": 8.1,
            "drawnRed": 56,
            "reportedRed": 87,
            "inferredRed": 76,
            "playerTrialScore": -20,
            "oppTrialScore": 20,
            "playerTotalScore": -1298,
            "oppTotalScore": 367,
            "waitTime": 7244.86429987171,
            "responseTime": 1682182623498,
            "catchQuestion": "How many <b class=\"r\">red<\/b> marbles did your opponent report drawing? ",
            "catchKey": -1,
            "catchResponse": -1,
            "catchTime": 1682182512332,
            "trialTime": 0
        },
        {
            "exptPart": "trial",
            "trialNumber": 69,
            "roleCurrent": "receiver",
            "marblesSampled": 100,
            "probRed": 0.5,
            "practiceLambda": 5,
            "trialLambda": 21.9,
            "instructedLambda": "dishonest_small",
            "sd": 8.1,
            "drawnRed": 62,
            "reportedRed": 92,
            "inferredRed": 77,
            "playerTrialScore": -15,
            "oppTrialScore": 15,
            "playerTotalScore": -1313,
            "oppTotalScore": 382,
            "waitTime": 5523.405472271619,
            "responseTime": 1682182634465,
            "catchQuestion": "How many <b class=\"r\">red<\/b> marbles did your opponent report drawing? ",
            "catchKey": -1,
            "catchResponse": -1,
            "catchTime": 1682182512332,
            "trialTime": 0
        },
        {
            "exptPart": "trial",
            "trialNumber": 70,
            "roleCurrent": "receiver",
            "marblesSampled": 100,
            "probRed": 0.5,
            "practiceLambda": 5,
            "trialLambda": 21.9,
            "instructedLambda": "dishonest_small",
            "sd": 8.1,
            "drawnRed": 77,
            "reportedRed": 86,
            "inferredRed": 54,
            "playerTrialScore": -23,
            "oppTrialScore": 0,
            "playerTotalScore": -1336,
            "oppTotalScore": 382,
            "waitTime": 5196.3799557612765,
            "responseTime": 1682182645632,
            "catchQuestion": "How many <b class=\"r\">red<\/b> marbles did your opponent report drawing? ",
            "catchKey": -1,
            "catchResponse": -1,
            "catchTime": 1682182645632,
            "trialTime": 0
        },
        {
            "exptPart": "trial",
            "trialNumber": 71,
            "roleCurrent": "receiver",
            "marblesSampled": 100,
            "probRed": 0.5,
            "practiceLambda": 5,
            "trialLambda": 21.9,
            "instructedLambda": "dishonest_small",
            "sd": 8.1,
            "drawnRed": 43,
            "reportedRed": 56,
            "inferredRed": 45,
            "playerTrialScore": -2,
            "oppTrialScore": 2,
            "playerTotalScore": -1338,
            "oppTotalScore": 384,
            "waitTime": 5503.432908972221,
            "responseTime": 1682182659899,
            "catchQuestion": "How many <b class=\"r\">red<\/b> marbles did your opponent report drawing? ",
            "catchKey": -1,
            "catchResponse": -1,
            "catchTime": 1682182645632,
            "trialTime": 0
        },
        {
            "exptPart": "trial",
            "trialNumber": 72,
            "roleCurrent": "receiver",
            "marblesSampled": 100,
            "probRed": 0.5,
            "practiceLambda": 5,
            "trialLambda": 21.9,
            "instructedLambda": "dishonest_small",
            "sd": 8.1,
            "drawnRed": 26,
            "reportedRed": 50,
            "inferredRed": 41,
            "playerTrialScore": -15,
            "oppTrialScore": 15,
            "playerTotalScore": -1353,
            "oppTotalScore": 399,
            "waitTime": 5494.062430632497,
            "responseTime": 1682182670099,
            "catchQuestion": "How many <b class=\"r\">red<\/b> marbles did your opponent report drawing? ",
            "catchKey": 50,
            "catchResponse": 50,
            "catchTime": 1682182670099,
            "trialTime": 0
        },
        {
            "exptPart": "trial",
            "trialNumber": 73,
            "roleCurrent": "receiver",
            "marblesSampled": 100,
            "probRed": 0.5,
            "practiceLambda": 5,
            "trialLambda": 21.9,
            "instructedLambda": "dishonest_small",
            "sd": 8.1,
            "drawnRed": 53,
            "reportedRed": 84,
            "inferredRed": 70,
            "playerTrialScore": -17,
            "oppTrialScore": 17,
            "playerTotalScore": -1370,
            "oppTotalScore": 416,
            "waitTime": 5823.308172995566,
            "responseTime": 1682182687315,
            "catchQuestion": "How many <b class=\"r\">red<\/b> marbles did your opponent report drawing? ",
            "catchKey": -1,
            "catchResponse": -1,
            "catchTime": 1682182670099,
            "trialTime": 0
        },
        {
            "exptPart": "trial",
            "trialNumber": 74,
            "roleCurrent": "receiver",
            "marblesSampled": 100,
            "probRed": 0.5,
            "practiceLambda": 5,
            "trialLambda": 21.9,
            "instructedLambda": "dishonest_small",
            "sd": 8.1,
            "drawnRed": 54,
            "reportedRed": 77,
            "inferredRed": 55,
            "playerTrialScore": -1,
            "oppTrialScore": 1,
            "playerTotalScore": -1371,
            "oppTotalScore": 417,
            "waitTime": 6067.482021901629,
            "responseTime": 1682182697665,
            "catchQuestion": "How many <b class=\"r\">red<\/b> marbles did your opponent report drawing? ",
            "catchKey": -1,
            "catchResponse": -1,
            "catchTime": 1682182670099,
            "trialTime": 0
        },
        {
            "exptPart": "trial",
            "trialNumber": 75,
            "roleCurrent": "receiver",
            "marblesSampled": 100,
            "probRed": 0.5,
            "practiceLambda": 5,
            "trialLambda": 21.9,
            "instructedLambda": "dishonest_small",
            "sd": 8.1,
            "drawnRed": 72,
            "reportedRed": 96,
            "inferredRed": 79,
            "playerTrialScore": -7,
            "oppTrialScore": 7,
            "playerTotalScore": -1378,
            "oppTotalScore": 424,
            "waitTime": 6806.023081437141,
            "responseTime": 1682182710832,
            "catchQuestion": "How many <b class=\"r\">red<\/b> marbles did your opponent report drawing? ",
            "catchKey": -1,
            "catchResponse": -1,
            "catchTime": 1682182670099,
            "trialTime": 0
        },
        {
            "exptPart": "trial",
            "trialNumber": 76,
            "roleCurrent": "receiver",
            "marblesSampled": 100,
            "probRed": 0.5,
            "practiceLambda": 5,
            "trialLambda": 21.9,
            "instructedLambda": "dishonest_small",
            "sd": 8.1,
            "drawnRed": 56,
            "reportedRed": 68,
            "inferredRed": 56,
            "playerTrialScore": 0,
            "oppTrialScore": 0,
            "playerTotalScore": -1378,
            "oppTotalScore": 424,
            "waitTime": 5894.382621725175,
            "responseTime": 1682182723033,
            "catchQuestion": "How many <b class=\"r\">red<\/b> marbles did your opponent report drawing? ",
            "catchKey": -1,
            "catchResponse": -1,
            "catchTime": 1682182670099,
            "trialTime": 0
        },
        {
            "exptPart": "trial",
            "trialNumber": 77,
            "roleCurrent": "receiver",
            "marblesSampled": 100,
            "probRed": 0.5,
            "practiceLambda": 5,
            "trialLambda": 21.9,
            "instructedLambda": "dishonest_small",
            "sd": 8.1,
            "drawnRed": 76,
            "reportedRed": 88,
            "inferredRed": 69,
            "playerTrialScore": -7,
            "oppTrialScore": 0,
            "playerTotalScore": -1385,
            "oppTotalScore": 424,
            "waitTime": 5562.622546175613,
            "responseTime": 1682182734032,
            "catchQuestion": "How many <b class=\"r\">red<\/b> marbles did your opponent report drawing? ",
            "catchKey": -1,
            "catchResponse": -1,
            "catchTime": 1682182670099,
            "trialTime": 0
        },
        {
            "exptPart": "trial",
            "trialNumber": 78,
            "roleCurrent": "receiver",
            "marblesSampled": 100,
            "probRed": 0.5,
            "practiceLambda": 5,
            "trialLambda": 21.9,
            "instructedLambda": "dishonest_small",
            "sd": 8.1,
            "drawnRed": 69,
            "reportedRed": 80,
            "inferredRed": 72,
            "playerTrialScore": -3,
            "oppTrialScore": 3,
            "playerTotalScore": -1388,
            "oppTotalScore": 427,
            "waitTime": 5900.186317689582,
            "responseTime": 1682182745499,
            "catchQuestion": "How many <b class=\"r\">red<\/b> marbles did your opponent report drawing? ",
            "catchKey": -1,
            "catchResponse": -1,
            "catchTime": 1682182670099,
            "trialTime": 0
        },
        {
            "exptPart": "trial",
            "trialNumber": 79,
            "roleCurrent": "receiver",
            "marblesSampled": 100,
            "probRed": 0.5,
            "practiceLambda": 5,
            "trialLambda": 21.9,
            "instructedLambda": "dishonest_small",
            "sd": 8.1,
            "drawnRed": 83,
            "reportedRed": 100,
            "inferredRed": 87,
            "playerTrialScore": -4,
            "oppTrialScore": 4,
            "playerTotalScore": -1392,
            "oppTotalScore": 431,
            "waitTime": 6128.702118279505,
            "responseTime": 1682182755948,
            "catchQuestion": "How many <b class=\"r\">red<\/b> marbles did your opponent report drawing? ",
            "catchKey": -1,
            "catchResponse": -1,
            "catchTime": 1682182670099,
            "trialTime": 0
        },
        {
            "exptPart": "trial",
            "trialNumber": 80,
            "roleCurrent": "receiver",
            "marblesSampled": 100,
            "probRed": 0.5,
            "practiceLambda": 5,
            "trialLambda": 21.9,
            "instructedLambda": "dishonest_small",
            "sd": 8.1,
            "drawnRed": 45,
            "reportedRed": 75,
            "inferredRed": 62,
            "playerTrialScore": -17,
            "oppTrialScore": 17,
            "playerTotalScore": -1409,
            "oppTotalScore": 448,
            "waitTime": 7097.77528714888,
            "responseTime": 1682182768333,
            "catchQuestion": "How many <b class=\"r\">red<\/b> marbles did your opponent report drawing? ",
            "catchKey": -1,
            "catchResponse": -1,
            "catchTime": 1682182768333,
            "trialTime": 0
        },
        {
            "exptPart": "trial",
            "trialNumber": 81,
            "roleCurrent": "receiver",
            "marblesSampled": 100,
            "probRed": 0.5,
            "practiceLambda": 5,
            "trialLambda": 21.9,
            "instructedLambda": "dishonest_small",
            "sd": 8.1,
            "drawnRed": 63,
            "reportedRed": 86,
            "inferredRed": 72,
            "playerTrialScore": -9,
            "oppTrialScore": 9,
            "playerTotalScore": -1418,
            "oppTotalScore": 457,
            "waitTime": 7019.2128400957345,
            "responseTime": 1682182787482,
            "catchQuestion": "How many <b class=\"r\">red<\/b> marbles did your opponent report drawing? ",
            "catchKey": -1,
            "catchResponse": -1,
            "catchTime": 1682182768333,
            "trialTime": 0
        },
        {
            "exptPart": "trial",
            "trialNumber": 82,
            "roleCurrent": "receiver",
            "marblesSampled": 100,
            "probRed": 0.5,
            "practiceLambda": 5,
            "trialLambda": 21.9,
            "instructedLambda": "dishonest_small",
            "sd": 8.1,
            "drawnRed": 55,
            "reportedRed": 74,
            "inferredRed": 65,
            "playerTrialScore": -10,
            "oppTrialScore": 10,
            "playerTotalScore": -1428,
            "oppTotalScore": 467,
            "waitTime": 6327.142359704008,
            "responseTime": 1682182798482,
            "catchQuestion": "How many <b class=\"r\">red<\/b> marbles did your opponent report drawing? ",
            "catchKey": -1,
            "catchResponse": -1,
            "catchTime": 1682182768333,
            "trialTime": 0
        },
        {
            "exptPart": "trial",
            "trialNumber": 83,
            "roleCurrent": "receiver",
            "marblesSampled": 100,
            "probRed": 0.5,
            "practiceLambda": 5,
            "trialLambda": 21.9,
            "instructedLambda": "dishonest_small",
            "sd": 8.1,
            "drawnRed": 87,
            "reportedRed": 100,
            "inferredRed": 84,
            "playerTrialScore": -3,
            "oppTrialScore": 0,
            "playerTotalScore": -1431,
            "oppTotalScore": 467,
            "waitTime": 5670.471324549753,
            "responseTime": 1682182809215,
            "catchQuestion": "How many <b class=\"r\">red<\/b> marbles did your opponent report drawing? ",
            "catchKey": -1,
            "catchResponse": -1,
            "catchTime": 1682182768333,
            "trialTime": 0
        },
        {
            "exptPart": "trial",
            "trialNumber": 84,
            "roleCurrent": "receiver",
            "marblesSampled": 100,
            "probRed": 0.5,
            "practiceLambda": 5,
            "trialLambda": 21.9,
            "instructedLambda": "dishonest_small",
            "sd": 8.1,
            "drawnRed": 40,
            "reportedRed": 62,
            "inferredRed": 48,
            "playerTrialScore": -8,
            "oppTrialScore": 8,
            "playerTotalScore": -1439,
            "oppTotalScore": 475,
            "waitTime": 5734.767681111824,
            "responseTime": 1682182819616,
            "catchQuestion": "How many <b class=\"r\">red<\/b> marbles did your opponent report drawing? ",
            "catchKey": -1,
            "catchResponse": -1,
            "catchTime": 1682182768333,
            "trialTime": 0
        },
        {
            "exptPart": "trial",
            "trialNumber": 85,
            "roleCurrent": "receiver",
            "marblesSampled": 100,
            "probRed": 0.5,
            "practiceLambda": 5,
            "trialLambda": 21.9,
            "instructedLambda": "dishonest_small",
            "sd": 8.1,
            "drawnRed": 49,
            "reportedRed": 69,
            "inferredRed": 56,
            "playerTrialScore": -7,
            "oppTrialScore": 7,
            "playerTotalScore": -1446,
            "oppTotalScore": 482,
            "waitTime": 5448.91322934645,
            "responseTime": 1682182830198,
            "catchQuestion": "How many <b class=\"r\">red<\/b> marbles did your opponent report drawing? ",
            "catchKey": -1,
            "catchResponse": -1,
            "catchTime": 1682182768333,
            "trialTime": 0
        },
        {
            "exptPart": "trial",
            "trialNumber": 86,
            "roleCurrent": "receiver",
            "marblesSampled": 100,
            "probRed": 0.5,
            "practiceLambda": 5,
            "trialLambda": 21.9,
            "instructedLambda": "dishonest_small",
            "sd": 8.1,
            "drawnRed": 74,
            "reportedRed": 100,
            "inferredRed": 77,
            "playerTrialScore": -3,
            "oppTrialScore": 3,
            "playerTotalScore": -1449,
            "oppTotalScore": 485,
            "waitTime": 7357.8559926270045,
            "responseTime": 1682182841582,
            "catchQuestion": "How many <b class=\"r\">red<\/b> marbles did your opponent report drawing? ",
            "catchKey": -1,
            "catchResponse": -1,
            "catchTime": 1682182768333,
            "trialTime": 0
        },
        {
            "exptPart": "trial",
            "trialNumber": 87,
            "roleCurrent": "receiver",
            "marblesSampled": 100,
            "probRed": 0.5,
            "practiceLambda": 5,
            "trialLambda": 21.9,
            "instructedLambda": "dishonest_small",
            "sd": 8.1,
            "drawnRed": 22,
            "reportedRed": 42,
            "inferredRed": 36,
            "playerTrialScore": -14,
            "oppTrialScore": 14,
            "playerTotalScore": -1463,
            "oppTotalScore": 499,
            "waitTime": 6118.867017203708,
            "responseTime": 1682182851915,
            "catchQuestion": "How many <b class=\"r\">red<\/b> marbles did your opponent report drawing? ",
            "catchKey": -1,
            "catchResponse": -1,
            "catchTime": 1682182768333,
            "trialTime": 0
        },
        {
            "exptPart": "trial",
            "trialNumber": 88,
            "roleCurrent": "receiver",
            "marblesSampled": 100,
            "probRed": 0.5,
            "practiceLambda": 5,
            "trialLambda": 21.9,
            "instructedLambda": "dishonest_small",
            "sd": 8.1,
            "drawnRed": 67,
            "reportedRed": 84,
            "inferredRed": 70,
            "playerTrialScore": -3,
            "oppTrialScore": 3,
            "playerTotalScore": -1466,
            "oppTotalScore": 502,
            "waitTime": 7175.161392011635,
            "responseTime": 1682182864248,
            "catchQuestion": "How many <b class=\"r\">red<\/b> marbles did your opponent report drawing? ",
            "catchKey": -1,
            "catchResponse": -1,
            "catchTime": 1682182768333,
            "trialTime": 0
        },
        {
            "exptPart": "trial",
            "trialNumber": 89,
            "roleCurrent": "receiver",
            "marblesSampled": 100,
            "probRed": 0.5,
            "practiceLambda": 5,
            "trialLambda": 21.9,
            "instructedLambda": "dishonest_small",
            "sd": 8.1,
            "drawnRed": 45,
            "reportedRed": 70,
            "inferredRed": 58,
            "playerTrialScore": -13,
            "oppTrialScore": 13,
            "playerTotalScore": -1479,
            "oppTotalScore": 515,
            "waitTime": 6234.061220253189,
            "responseTime": 1682182875831,
            "catchQuestion": "How many <b class=\"r\">red<\/b> marbles did your opponent report drawing? ",
            "catchKey": 70,
            "catchResponse": 70,
            "catchTime": 1682182875832,
            "trialTime": 0
        },
        {
            "exptPart": "trial",
            "trialNumber": 90,
            "roleCurrent": "receiver",
            "marblesSampled": 100,
            "probRed": 0.5,
            "practiceLambda": 5,
            "trialLambda": 21.9,
            "instructedLambda": "dishonest_small",
            "sd": 8.1,
            "drawnRed": 32,
            "reportedRed": 46,
            "inferredRed": 39,
            "playerTrialScore": -7,
            "oppTrialScore": 7,
            "playerTotalScore": -1486,
            "oppTotalScore": 522,
            "waitTime": 5628.155406923131,
            "responseTime": 1682182894998,
            "catchQuestion": "How many <b class=\"r\">red<\/b> marbles did your opponent report drawing? ",
            "catchKey": -1,
            "catchResponse": -1,
            "catchTime": 1682182894998,
            "trialTime": 0
        },
        {
            "exptPart": "trial",
            "trialNumber": 91,
            "roleCurrent": "receiver",
            "marblesSampled": 100,
            "probRed": 0.5,
            "practiceLambda": 5,
            "trialLambda": 21.9,
            "instructedLambda": "dishonest_small",
            "sd": 8.1,
            "drawnRed": 60,
            "reportedRed": 93,
            "inferredRed": 80,
            "playerTrialScore": -20,
            "oppTrialScore": 20,
            "playerTotalScore": -1506,
            "oppTotalScore": 542,
            "waitTime": 5510.100298622074,
            "responseTime": 1682182908548,
            "catchQuestion": "How many <b class=\"r\">red<\/b> marbles did your opponent report drawing? ",
            "catchKey": -1,
            "catchResponse": -1,
            "catchTime": 1682182894998,
            "trialTime": 0
        },
        {
            "exptPart": "trial",
            "trialNumber": 92,
            "roleCurrent": "receiver",
            "marblesSampled": 100,
            "probRed": 0.5,
            "practiceLambda": 5,
            "trialLambda": 21.9,
            "instructedLambda": "dishonest_small",
            "sd": 8.1,
            "drawnRed": 39,
            "reportedRed": 68,
            "inferredRed": 56,
            "playerTrialScore": -17,
            "oppTrialScore": 17,
            "playerTotalScore": -1523,
            "oppTotalScore": 559,
            "waitTime": 6285.473201883751,
            "responseTime": 1682182921331,
            "catchQuestion": "How many <b class=\"r\">red<\/b> marbles did your opponent report drawing? ",
            "catchKey": -1,
            "catchResponse": -1,
            "catchTime": 1682182894998,
            "trialTime": 0
        },
        {
            "exptPart": "trial",
            "trialNumber": 93,
            "roleCurrent": "receiver",
            "marblesSampled": 100,
            "probRed": 0.5,
            "practiceLambda": 5,
            "trialLambda": 21.9,
            "instructedLambda": "dishonest_small",
            "sd": 8.1,
            "drawnRed": 64,
            "reportedRed": 81,
            "inferredRed": 72,
            "playerTrialScore": -8,
            "oppTrialScore": 8,
            "playerTotalScore": -1531,
            "oppTotalScore": 567,
            "waitTime": 5647.825330852731,
            "responseTime": 1682182931598,
            "catchQuestion": "How many <b class=\"r\">red<\/b> marbles did your opponent report drawing? ",
            "catchKey": -1,
            "catchResponse": -1,
            "catchTime": 1682182894998,
            "trialTime": 0
        },
        {
            "exptPart": "trial",
            "trialNumber": 94,
            "roleCurrent": "receiver",
            "marblesSampled": 100,
            "probRed": 0.5,
            "practiceLambda": 5,
            "trialLambda": 21.9,
            "instructedLambda": "dishonest_small",
            "sd": 8.1,
            "drawnRed": 54,
            "reportedRed": 87,
            "inferredRed": 73,
            "playerTrialScore": -19,
            "oppTrialScore": 19,
            "playerTotalScore": -1550,
            "oppTotalScore": 586,
            "waitTime": 5493.374092661701,
            "responseTime": 1682182942848,
            "catchQuestion": "How many <b class=\"r\">red<\/b> marbles did your opponent report drawing? ",
            "catchKey": 87,
            "catchResponse": 87,
            "catchTime": 1682182942848,
            "trialTime": 0
        },
        {
            "exptPart": "trial",
            "trialNumber": 95,
            "roleCurrent": "receiver",
            "marblesSampled": 100,
            "probRed": 0.5,
            "practiceLambda": 5,
            "trialLambda": 21.9,
            "instructedLambda": "dishonest_small",
            "sd": 8.1,
            "drawnRed": 95,
            "reportedRed": 100,
            "inferredRed": 88,
            "playerTrialScore": -7,
            "oppTrialScore": 0,
            "playerTotalScore": -1557,
            "oppTotalScore": 586,
            "waitTime": 5300.245096150345,
            "responseTime": 1682182959415,
            "catchQuestion": "How many <b class=\"r\">red<\/b> marbles did your opponent report drawing? ",
            "catchKey": -1,
            "catchResponse": -1,
            "catchTime": 1682182942848,
            "trialTime": 0
        },
        {
            "exptPart": "trial",
            "trialNumber": 96,
            "roleCurrent": "receiver",
            "marblesSampled": 100,
            "probRed": 0.5,
            "practiceLambda": 5,
            "trialLambda": 21.9,
            "instructedLambda": "dishonest_small",
            "sd": 8.1,
            "drawnRed": 37,
            "reportedRed": 42,
            "inferredRed": 33,
            "playerTrialScore": -4,
            "oppTrialScore": 0,
            "playerTotalScore": -1561,
            "oppTotalScore": 586,
            "waitTime": 6713.07614985297,
            "responseTime": 1682182970198,
            "catchQuestion": "How many <b class=\"r\">red<\/b> marbles did your opponent report drawing? ",
            "catchKey": -1,
            "catchResponse": -1,
            "catchTime": 1682182942848,
            "trialTime": 0
        },
        {
            "exptPart": "trial",
            "trialNumber": 97,
            "roleCurrent": "receiver",
            "marblesSampled": 100,
            "probRed": 0.5,
            "practiceLambda": 5,
            "trialLambda": 21.9,
            "instructedLambda": "dishonest_small",
            "sd": 8.1,
            "drawnRed": 49,
            "reportedRed": 76,
            "inferredRed": 65,
            "playerTrialScore": -16,
            "oppTrialScore": 16,
            "playerTotalScore": -1577,
            "oppTotalScore": 602,
            "waitTime": 5236.350251655385,
            "responseTime": 1682182979732,
            "catchQuestion": "How many <b class=\"r\">red<\/b> marbles did your opponent report drawing? ",
            "catchKey": -1,
            "catchResponse": -1,
            "catchTime": 1682182942848,
            "trialTime": 0
        },
        {
            "exptPart": "trial",
            "trialNumber": 98,
            "roleCurrent": "receiver",
            "marblesSampled": 100,
            "probRed": 0.5,
            "practiceLambda": 5,
            "trialLambda": 21.9,
            "instructedLambda": "dishonest_small",
            "sd": 8.1,
            "drawnRed": 55,
            "reportedRed": 68,
            "inferredRed": 55,
            "playerTrialScore": 0,
            "oppTrialScore": 0,
            "playerTotalScore": -1577,
            "oppTotalScore": 602,
            "waitTime": 5316.967959594708,
            "responseTime": 1682182989315,
            "catchQuestion": "How many <b class=\"r\">red<\/b> marbles did your opponent report drawing? ",
            "catchKey": 68,
            "catchResponse": 68,
            "catchTime": 1682182989315,
            "trialTime": 0
        },
        {
            "exptPart": "trial",
            "trialNumber": 99,
            "roleCurrent": "receiver",
            "marblesSampled": 100,
            "probRed": 0.5,
            "practiceLambda": 5,
            "trialLambda": 21.9,
            "instructedLambda": "dishonest_small",
            "sd": 8.1,
            "drawnRed": 40,
            "reportedRed": 60,
            "inferredRed": 53,
            "playerTrialScore": -13,
            "oppTrialScore": 13,
            "playerTotalScore": -1590,
            "oppTotalScore": 615,
            "waitTime": 6259.841399032437,
            "responseTime": 1682183005031,
            "catchQuestion": "How many <b class=\"r\">red<\/b> marbles did your opponent report drawing? ",
            "catchKey": -1,
            "catchResponse": -1,
            "catchTime": 1682182989315,
            "trialTime": 0
        },
        {
            "exptPart": "trial",
            "trialNumber": 100,
            "roleCurrent": "receiver",
            "marblesSampled": 100,
            "probRed": 0.5,
            "practiceLambda": 5,
            "trialLambda": 21.9,
            "instructedLambda": "dishonest_small",
            "sd": 8.1,
            "drawnRed": 75,
            "reportedRed": 94,
            "inferredRed": 81,
            "playerTrialScore": -6,
            "oppTrialScore": 6,
            "playerTotalScore": -1596,
            "oppTotalScore": 621,
            "waitTime": 5730.6901539258115,
            "responseTime": 1682183015148,
            "catchQuestion": "How many <b class=\"r\">red<\/b> marbles did your opponent report drawing? ",
            "catchKey": -1,
            "catchResponse": -1,
            "catchTime": 1682183015148,
            "trialTime": 0
        }
    ]
}