{
    "client": {
        "type": "sona",
        "experiment_id": 2228,
        "credit_token": "b315147ae43241ea9c65086cb510cfb7",
        "survey_code": "47116",
        "sid": "sona-47116",
        "window": {
            "width": 1403,
            "height": 698
        },
        "screen": {
            "width": 1440,
            "height": 900
        },
        "userAgent": "Mozilla\/5.0 (Macintosh; Intel Mac OS X 10_15_7) AppleWebKit\/537.36 (KHTML, like Gecko) Chrome\/112.0.0.0 Safari\/537.36",
        "score": 0,
        "bonus": 0
    },
    "expt": {
        "saveURL": "submit.simple.php",
        "trials": 100,
        "practiceTrials": 2,
        "marblesSampled": 100,
        "probRed": 0.5,
        "practiceLambdaAI": 5,
        "lambdaAI": 21.9,
        "sd": 8.1,
        "roles": [
            "sender",
            "receiver"
        ],
        "cost": "unif",
        "goal": "over",
        "oppDishonesty": "dishonest_big",
        "catchTrials": [
            30,
            48,
            43,
            98,
            1,
            7,
            19,
            82,
            75,
            26
        ],
        "scoreTotal": {
            "player": -3737,
            "opp": 586
        },
        "sona": {
            "experiment_id": 2228,
            "credit_token": "b315147ae43241ea9c65086cb510cfb7"
        },
        "pilot": false,
        "debug": false
    },
    "trials": [
        {
            "exptPart": "practice",
            "trialNumber": 1,
            "roleCurrent": "sender",
            "marblesSampled": 100,
            "probRed": 0.5,
            "practiceLambda": 5,
            "trialLambda": 21.9,
            "instructedLambda": "dishonest_big",
            "sd": 8.1,
            "drawnRed": 73,
            "reportedRed": 54,
            "inferredRed": 38,
            "playerTrialScore": 0,
            "oppTrialScore": -35,
            "playerTotalScore": 0,
            "oppTotalScore": -35,
            "waitTime": 2171.5960912754,
            "responseTime": 1682361744429,
            "catchQuestion": "How many <b class=\"r\">red<\/b> marbles did you actually draw (before any changes)? ",
            "catchKey": 73,
            "catchResponse": 73,
            "catchTime": 1682361744429,
            "trialTime": 0
        },
        {
            "exptPart": "practice",
            "trialNumber": 2,
            "roleCurrent": "receiver",
            "marblesSampled": 100,
            "probRed": 0.5,
            "practiceLambda": 5,
            "trialLambda": 21.9,
            "instructedLambda": "dishonest_big",
            "sd": 8.1,
            "drawnRed": 76,
            "reportedRed": 80,
            "inferredRed": 70,
            "playerTrialScore": -6,
            "oppTrialScore": 0,
            "playerTotalScore": -6,
            "oppTotalScore": -35,
            "waitTime": 7115.687489364926,
            "responseTime": 1682361784553,
            "catchQuestion": "How many <b class=\"r\">red<\/b> marbles did your opponent report drawing? ",
            "catchKey": 80,
            "catchResponse": 80,
            "catchTime": 1682361784553,
            "trialTime": 0
        },
        {
            "exptPart": "trial",
            "trialNumber": 1,
            "roleCurrent": "receiver",
            "marblesSampled": 100,
            "probRed": 0.5,
            "practiceLambda": 5,
            "trialLambda": 21.9,
            "instructedLambda": "dishonest_big",
            "sd": 8.1,
            "drawnRed": 29,
            "reportedRed": 42,
            "inferredRed": 50,
            "playerTrialScore": -21,
            "oppTrialScore": 21,
            "playerTotalScore": -21,
            "oppTotalScore": 21,
            "waitTime": 5794.3180256746,
            "responseTime": 1682361819597,
            "catchQuestion": "How many <b class=\"r\">red<\/b> marbles did your opponent report drawing? ",
            "catchKey": -1,
            "catchResponse": -1,
            "catchTime": 1682361784553,
            "trialTime": 0
        },
        {
            "exptPart": "trial",
            "trialNumber": 2,
            "roleCurrent": "receiver",
            "marblesSampled": 100,
            "probRed": 0.5,
            "practiceLambda": 5,
            "trialLambda": 21.9,
            "instructedLambda": "dishonest_big",
            "sd": 8.1,
            "drawnRed": 57,
            "reportedRed": 68,
            "inferredRed": 70,
            "playerTrialScore": -13,
            "oppTrialScore": 13,
            "playerTotalScore": -34,
            "oppTotalScore": 34,
            "waitTime": 7238.512635939903,
            "responseTime": 1682361834814,
            "catchQuestion": "How many <b class=\"r\">red<\/b> marbles did your opponent report drawing? ",
            "catchKey": 68,
            "catchResponse": 68,
            "catchTime": 1682361834814,
            "trialTime": 0
        },
        {
            "exptPart": "trial",
            "trialNumber": 3,
            "roleCurrent": "receiver",
            "marblesSampled": 100,
            "probRed": 0.5,
            "practiceLambda": 5,
            "trialLambda": 21.9,
            "instructedLambda": "dishonest_big",
            "sd": 8.1,
            "drawnRed": 48,
            "reportedRed": 87,
            "inferredRed": 75,
            "playerTrialScore": -27,
            "oppTrialScore": 27,
            "playerTotalScore": -61,
            "oppTotalScore": 61,
            "waitTime": 5994.179447897553,
            "responseTime": 1682361852584,
            "catchQuestion": "How many <b class=\"r\">red<\/b> marbles did your opponent report drawing? ",
            "catchKey": -1,
            "catchResponse": -1,
            "catchTime": 1682361834814,
            "trialTime": 0
        },
        {
            "exptPart": "trial",
            "trialNumber": 4,
            "roleCurrent": "receiver",
            "marblesSampled": 100,
            "probRed": 0.5,
            "practiceLambda": 5,
            "trialLambda": 21.9,
            "instructedLambda": "dishonest_big",
            "sd": 8.1,
            "drawnRed": 32,
            "reportedRed": 47,
            "inferredRed": 60,
            "playerTrialScore": -28,
            "oppTrialScore": 28,
            "playerTotalScore": -89,
            "oppTotalScore": 89,
            "waitTime": 6774.638665864145,
            "responseTime": 1682361865346,
            "catchQuestion": "How many <b class=\"r\">red<\/b> marbles did your opponent report drawing? ",
            "catchKey": -1,
            "catchResponse": -1,
            "catchTime": 1682361834814,
            "trialTime": 0
        },
        {
            "exptPart": "trial",
            "trialNumber": 5,
            "roleCurrent": "receiver",
            "marblesSampled": 100,
            "probRed": 0.5,
            "practiceLambda": 5,
            "trialLambda": 21.9,
            "instructedLambda": "dishonest_big",
            "sd": 8.1,
            "drawnRed": 61,
            "reportedRed": 79,
            "inferredRed": 65,
            "playerTrialScore": -4,
            "oppTrialScore": 4,
            "playerTotalScore": -93,
            "oppTotalScore": 93,
            "waitTime": 5340.599259300801,
            "responseTime": 1682361884664,
            "catchQuestion": "How many <b class=\"r\">red<\/b> marbles did your opponent report drawing? ",
            "catchKey": -1,
            "catchResponse": -1,
            "catchTime": 1682361834814,
            "trialTime": 0
        },
        {
            "exptPart": "trial",
            "trialNumber": 6,
            "roleCurrent": "receiver",
            "marblesSampled": 100,
            "probRed": 0.5,
            "practiceLambda": 5,
            "trialLambda": 21.9,
            "instructedLambda": "dishonest_big",
            "sd": 8.1,
            "drawnRed": 16,
            "reportedRed": 32,
            "inferredRed": 40,
            "playerTrialScore": -24,
            "oppTrialScore": 24,
            "playerTotalScore": -117,
            "oppTotalScore": 117,
            "waitTime": 6733.294886641954,
            "responseTime": 1682361897116,
            "catchQuestion": "How many <b class=\"r\">red<\/b> marbles did your opponent report drawing? ",
            "catchKey": -1,
            "catchResponse": -1,
            "catchTime": 1682361834814,
            "trialTime": 0
        },
        {
            "exptPart": "trial",
            "trialNumber": 7,
            "roleCurrent": "receiver",
            "marblesSampled": 100,
            "probRed": 0.5,
            "practiceLambda": 5,
            "trialLambda": 21.9,
            "instructedLambda": "dishonest_big",
            "sd": 8.1,
            "drawnRed": 39,
            "reportedRed": 68,
            "inferredRed": 70,
            "playerTrialScore": -31,
            "oppTrialScore": 31,
            "playerTotalScore": -148,
            "oppTotalScore": 148,
            "waitTime": 6843.339837058398,
            "responseTime": 1682361911431,
            "catchQuestion": "How many <b class=\"r\">red<\/b> marbles did your opponent report drawing? ",
            "catchKey": -1,
            "catchResponse": -1,
            "catchTime": 1682361834814,
            "trialTime": 0
        },
        {
            "exptPart": "trial",
            "trialNumber": 8,
            "roleCurrent": "receiver",
            "marblesSampled": 100,
            "probRed": 0.5,
            "practiceLambda": 5,
            "trialLambda": 21.9,
            "instructedLambda": "dishonest_big",
            "sd": 8.1,
            "drawnRed": 26,
            "reportedRed": 41,
            "inferredRed": 45,
            "playerTrialScore": -19,
            "oppTrialScore": 19,
            "playerTotalScore": -167,
            "oppTotalScore": 167,
            "waitTime": 5579.347359711032,
            "responseTime": 1682361920113,
            "catchQuestion": "How many <b class=\"r\">red<\/b> marbles did your opponent report drawing? ",
            "catchKey": 41,
            "catchResponse": 41,
            "catchTime": 1682361920113,
            "trialTime": 0
        },
        {
            "exptPart": "trial",
            "trialNumber": 9,
            "roleCurrent": "receiver",
            "marblesSampled": 100,
            "probRed": 0.5,
            "practiceLambda": 5,
            "trialLambda": 21.9,
            "instructedLambda": "dishonest_big",
            "sd": 8.1,
            "drawnRed": 61,
            "reportedRed": 78,
            "inferredRed": 80,
            "playerTrialScore": -19,
            "oppTrialScore": 19,
            "playerTotalScore": -186,
            "oppTotalScore": 186,
            "waitTime": 5339.569723108847,
            "responseTime": 1682361937591,
            "catchQuestion": "How many <b class=\"r\">red<\/b> marbles did your opponent report drawing? ",
            "catchKey": -1,
            "catchResponse": -1,
            "catchTime": 1682361920113,
            "trialTime": 0
        },
        {
            "exptPart": "trial",
            "trialNumber": 10,
            "roleCurrent": "receiver",
            "marblesSampled": 100,
            "probRed": 0.5,
            "practiceLambda": 5,
            "trialLambda": 21.9,
            "instructedLambda": "dishonest_big",
            "sd": 8.1,
            "drawnRed": 48,
            "reportedRed": 70,
            "inferredRed": 55,
            "playerTrialScore": -7,
            "oppTrialScore": 7,
            "playerTotalScore": -193,
            "oppTotalScore": 193,
            "waitTime": 6931.29522324593,
            "responseTime": 1682361949228,
            "catchQuestion": "How many <b class=\"r\">red<\/b> marbles did your opponent report drawing? ",
            "catchKey": -1,
            "catchResponse": -1,
            "catchTime": 1682361949228,
            "trialTime": 0
        },
        {
            "exptPart": "trial",
            "trialNumber": 11,
            "roleCurrent": "receiver",
            "marblesSampled": 100,
            "probRed": 0.5,
            "practiceLambda": 5,
            "trialLambda": 21.9,
            "instructedLambda": "dishonest_big",
            "sd": 8.1,
            "drawnRed": 95,
            "reportedRed": 100,
            "inferredRed": 50,
            "playerTrialScore": -45,
            "oppTrialScore": 0,
            "playerTotalScore": -238,
            "oppTotalScore": 193,
            "waitTime": 5495.450258786978,
            "responseTime": 1682361964219,
            "catchQuestion": "How many <b class=\"r\">red<\/b> marbles did your opponent report drawing? ",
            "catchKey": -1,
            "catchResponse": -1,
            "catchTime": 1682361949228,
            "trialTime": 0
        },
        {
            "exptPart": "trial",
            "trialNumber": 12,
            "roleCurrent": "receiver",
            "marblesSampled": 100,
            "probRed": 0.5,
            "practiceLambda": 5,
            "trialLambda": 21.9,
            "instructedLambda": "dishonest_big",
            "sd": 8.1,
            "drawnRed": 66,
            "reportedRed": 86,
            "inferredRed": 80,
            "playerTrialScore": -14,
            "oppTrialScore": 14,
            "playerTotalScore": -252,
            "oppTotalScore": 207,
            "waitTime": 7251.371666466173,
            "responseTime": 1682361975357,
            "catchQuestion": "How many <b class=\"r\">red<\/b> marbles did your opponent report drawing? ",
            "catchKey": -1,
            "catchResponse": -1,
            "catchTime": 1682361949228,
            "trialTime": 0
        },
        {
            "exptPart": "trial",
            "trialNumber": 13,
            "roleCurrent": "receiver",
            "marblesSampled": 100,
            "probRed": 0.5,
            "practiceLambda": 5,
            "trialLambda": 21.9,
            "instructedLambda": "dishonest_big",
            "sd": 8.1,
            "drawnRed": 30,
            "reportedRed": 59,
            "inferredRed": 45,
            "playerTrialScore": -15,
            "oppTrialScore": 15,
            "playerTotalScore": -267,
            "oppTotalScore": 222,
            "waitTime": 6527.59199327959,
            "responseTime": 1682361986650,
            "catchQuestion": "How many <b class=\"r\">red<\/b> marbles did your opponent report drawing? ",
            "catchKey": -1,
            "catchResponse": -1,
            "catchTime": 1682361949228,
            "trialTime": 0
        },
        {
            "exptPart": "trial",
            "trialNumber": 14,
            "roleCurrent": "receiver",
            "marblesSampled": 100,
            "probRed": 0.5,
            "practiceLambda": 5,
            "trialLambda": 21.9,
            "instructedLambda": "dishonest_big",
            "sd": 8.1,
            "drawnRed": 55,
            "reportedRed": 90,
            "inferredRed": 70,
            "playerTrialScore": -15,
            "oppTrialScore": 15,
            "playerTotalScore": -282,
            "oppTotalScore": 237,
            "waitTime": 6620.262926672667,
            "responseTime": 1682361997013,
            "catchQuestion": "How many <b class=\"r\">red<\/b> marbles did your opponent report drawing? ",
            "catchKey": -1,
            "catchResponse": -1,
            "catchTime": 1682361949228,
            "trialTime": 0
        },
        {
            "exptPart": "trial",
            "trialNumber": 15,
            "roleCurrent": "receiver",
            "marblesSampled": 100,
            "probRed": 0.5,
            "practiceLambda": 5,
            "trialLambda": 21.9,
            "instructedLambda": "dishonest_big",
            "sd": 8.1,
            "drawnRed": 11,
            "reportedRed": 36,
            "inferredRed": 40,
            "playerTrialScore": -29,
            "oppTrialScore": 29,
            "playerTotalScore": -311,
            "oppTotalScore": 266,
            "waitTime": 5953.310908694268,
            "responseTime": 1682362008788,
            "catchQuestion": "How many <b class=\"r\">red<\/b> marbles did your opponent report drawing? ",
            "catchKey": -1,
            "catchResponse": -1,
            "catchTime": 1682361949228,
            "trialTime": 0
        },
        {
            "exptPart": "trial",
            "trialNumber": 16,
            "roleCurrent": "receiver",
            "marblesSampled": 100,
            "probRed": 0.5,
            "practiceLambda": 5,
            "trialLambda": 21.9,
            "instructedLambda": "dishonest_big",
            "sd": 8.1,
            "drawnRed": 30,
            "reportedRed": 57,
            "inferredRed": 52,
            "playerTrialScore": -22,
            "oppTrialScore": 22,
            "playerTotalScore": -333,
            "oppTotalScore": 288,
            "waitTime": 5425.324301054661,
            "responseTime": 1682362023771,
            "catchQuestion": "How many <b class=\"r\">red<\/b> marbles did your opponent report drawing? ",
            "catchKey": -1,
            "catchResponse": -1,
            "catchTime": 1682361949228,
            "trialTime": 0
        },
        {
            "exptPart": "trial",
            "trialNumber": 17,
            "roleCurrent": "receiver",
            "marblesSampled": 100,
            "probRed": 0.5,
            "practiceLambda": 5,
            "trialLambda": 21.9,
            "instructedLambda": "dishonest_big",
            "sd": 8.1,
            "drawnRed": 60,
            "reportedRed": 87,
            "inferredRed": 67,
            "playerTrialScore": -7,
            "oppTrialScore": 7,
            "playerTotalScore": -340,
            "oppTotalScore": 295,
            "waitTime": 5953.621871510866,
            "responseTime": 1682362034657,
            "catchQuestion": "How many <b class=\"r\">red<\/b> marbles did your opponent report drawing? ",
            "catchKey": -1,
            "catchResponse": -1,
            "catchTime": 1682361949228,
            "trialTime": 0
        },
        {
            "exptPart": "trial",
            "trialNumber": 18,
            "roleCurrent": "receiver",
            "marblesSampled": 100,
            "probRed": 0.5,
            "practiceLambda": 5,
            "trialLambda": 21.9,
            "instructedLambda": "dishonest_big",
            "sd": 8.1,
            "drawnRed": 81,
            "reportedRed": 100,
            "inferredRed": 100,
            "playerTrialScore": -19,
            "oppTrialScore": 19,
            "playerTotalScore": -359,
            "oppTotalScore": 314,
            "waitTime": 7425.381889529851,
            "responseTime": 1682362046393,
            "catchQuestion": "How many <b class=\"r\">red<\/b> marbles did your opponent report drawing? ",
            "catchKey": -1,
            "catchResponse": -1,
            "catchTime": 1682361949228,
            "trialTime": 0
        },
        {
            "exptPart": "trial",
            "trialNumber": 19,
            "roleCurrent": "receiver",
            "marblesSampled": 100,
            "probRed": 0.5,
            "practiceLambda": 5,
            "trialLambda": 21.9,
            "instructedLambda": "dishonest_big",
            "sd": 8.1,
            "drawnRed": 29,
            "reportedRed": 48,
            "inferredRed": 50,
            "playerTrialScore": -21,
            "oppTrialScore": 21,
            "playerTotalScore": -380,
            "oppTotalScore": 335,
            "waitTime": 6042.441908728769,
            "responseTime": 1682362066509,
            "catchQuestion": "How many <b class=\"r\">red<\/b> marbles did your opponent report drawing? ",
            "catchKey": -1,
            "catchResponse": -1,
            "catchTime": 1682361949228,
            "trialTime": 0
        },
        {
            "exptPart": "trial",
            "trialNumber": 20,
            "roleCurrent": "receiver",
            "marblesSampled": 100,
            "probRed": 0.5,
            "practiceLambda": 5,
            "trialLambda": 21.9,
            "instructedLambda": "dishonest_big",
            "sd": 8.1,
            "drawnRed": 25,
            "reportedRed": 43,
            "inferredRed": 40,
            "playerTrialScore": -15,
            "oppTrialScore": 15,
            "playerTotalScore": -395,
            "oppTotalScore": 350,
            "waitTime": 5406.199166513195,
            "responseTime": 1682362075785,
            "catchQuestion": "How many <b class=\"r\">red<\/b> marbles did your opponent report drawing? ",
            "catchKey": 43,
            "catchResponse": 43,
            "catchTime": 1682362075785,
            "trialTime": 0
        },
        {
            "exptPart": "trial",
            "trialNumber": 21,
            "roleCurrent": "receiver",
            "marblesSampled": 100,
            "probRed": 0.5,
            "practiceLambda": 5,
            "trialLambda": 21.9,
            "instructedLambda": "dishonest_big",
            "sd": 8.1,
            "drawnRed": 70,
            "reportedRed": 100,
            "inferredRed": 50,
            "playerTrialScore": -20,
            "oppTrialScore": 0,
            "playerTotalScore": -415,
            "oppTotalScore": 350,
            "waitTime": 5684.90001041974,
            "responseTime": 1682362106341,
            "catchQuestion": "How many <b class=\"r\">red<\/b> marbles did your opponent report drawing? ",
            "catchKey": -1,
            "catchResponse": -1,
            "catchTime": 1682362075785,
            "trialTime": 0
        },
        {
            "exptPart": "trial",
            "trialNumber": 22,
            "roleCurrent": "receiver",
            "marblesSampled": 100,
            "probRed": 0.5,
            "practiceLambda": 5,
            "trialLambda": 21.9,
            "instructedLambda": "dishonest_big",
            "sd": 8.1,
            "drawnRed": 74,
            "reportedRed": 98,
            "inferredRed": 50,
            "playerTrialScore": -24,
            "oppTrialScore": 0,
            "playerTotalScore": -439,
            "oppTotalScore": 350,
            "waitTime": 6746.854370424902,
            "responseTime": 1682362117312,
            "catchQuestion": "How many <b class=\"r\">red<\/b> marbles did your opponent report drawing? ",
            "catchKey": -1,
            "catchResponse": -1,
            "catchTime": 1682362075785,
            "trialTime": 0
        },
        {
            "exptPart": "trial",
            "trialNumber": 23,
            "roleCurrent": "receiver",
            "marblesSampled": 100,
            "probRed": 0.5,
            "practiceLambda": 5,
            "trialLambda": 21.9,
            "instructedLambda": "dishonest_big",
            "sd": 8.1,
            "drawnRed": 51,
            "reportedRed": 73,
            "inferredRed": 73,
            "playerTrialScore": -22,
            "oppTrialScore": 22,
            "playerTotalScore": -461,
            "oppTotalScore": 372,
            "waitTime": 5359.160858069223,
            "responseTime": 1682362129597,
            "catchQuestion": "How many <b class=\"r\">red<\/b> marbles did your opponent report drawing? ",
            "catchKey": -1,
            "catchResponse": -1,
            "catchTime": 1682362075785,
            "trialTime": 0
        },
        {
            "exptPart": "trial",
            "trialNumber": 24,
            "roleCurrent": "receiver",
            "marblesSampled": 100,
            "probRed": 0.5,
            "practiceLambda": 5,
            "trialLambda": 21.9,
            "instructedLambda": "dishonest_big",
            "sd": 8.1,
            "drawnRed": 79,
            "reportedRed": 100,
            "inferredRed": 50,
            "playerTrialScore": -29,
            "oppTrialScore": 0,
            "playerTotalScore": -490,
            "oppTotalScore": 372,
            "waitTime": 6793.8596820695675,
            "responseTime": 1682362140116,
            "catchQuestion": "How many <b class=\"r\">red<\/b> marbles did your opponent report drawing? ",
            "catchKey": -1,
            "catchResponse": -1,
            "catchTime": 1682362075785,
            "trialTime": 0
        },
        {
            "exptPart": "trial",
            "trialNumber": 25,
            "roleCurrent": "receiver",
            "marblesSampled": 100,
            "probRed": 0.5,
            "practiceLambda": 5,
            "trialLambda": 21.9,
            "instructedLambda": "dishonest_big",
            "sd": 8.1,
            "drawnRed": 87,
            "reportedRed": 100,
            "inferredRed": 50,
            "playerTrialScore": -37,
            "oppTrialScore": 0,
            "playerTotalScore": -527,
            "oppTotalScore": 372,
            "waitTime": 5692.043207472658,
            "responseTime": 1682362149312,
            "catchQuestion": "How many <b class=\"r\">red<\/b> marbles did your opponent report drawing? ",
            "catchKey": -1,
            "catchResponse": -1,
            "catchTime": 1682362075785,
            "trialTime": 0
        },
        {
            "exptPart": "trial",
            "trialNumber": 26,
            "roleCurrent": "receiver",
            "marblesSampled": 100,
            "probRed": 0.5,
            "practiceLambda": 5,
            "trialLambda": 21.9,
            "instructedLambda": "dishonest_big",
            "sd": 8.1,
            "drawnRed": 37,
            "reportedRed": 62,
            "inferredRed": 62,
            "playerTrialScore": -25,
            "oppTrialScore": 25,
            "playerTotalScore": -552,
            "oppTotalScore": 397,
            "waitTime": 6928.492041649147,
            "responseTime": 1682362160784,
            "catchQuestion": "How many <b class=\"r\">red<\/b> marbles did your opponent report drawing? ",
            "catchKey": -1,
            "catchResponse": -1,
            "catchTime": 1682362075785,
            "trialTime": 0
        },
        {
            "exptPart": "trial",
            "trialNumber": 27,
            "roleCurrent": "receiver",
            "marblesSampled": 100,
            "probRed": 0.5,
            "practiceLambda": 5,
            "trialLambda": 21.9,
            "instructedLambda": "dishonest_big",
            "sd": 8.1,
            "drawnRed": 85,
            "reportedRed": 100,
            "inferredRed": 50,
            "playerTrialScore": -35,
            "oppTrialScore": 0,
            "playerTotalScore": -587,
            "oppTotalScore": 397,
            "waitTime": 5967.331808814783,
            "responseTime": 1682362170224,
            "catchQuestion": "How many <b class=\"r\">red<\/b> marbles did your opponent report drawing? ",
            "catchKey": 100,
            "catchResponse": 100,
            "catchTime": 1682362170224,
            "trialTime": 0
        },
        {
            "exptPart": "trial",
            "trialNumber": 28,
            "roleCurrent": "receiver",
            "marblesSampled": 100,
            "probRed": 0.5,
            "practiceLambda": 5,
            "trialLambda": 21.9,
            "instructedLambda": "dishonest_big",
            "sd": 8.1,
            "drawnRed": 61,
            "reportedRed": 98,
            "inferredRed": 50,
            "playerTrialScore": -11,
            "oppTrialScore": 0,
            "playerTotalScore": -598,
            "oppTotalScore": 397,
            "waitTime": 6919.879107349817,
            "responseTime": 1682362186841,
            "catchQuestion": "How many <b class=\"r\">red<\/b> marbles did your opponent report drawing? ",
            "catchKey": -1,
            "catchResponse": -1,
            "catchTime": 1682362170224,
            "trialTime": 0
        },
        {
            "exptPart": "trial",
            "trialNumber": 29,
            "roleCurrent": "receiver",
            "marblesSampled": 100,
            "probRed": 0.5,
            "practiceLambda": 5,
            "trialLambda": 21.9,
            "instructedLambda": "dishonest_big",
            "sd": 8.1,
            "drawnRed": 53,
            "reportedRed": 68,
            "inferredRed": 68,
            "playerTrialScore": -15,
            "oppTrialScore": 15,
            "playerTotalScore": -613,
            "oppTotalScore": 412,
            "waitTime": 7230.873499432562,
            "responseTime": 1682362197506,
            "catchQuestion": "How many <b class=\"r\">red<\/b> marbles did your opponent report drawing? ",
            "catchKey": -1,
            "catchResponse": -1,
            "catchTime": 1682362170224,
            "trialTime": 0
        },
        {
            "exptPart": "trial",
            "trialNumber": 30,
            "roleCurrent": "receiver",
            "marblesSampled": 100,
            "probRed": 0.5,
            "practiceLambda": 5,
            "trialLambda": 21.9,
            "instructedLambda": "dishonest_big",
            "sd": 8.1,
            "drawnRed": 47,
            "reportedRed": 60,
            "inferredRed": 60,
            "playerTrialScore": -13,
            "oppTrialScore": 13,
            "playerTotalScore": -626,
            "oppTotalScore": 425,
            "waitTime": 7235.971901931587,
            "responseTime": 1682362207647,
            "catchQuestion": "How many <b class=\"r\">red<\/b> marbles did your opponent report drawing? ",
            "catchKey": -1,
            "catchResponse": -1,
            "catchTime": 1682362207647,
            "trialTime": 0
        },
        {
            "exptPart": "trial",
            "trialNumber": 31,
            "roleCurrent": "receiver",
            "marblesSampled": 100,
            "probRed": 0.5,
            "practiceLambda": 5,
            "trialLambda": 21.9,
            "instructedLambda": "dishonest_big",
            "sd": 8.1,
            "drawnRed": 52,
            "reportedRed": 68,
            "inferredRed": 68,
            "playerTrialScore": -16,
            "oppTrialScore": 16,
            "playerTotalScore": -642,
            "oppTotalScore": 441,
            "waitTime": 6831.49520102331,
            "responseTime": 1682362224312,
            "catchQuestion": "How many <b class=\"r\">red<\/b> marbles did your opponent report drawing? ",
            "catchKey": 68,
            "catchResponse": 68,
            "catchTime": 1682362224312,
            "trialTime": 0
        },
        {
            "exptPart": "trial",
            "trialNumber": 32,
            "roleCurrent": "receiver",
            "marblesSampled": 100,
            "probRed": 0.5,
            "practiceLambda": 5,
            "trialLambda": 21.9,
            "instructedLambda": "dishonest_big",
            "sd": 8.1,
            "drawnRed": 25,
            "reportedRed": 34,
            "inferredRed": 34,
            "playerTrialScore": -9,
            "oppTrialScore": 9,
            "playerTotalScore": -651,
            "oppTotalScore": 450,
            "waitTime": 6376.785669770663,
            "responseTime": 1682362238261,
            "catchQuestion": "How many <b class=\"r\">red<\/b> marbles did your opponent report drawing? ",
            "catchKey": -1,
            "catchResponse": -1,
            "catchTime": 1682362224312,
            "trialTime": 0
        },
        {
            "exptPart": "trial",
            "trialNumber": 33,
            "roleCurrent": "receiver",
            "marblesSampled": 100,
            "probRed": 0.5,
            "practiceLambda": 5,
            "trialLambda": 21.9,
            "instructedLambda": "dishonest_big",
            "sd": 8.1,
            "drawnRed": 63,
            "reportedRed": 81,
            "inferredRed": 45,
            "playerTrialScore": -18,
            "oppTrialScore": 0,
            "playerTotalScore": -669,
            "oppTotalScore": 450,
            "waitTime": 6246.6912972491855,
            "responseTime": 1682362251903,
            "catchQuestion": "How many <b class=\"r\">red<\/b> marbles did your opponent report drawing? ",
            "catchKey": -1,
            "catchResponse": -1,
            "catchTime": 1682362224312,
            "trialTime": 0
        },
        {
            "exptPart": "trial",
            "trialNumber": 34,
            "roleCurrent": "receiver",
            "marblesSampled": 100,
            "probRed": 0.5,
            "practiceLambda": 5,
            "trialLambda": 21.9,
            "instructedLambda": "dishonest_big",
            "sd": 8.1,
            "drawnRed": 41,
            "reportedRed": 58,
            "inferredRed": 58,
            "playerTrialScore": -17,
            "oppTrialScore": 17,
            "playerTotalScore": -686,
            "oppTotalScore": 467,
            "waitTime": 5829.889765504815,
            "responseTime": 1682362263225,
            "catchQuestion": "How many <b class=\"r\">red<\/b> marbles did your opponent report drawing? ",
            "catchKey": -1,
            "catchResponse": -1,
            "catchTime": 1682362224312,
            "trialTime": 0
        },
        {
            "exptPart": "trial",
            "trialNumber": 35,
            "roleCurrent": "receiver",
            "marblesSampled": 100,
            "probRed": 0.5,
            "practiceLambda": 5,
            "trialLambda": 21.9,
            "instructedLambda": "dishonest_big",
            "sd": 8.1,
            "drawnRed": 47,
            "reportedRed": 77,
            "inferredRed": 70,
            "playerTrialScore": -23,
            "oppTrialScore": 23,
            "playerTotalScore": -709,
            "oppTotalScore": 490,
            "waitTime": 5180.8847814572855,
            "responseTime": 1682362281064,
            "catchQuestion": "How many <b class=\"r\">red<\/b> marbles did your opponent report drawing? ",
            "catchKey": -1,
            "catchResponse": -1,
            "catchTime": 1682362224312,
            "trialTime": 0
        },
        {
            "exptPart": "trial",
            "trialNumber": 36,
            "roleCurrent": "receiver",
            "marblesSampled": 100,
            "probRed": 0.5,
            "practiceLambda": 5,
            "trialLambda": 21.9,
            "instructedLambda": "dishonest_big",
            "sd": 8.1,
            "drawnRed": 80,
            "reportedRed": 100,
            "inferredRed": 50,
            "playerTrialScore": -30,
            "oppTrialScore": 0,
            "playerTotalScore": -739,
            "oppTotalScore": 490,
            "waitTime": 7086.436939674846,
            "responseTime": 1682362291855,
            "catchQuestion": "How many <b class=\"r\">red<\/b> marbles did your opponent report drawing? ",
            "catchKey": -1,
            "catchResponse": -1,
            "catchTime": 1682362224312,
            "trialTime": 0
        },
        {
            "exptPart": "trial",
            "trialNumber": 37,
            "roleCurrent": "receiver",
            "marblesSampled": 100,
            "probRed": 0.5,
            "practiceLambda": 5,
            "trialLambda": 21.9,
            "instructedLambda": "dishonest_big",
            "sd": 8.1,
            "drawnRed": 39,
            "reportedRed": 70,
            "inferredRed": 70,
            "playerTrialScore": -31,
            "oppTrialScore": 31,
            "playerTotalScore": -770,
            "oppTotalScore": 521,
            "waitTime": 6166.8624223972565,
            "responseTime": 1682362302105,
            "catchQuestion": "How many <b class=\"r\">red<\/b> marbles did your opponent report drawing? ",
            "catchKey": -1,
            "catchResponse": -1,
            "catchTime": 1682362224312,
            "trialTime": 0
        },
        {
            "exptPart": "trial",
            "trialNumber": 38,
            "roleCurrent": "receiver",
            "marblesSampled": 100,
            "probRed": 0.5,
            "practiceLambda": 5,
            "trialLambda": 21.9,
            "instructedLambda": "dishonest_big",
            "sd": 8.1,
            "drawnRed": 40,
            "reportedRed": 66,
            "inferredRed": 66,
            "playerTrialScore": -26,
            "oppTrialScore": 26,
            "playerTotalScore": -796,
            "oppTotalScore": 547,
            "waitTime": 6609.551965467392,
            "responseTime": 1682362312197,
            "catchQuestion": "How many <b class=\"r\">red<\/b> marbles did your opponent report drawing? ",
            "catchKey": -1,
            "catchResponse": -1,
            "catchTime": 1682362224312,
            "trialTime": 0
        },
        {
            "exptPart": "trial",
            "trialNumber": 39,
            "roleCurrent": "receiver",
            "marblesSampled": 100,
            "probRed": 0.5,
            "practiceLambda": 5,
            "trialLambda": 21.9,
            "instructedLambda": "dishonest_big",
            "sd": 8.1,
            "drawnRed": 43,
            "reportedRed": 64,
            "inferredRed": 64,
            "playerTrialScore": -21,
            "oppTrialScore": 21,
            "playerTotalScore": -817,
            "oppTotalScore": 568,
            "waitTime": 7202.576456113817,
            "responseTime": 1682362322562,
            "catchQuestion": "How many <b class=\"r\">red<\/b> marbles did your opponent report drawing? ",
            "catchKey": -1,
            "catchResponse": -1,
            "catchTime": 1682362224312,
            "trialTime": 0
        },
        {
            "exptPart": "trial",
            "trialNumber": 40,
            "roleCurrent": "receiver",
            "marblesSampled": 100,
            "probRed": 0.5,
            "practiceLambda": 5,
            "trialLambda": 21.9,
            "instructedLambda": "dishonest_big",
            "sd": 8.1,
            "drawnRed": 62,
            "reportedRed": 74,
            "inferredRed": 74,
            "playerTrialScore": -12,
            "oppTrialScore": 12,
            "playerTotalScore": -829,
            "oppTotalScore": 580,
            "waitTime": 5596.360344861521,
            "responseTime": 1682362331213,
            "catchQuestion": "How many <b class=\"r\">red<\/b> marbles did your opponent report drawing? ",
            "catchKey": -1,
            "catchResponse": -1,
            "catchTime": 1682362331213,
            "trialTime": 0
        },
        {
            "exptPart": "trial",
            "trialNumber": 41,
            "roleCurrent": "receiver",
            "marblesSampled": 100,
            "probRed": 0.5,
            "practiceLambda": 5,
            "trialLambda": 21.9,
            "instructedLambda": "dishonest_big",
            "sd": 8.1,
            "drawnRed": 59,
            "reportedRed": 65,
            "inferredRed": 65,
            "playerTrialScore": -6,
            "oppTrialScore": 6,
            "playerTotalScore": -835,
            "oppTotalScore": 586,
            "waitTime": 6123.8010720484035,
            "responseTime": 1682362343511,
            "catchQuestion": "How many <b class=\"r\">red<\/b> marbles did your opponent report drawing? ",
            "catchKey": -1,
            "catchResponse": -1,
            "catchTime": 1682362331213,
            "trialTime": 0
        },
        {
            "exptPart": "trial",
            "trialNumber": 42,
            "roleCurrent": "receiver",
            "marblesSampled": 100,
            "probRed": 0.5,
            "practiceLambda": 5,
            "trialLambda": 21.9,
            "instructedLambda": "dishonest_big",
            "sd": 8.1,
            "drawnRed": 35,
            "reportedRed": 53,
            "inferredRed": 1,
            "playerTrialScore": -34,
            "oppTrialScore": 0,
            "playerTotalScore": -869,
            "oppTotalScore": 586,
            "waitTime": 5324.388769207768,
            "responseTime": 1682362351350,
            "catchQuestion": "How many <b class=\"r\">red<\/b> marbles did your opponent report drawing? ",
            "catchKey": -1,
            "catchResponse": -1,
            "catchTime": 1682362331213,
            "trialTime": 0
        },
        {
            "exptPart": "trial",
            "trialNumber": 43,
            "roleCurrent": "receiver",
            "marblesSampled": 100,
            "probRed": 0.5,
            "practiceLambda": 5,
            "trialLambda": 21.9,
            "instructedLambda": "dishonest_big",
            "sd": 8.1,
            "drawnRed": 51,
            "reportedRed": 72,
            "inferredRed": 1,
            "playerTrialScore": -50,
            "oppTrialScore": 0,
            "playerTotalScore": -919,
            "oppTotalScore": 586,
            "waitTime": 5490.021085863174,
            "responseTime": 1682362358409,
            "catchQuestion": "How many <b class=\"r\">red<\/b> marbles did your opponent report drawing? ",
            "catchKey": -1,
            "catchResponse": -1,
            "catchTime": 1682362331213,
            "trialTime": 0
        },
        {
            "exptPart": "trial",
            "trialNumber": 44,
            "roleCurrent": "receiver",
            "marblesSampled": 100,
            "probRed": 0.5,
            "practiceLambda": 5,
            "trialLambda": 21.9,
            "instructedLambda": "dishonest_big",
            "sd": 8.1,
            "drawnRed": 33,
            "reportedRed": 50,
            "inferredRed": 1,
            "playerTrialScore": -32,
            "oppTrialScore": 0,
            "playerTotalScore": -951,
            "oppTotalScore": 586,
            "waitTime": 7101.085823619814,
            "responseTime": 1682362367389,
            "catchQuestion": "How many <b class=\"r\">red<\/b> marbles did your opponent report drawing? ",
            "catchKey": 50,
            "catchResponse": 50,
            "catchTime": 1682362367389,
            "trialTime": 0
        },
        {
            "exptPart": "trial",
            "trialNumber": 45,
            "roleCurrent": "receiver",
            "marblesSampled": 100,
            "probRed": 0.5,
            "practiceLambda": 5,
            "trialLambda": 21.9,
            "instructedLambda": "dishonest_big",
            "sd": 8.1,
            "drawnRed": 66,
            "reportedRed": 73,
            "inferredRed": 1,
            "playerTrialScore": -65,
            "oppTrialScore": 0,
            "playerTotalScore": -1016,
            "oppTotalScore": 586,
            "waitTime": 6870.505667509808,
            "responseTime": 1682362380358,
            "catchQuestion": "How many <b class=\"r\">red<\/b> marbles did your opponent report drawing? ",
            "catchKey": -1,
            "catchResponse": -1,
            "catchTime": 1682362367389,
            "trialTime": 0
        },
        {
            "exptPart": "trial",
            "trialNumber": 46,
            "roleCurrent": "receiver",
            "marblesSampled": 100,
            "probRed": 0.5,
            "practiceLambda": 5,
            "trialLambda": 21.9,
            "instructedLambda": "dishonest_big",
            "sd": 8.1,
            "drawnRed": 15,
            "reportedRed": 34,
            "inferredRed": 1,
            "playerTrialScore": -14,
            "oppTrialScore": 0,
            "playerTotalScore": -1030,
            "oppTotalScore": 586,
            "waitTime": 5692.02743336738,
            "responseTime": 1682362388081,
            "catchQuestion": "How many <b class=\"r\">red<\/b> marbles did your opponent report drawing? ",
            "catchKey": -1,
            "catchResponse": -1,
            "catchTime": 1682362367389,
            "trialTime": 0
        },
        {
            "exptPart": "trial",
            "trialNumber": 47,
            "roleCurrent": "receiver",
            "marblesSampled": 100,
            "probRed": 0.5,
            "practiceLambda": 5,
            "trialLambda": 21.9,
            "instructedLambda": "dishonest_big",
            "sd": 8.1,
            "drawnRed": 52,
            "reportedRed": 87,
            "inferredRed": 1,
            "playerTrialScore": -51,
            "oppTrialScore": 0,
            "playerTotalScore": -1081,
            "oppTotalScore": 586,
            "waitTime": 6796.533956550775,
            "responseTime": 1682362396313,
            "catchQuestion": "How many <b class=\"r\">red<\/b> marbles did your opponent report drawing? ",
            "catchKey": -1,
            "catchResponse": -1,
            "catchTime": 1682362367389,
            "trialTime": 0
        },
        {
            "exptPart": "trial",
            "trialNumber": 48,
            "roleCurrent": "receiver",
            "marblesSampled": 100,
            "probRed": 0.5,
            "practiceLambda": 5,
            "trialLambda": 21.9,
            "instructedLambda": "dishonest_big",
            "sd": 8.1,
            "drawnRed": 49,
            "reportedRed": 81,
            "inferredRed": 1,
            "playerTrialScore": -48,
            "oppTrialScore": 0,
            "playerTotalScore": -1129,
            "oppTotalScore": 586,
            "waitTime": 6665.804005161678,
            "responseTime": 1682362406936,
            "catchQuestion": "How many <b class=\"r\">red<\/b> marbles did your opponent report drawing? ",
            "catchKey": -1,
            "catchResponse": -1,
            "catchTime": 1682362367389,
            "trialTime": 0
        },
        {
            "exptPart": "trial",
            "trialNumber": 49,
            "roleCurrent": "receiver",
            "marblesSampled": 100,
            "probRed": 0.5,
            "practiceLambda": 5,
            "trialLambda": 21.9,
            "instructedLambda": "dishonest_big",
            "sd": 8.1,
            "drawnRed": 60,
            "reportedRed": 82,
            "inferredRed": 1,
            "playerTrialScore": -59,
            "oppTrialScore": 0,
            "playerTotalScore": -1188,
            "oppTotalScore": 586,
            "waitTime": 6223.878852015386,
            "responseTime": 1682362420080,
            "catchQuestion": "How many <b class=\"r\">red<\/b> marbles did your opponent report drawing? ",
            "catchKey": 82,
            "catchResponse": 80,
            "catchTime": 1682362420080,
            "trialTime": 0
        },
        {
            "exptPart": "trial",
            "trialNumber": 50,
            "roleCurrent": "receiver",
            "marblesSampled": 100,
            "probRed": 0.5,
            "practiceLambda": 5,
            "trialLambda": 21.9,
            "instructedLambda": "dishonest_big",
            "sd": 8.1,
            "drawnRed": 41,
            "reportedRed": 52,
            "inferredRed": 1,
            "playerTrialScore": -40,
            "oppTrialScore": 0,
            "playerTotalScore": -1228,
            "oppTotalScore": 586,
            "waitTime": 5156.692270628008,
            "responseTime": 1682362442665,
            "catchQuestion": "How many <b class=\"r\">red<\/b> marbles did your opponent report drawing? ",
            "catchKey": -1,
            "catchResponse": -1,
            "catchTime": 1682362442666,
            "trialTime": 0
        },
        {
            "exptPart": "trial",
            "trialNumber": 51,
            "roleCurrent": "receiver",
            "marblesSampled": 100,
            "probRed": 0.5,
            "practiceLambda": 5,
            "trialLambda": 21.9,
            "instructedLambda": "dishonest_big",
            "sd": 8.1,
            "drawnRed": 45,
            "reportedRed": 84,
            "inferredRed": 1,
            "playerTrialScore": -44,
            "oppTrialScore": 0,
            "playerTotalScore": -1272,
            "oppTotalScore": 586,
            "waitTime": 7462.1132667725715,
            "responseTime": 1682362525091,
            "catchQuestion": "How many <b class=\"r\">red<\/b> marbles did your opponent report drawing? ",
            "catchKey": -1,
            "catchResponse": -1,
            "catchTime": 1682362442666,
            "trialTime": 0
        },
        {
            "exptPart": "trial",
            "trialNumber": 52,
            "roleCurrent": "receiver",
            "marblesSampled": 100,
            "probRed": 0.5,
            "practiceLambda": 5,
            "trialLambda": 21.9,
            "instructedLambda": "dishonest_big",
            "sd": 8.1,
            "drawnRed": 74,
            "reportedRed": 94,
            "inferredRed": 1,
            "playerTrialScore": -73,
            "oppTrialScore": 0,
            "playerTotalScore": -1345,
            "oppTotalScore": 586,
            "waitTime": 5143.608305546582,
            "responseTime": 1682362536779,
            "catchQuestion": "How many <b class=\"r\">red<\/b> marbles did your opponent report drawing? ",
            "catchKey": -1,
            "catchResponse": -1,
            "catchTime": 1682362442666,
            "trialTime": 0
        },
        {
            "exptPart": "trial",
            "trialNumber": 53,
            "roleCurrent": "receiver",
            "marblesSampled": 100,
            "probRed": 0.5,
            "practiceLambda": 5,
            "trialLambda": 21.9,
            "instructedLambda": "dishonest_big",
            "sd": 8.1,
            "drawnRed": 24,
            "reportedRed": 45,
            "inferredRed": 1,
            "playerTrialScore": -23,
            "oppTrialScore": 0,
            "playerTotalScore": -1368,
            "oppTotalScore": 586,
            "waitTime": 5439.075558159986,
            "responseTime": 1682362573311,
            "catchQuestion": "How many <b class=\"r\">red<\/b> marbles did your opponent report drawing? ",
            "catchKey": -1,
            "catchResponse": -1,
            "catchTime": 1682362442666,
            "trialTime": 0
        },
        {
            "exptPart": "trial",
            "trialNumber": 54,
            "roleCurrent": "receiver",
            "marblesSampled": 100,
            "probRed": 0.5,
            "practiceLambda": 5,
            "trialLambda": 21.9,
            "instructedLambda": "dishonest_big",
            "sd": 8.1,
            "drawnRed": 70,
            "reportedRed": 100,
            "inferredRed": 1,
            "playerTrialScore": -69,
            "oppTrialScore": 0,
            "playerTotalScore": -1437,
            "oppTotalScore": 586,
            "waitTime": 6342.96326215329,
            "responseTime": 1682362581615,
            "catchQuestion": "How many <b class=\"r\">red<\/b> marbles did your opponent report drawing? ",
            "catchKey": -1,
            "catchResponse": -1,
            "catchTime": 1682362442666,
            "trialTime": 0
        },
        {
            "exptPart": "trial",
            "trialNumber": 55,
            "roleCurrent": "receiver",
            "marblesSampled": 100,
            "probRed": 0.5,
            "practiceLambda": 5,
            "trialLambda": 21.9,
            "instructedLambda": "dishonest_big",
            "sd": 8.1,
            "drawnRed": 57,
            "reportedRed": 95,
            "inferredRed": 1,
            "playerTrialScore": -56,
            "oppTrialScore": 0,
            "playerTotalScore": -1493,
            "oppTotalScore": 586,
            "waitTime": 6690.149302415182,
            "responseTime": 1682362591144,
            "catchQuestion": "How many <b class=\"r\">red<\/b> marbles did your opponent report drawing? ",
            "catchKey": -1,
            "catchResponse": -1,
            "catchTime": 1682362442666,
            "trialTime": 0
        },
        {
            "exptPart": "trial",
            "trialNumber": 56,
            "roleCurrent": "receiver",
            "marblesSampled": 100,
            "probRed": 0.5,
            "practiceLambda": 5,
            "trialLambda": 21.9,
            "instructedLambda": "dishonest_big",
            "sd": 8.1,
            "drawnRed": 48,
            "reportedRed": 80,
            "inferredRed": 1,
            "playerTrialScore": -47,
            "oppTrialScore": 0,
            "playerTotalScore": -1540,
            "oppTotalScore": 586,
            "waitTime": 5336.435522742086,
            "responseTime": 1682362599985,
            "catchQuestion": "How many <b class=\"r\">red<\/b> marbles did your opponent report drawing? ",
            "catchKey": -1,
            "catchResponse": -1,
            "catchTime": 1682362442666,
            "trialTime": 0
        },
        {
            "exptPart": "trial",
            "trialNumber": 57,
            "roleCurrent": "receiver",
            "marblesSampled": 100,
            "probRed": 0.5,
            "practiceLambda": 5,
            "trialLambda": 21.9,
            "instructedLambda": "dishonest_big",
            "sd": 8.1,
            "drawnRed": 24,
            "reportedRed": 41,
            "inferredRed": 1,
            "playerTrialScore": -23,
            "oppTrialScore": 0,
            "playerTotalScore": -1563,
            "oppTotalScore": 586,
            "waitTime": 6151.888205926625,
            "responseTime": 1682362609884,
            "catchQuestion": "How many <b class=\"r\">red<\/b> marbles did your opponent report drawing? ",
            "catchKey": -1,
            "catchResponse": -1,
            "catchTime": 1682362442666,
            "trialTime": 0
        },
        {
            "exptPart": "trial",
            "trialNumber": 58,
            "roleCurrent": "receiver",
            "marblesSampled": 100,
            "probRed": 0.5,
            "practiceLambda": 5,
            "trialLambda": 21.9,
            "instructedLambda": "dishonest_big",
            "sd": 8.1,
            "drawnRed": 60,
            "reportedRed": 78,
            "inferredRed": 1,
            "playerTrialScore": -59,
            "oppTrialScore": 0,
            "playerTotalScore": -1622,
            "oppTotalScore": 586,
            "waitTime": 5786.494374255895,
            "responseTime": 1682362620141,
            "catchQuestion": "How many <b class=\"r\">red<\/b> marbles did your opponent report drawing? ",
            "catchKey": -1,
            "catchResponse": -1,
            "catchTime": 1682362442666,
            "trialTime": 0
        },
        {
            "exptPart": "trial",
            "trialNumber": 59,
            "roleCurrent": "receiver",
            "marblesSampled": 100,
            "probRed": 0.5,
            "practiceLambda": 5,
            "trialLambda": 21.9,
            "instructedLambda": "dishonest_big",
            "sd": 8.1,
            "drawnRed": 45,
            "reportedRed": 66,
            "inferredRed": 1,
            "playerTrialScore": -44,
            "oppTrialScore": 0,
            "playerTotalScore": -1666,
            "oppTotalScore": 586,
            "waitTime": 6304.588799336567,
            "responseTime": 1682362636046,
            "catchQuestion": "How many <b class=\"r\">red<\/b> marbles did your opponent report drawing? ",
            "catchKey": -1,
            "catchResponse": -1,
            "catchTime": 1682362442666,
            "trialTime": 0
        },
        {
            "exptPart": "trial",
            "trialNumber": 60,
            "roleCurrent": "receiver",
            "marblesSampled": 100,
            "probRed": 0.5,
            "practiceLambda": 5,
            "trialLambda": 21.9,
            "instructedLambda": "dishonest_big",
            "sd": 8.1,
            "drawnRed": 70,
            "reportedRed": 90,
            "inferredRed": 1,
            "playerTrialScore": -69,
            "oppTrialScore": 0,
            "playerTotalScore": -1735,
            "oppTotalScore": 586,
            "waitTime": 5191.931074855766,
            "responseTime": 1682362644001,
            "catchQuestion": "How many <b class=\"r\">red<\/b> marbles did your opponent report drawing? ",
            "catchKey": -1,
            "catchResponse": -1,
            "catchTime": 1682362644001,
            "trialTime": 0
        },
        {
            "exptPart": "trial",
            "trialNumber": 61,
            "roleCurrent": "receiver",
            "marblesSampled": 100,
            "probRed": 0.5,
            "practiceLambda": 5,
            "trialLambda": 21.9,
            "instructedLambda": "dishonest_big",
            "sd": 8.1,
            "drawnRed": 75,
            "reportedRed": 90,
            "inferredRed": 1,
            "playerTrialScore": -74,
            "oppTrialScore": 0,
            "playerTotalScore": -1809,
            "oppTotalScore": 586,
            "waitTime": 5682.447115094462,
            "responseTime": 1682362653363,
            "catchQuestion": "How many <b class=\"r\">red<\/b> marbles did your opponent report drawing? ",
            "catchKey": -1,
            "catchResponse": -1,
            "catchTime": 1682362644001,
            "trialTime": 0
        },
        {
            "exptPart": "trial",
            "trialNumber": 62,
            "roleCurrent": "receiver",
            "marblesSampled": 100,
            "probRed": 0.5,
            "practiceLambda": 5,
            "trialLambda": 21.9,
            "instructedLambda": "dishonest_big",
            "sd": 8.1,
            "drawnRed": 54,
            "reportedRed": 88,
            "inferredRed": 1,
            "playerTrialScore": -53,
            "oppTrialScore": 0,
            "playerTotalScore": -1862,
            "oppTotalScore": 586,
            "waitTime": 6451.364107827745,
            "responseTime": 1682362662229,
            "catchQuestion": "How many <b class=\"r\">red<\/b> marbles did your opponent report drawing? ",
            "catchKey": -1,
            "catchResponse": -1,
            "catchTime": 1682362644001,
            "trialTime": 0
        },
        {
            "exptPart": "trial",
            "trialNumber": 63,
            "roleCurrent": "receiver",
            "marblesSampled": 100,
            "probRed": 0.5,
            "practiceLambda": 5,
            "trialLambda": 21.9,
            "instructedLambda": "dishonest_big",
            "sd": 8.1,
            "drawnRed": 48,
            "reportedRed": 68,
            "inferredRed": 1,
            "playerTrialScore": -47,
            "oppTrialScore": 0,
            "playerTotalScore": -1909,
            "oppTotalScore": 586,
            "waitTime": 7290.370896930027,
            "responseTime": 1682362696975,
            "catchQuestion": "How many <b class=\"r\">red<\/b> marbles did your opponent report drawing? ",
            "catchKey": -1,
            "catchResponse": -1,
            "catchTime": 1682362644001,
            "trialTime": 0
        },
        {
            "exptPart": "trial",
            "trialNumber": 64,
            "roleCurrent": "receiver",
            "marblesSampled": 100,
            "probRed": 0.5,
            "practiceLambda": 5,
            "trialLambda": 21.9,
            "instructedLambda": "dishonest_big",
            "sd": 8.1,
            "drawnRed": 30,
            "reportedRed": 54,
            "inferredRed": 1,
            "playerTrialScore": -29,
            "oppTrialScore": 0,
            "playerTotalScore": -1938,
            "oppTotalScore": 586,
            "waitTime": 6621.359312873893,
            "responseTime": 1682362709761,
            "catchQuestion": "How many <b class=\"r\">red<\/b> marbles did your opponent report drawing? ",
            "catchKey": -1,
            "catchResponse": -1,
            "catchTime": 1682362644001,
            "trialTime": 0
        },
        {
            "exptPart": "trial",
            "trialNumber": 65,
            "roleCurrent": "receiver",
            "marblesSampled": 100,
            "probRed": 0.5,
            "practiceLambda": 5,
            "trialLambda": 21.9,
            "instructedLambda": "dishonest_big",
            "sd": 8.1,
            "drawnRed": 51,
            "reportedRed": 72,
            "inferredRed": 1,
            "playerTrialScore": -50,
            "oppTrialScore": 0,
            "playerTotalScore": -1988,
            "oppTotalScore": 586,
            "waitTime": 6045.4084136600395,
            "responseTime": 1682362717740,
            "catchQuestion": "How many <b class=\"r\">red<\/b> marbles did your opponent report drawing? ",
            "catchKey": -1,
            "catchResponse": -1,
            "catchTime": 1682362644001,
            "trialTime": 0
        },
        {
            "exptPart": "trial",
            "trialNumber": 66,
            "roleCurrent": "receiver",
            "marblesSampled": 100,
            "probRed": 0.5,
            "practiceLambda": 5,
            "trialLambda": 21.9,
            "instructedLambda": "dishonest_big",
            "sd": 8.1,
            "drawnRed": 41,
            "reportedRed": 62,
            "inferredRed": 1,
            "playerTrialScore": -40,
            "oppTrialScore": 0,
            "playerTotalScore": -2028,
            "oppTotalScore": 586,
            "waitTime": 6998.0518216321125,
            "responseTime": 1682362726246,
            "catchQuestion": "How many <b class=\"r\">red<\/b> marbles did your opponent report drawing? ",
            "catchKey": -1,
            "catchResponse": -1,
            "catchTime": 1682362644001,
            "trialTime": 0
        },
        {
            "exptPart": "trial",
            "trialNumber": 67,
            "roleCurrent": "receiver",
            "marblesSampled": 100,
            "probRed": 0.5,
            "practiceLambda": 5,
            "trialLambda": 21.9,
            "instructedLambda": "dishonest_big",
            "sd": 8.1,
            "drawnRed": 54,
            "reportedRed": 87,
            "inferredRed": 1,
            "playerTrialScore": -53,
            "oppTrialScore": 0,
            "playerTotalScore": -2081,
            "oppTotalScore": 586,
            "waitTime": 6542.077195497984,
            "responseTime": 1682362739880,
            "catchQuestion": "How many <b class=\"r\">red<\/b> marbles did your opponent report drawing? ",
            "catchKey": -1,
            "catchResponse": -1,
            "catchTime": 1682362644001,
            "trialTime": 0
        },
        {
            "exptPart": "trial",
            "trialNumber": 68,
            "roleCurrent": "receiver",
            "marblesSampled": 100,
            "probRed": 0.5,
            "practiceLambda": 5,
            "trialLambda": 21.9,
            "instructedLambda": "dishonest_big",
            "sd": 8.1,
            "drawnRed": 54,
            "reportedRed": 82,
            "inferredRed": 1,
            "playerTrialScore": -53,
            "oppTrialScore": 0,
            "playerTotalScore": -2134,
            "oppTotalScore": 586,
            "waitTime": 7335.913058365909,
            "responseTime": 1682362753285,
            "catchQuestion": "How many <b class=\"r\">red<\/b> marbles did your opponent report drawing? ",
            "catchKey": -1,
            "catchResponse": -1,
            "catchTime": 1682362644001,
            "trialTime": 0
        },
        {
            "exptPart": "trial",
            "trialNumber": 69,
            "roleCurrent": "receiver",
            "marblesSampled": 100,
            "probRed": 0.5,
            "practiceLambda": 5,
            "trialLambda": 21.9,
            "instructedLambda": "dishonest_big",
            "sd": 8.1,
            "drawnRed": 64,
            "reportedRed": 93,
            "inferredRed": 1,
            "playerTrialScore": -63,
            "oppTrialScore": 0,
            "playerTotalScore": -2197,
            "oppTotalScore": 586,
            "waitTime": 7261.269929226617,
            "responseTime": 1682362762911,
            "catchQuestion": "How many <b class=\"r\">red<\/b> marbles did your opponent report drawing? ",
            "catchKey": -1,
            "catchResponse": -1,
            "catchTime": 1682362644001,
            "trialTime": 0
        },
        {
            "exptPart": "trial",
            "trialNumber": 70,
            "roleCurrent": "receiver",
            "marblesSampled": 100,
            "probRed": 0.5,
            "practiceLambda": 5,
            "trialLambda": 21.9,
            "instructedLambda": "dishonest_big",
            "sd": 8.1,
            "drawnRed": 41,
            "reportedRed": 50,
            "inferredRed": 1,
            "playerTrialScore": -40,
            "oppTrialScore": 0,
            "playerTotalScore": -2237,
            "oppTotalScore": 586,
            "waitTime": 6062.758430767895,
            "responseTime": 1682362770559,
            "catchQuestion": "How many <b class=\"r\">red<\/b> marbles did your opponent report drawing? ",
            "catchKey": -1,
            "catchResponse": -1,
            "catchTime": 1682362770559,
            "trialTime": 0
        },
        {
            "exptPart": "trial",
            "trialNumber": 71,
            "roleCurrent": "receiver",
            "marblesSampled": 100,
            "probRed": 0.5,
            "practiceLambda": 5,
            "trialLambda": 21.9,
            "instructedLambda": "dishonest_big",
            "sd": 8.1,
            "drawnRed": 72,
            "reportedRed": 85,
            "inferredRed": 1,
            "playerTrialScore": -71,
            "oppTrialScore": 0,
            "playerTotalScore": -2308,
            "oppTotalScore": 586,
            "waitTime": 5547.757694021182,
            "responseTime": 1682362796731,
            "catchQuestion": "How many <b class=\"r\">red<\/b> marbles did your opponent report drawing? ",
            "catchKey": -1,
            "catchResponse": -1,
            "catchTime": 1682362770559,
            "trialTime": 0
        },
        {
            "exptPart": "trial",
            "trialNumber": 72,
            "roleCurrent": "receiver",
            "marblesSampled": 100,
            "probRed": 0.5,
            "practiceLambda": 5,
            "trialLambda": 21.9,
            "instructedLambda": "dishonest_big",
            "sd": 8.1,
            "drawnRed": 49,
            "reportedRed": 83,
            "inferredRed": 1,
            "playerTrialScore": -48,
            "oppTrialScore": 0,
            "playerTotalScore": -2356,
            "oppTotalScore": 586,
            "waitTime": 5509.438048114922,
            "responseTime": 1682362807117,
            "catchQuestion": "How many <b class=\"r\">red<\/b> marbles did your opponent report drawing? ",
            "catchKey": -1,
            "catchResponse": -1,
            "catchTime": 1682362770559,
            "trialTime": 0
        },
        {
            "exptPart": "trial",
            "trialNumber": 73,
            "roleCurrent": "receiver",
            "marblesSampled": 100,
            "probRed": 0.5,
            "practiceLambda": 5,
            "trialLambda": 21.9,
            "instructedLambda": "dishonest_big",
            "sd": 8.1,
            "drawnRed": 31,
            "reportedRed": 47,
            "inferredRed": 1,
            "playerTrialScore": -30,
            "oppTrialScore": 0,
            "playerTotalScore": -2386,
            "oppTotalScore": 586,
            "waitTime": 5228.701500081803,
            "responseTime": 1682362814172,
            "catchQuestion": "How many <b class=\"r\">red<\/b> marbles did your opponent report drawing? ",
            "catchKey": -1,
            "catchResponse": -1,
            "catchTime": 1682362770559,
            "trialTime": 0
        },
        {
            "exptPart": "trial",
            "trialNumber": 74,
            "roleCurrent": "receiver",
            "marblesSampled": 100,
            "probRed": 0.5,
            "practiceLambda": 5,
            "trialLambda": 21.9,
            "instructedLambda": "dishonest_big",
            "sd": 8.1,
            "drawnRed": 49,
            "reportedRed": 82,
            "inferredRed": 1,
            "playerTrialScore": -48,
            "oppTrialScore": 0,
            "playerTotalScore": -2434,
            "oppTotalScore": 586,
            "waitTime": 7389.237788455333,
            "responseTime": 1682362823945,
            "catchQuestion": "How many <b class=\"r\">red<\/b> marbles did your opponent report drawing? ",
            "catchKey": -1,
            "catchResponse": -1,
            "catchTime": 1682362770559,
            "trialTime": 0
        },
        {
            "exptPart": "trial",
            "trialNumber": 75,
            "roleCurrent": "receiver",
            "marblesSampled": 100,
            "probRed": 0.5,
            "practiceLambda": 5,
            "trialLambda": 21.9,
            "instructedLambda": "dishonest_big",
            "sd": 8.1,
            "drawnRed": 67,
            "reportedRed": 85,
            "inferredRed": 1,
            "playerTrialScore": -66,
            "oppTrialScore": 0,
            "playerTotalScore": -2500,
            "oppTotalScore": 586,
            "waitTime": 5221.0166608324835,
            "responseTime": 1682362832474,
            "catchQuestion": "How many <b class=\"r\">red<\/b> marbles did your opponent report drawing? ",
            "catchKey": -1,
            "catchResponse": -1,
            "catchTime": 1682362770559,
            "trialTime": 0
        },
        {
            "exptPart": "trial",
            "trialNumber": 76,
            "roleCurrent": "receiver",
            "marblesSampled": 100,
            "probRed": 0.5,
            "practiceLambda": 5,
            "trialLambda": 21.9,
            "instructedLambda": "dishonest_big",
            "sd": 8.1,
            "drawnRed": 76,
            "reportedRed": 91,
            "inferredRed": 1,
            "playerTrialScore": -75,
            "oppTrialScore": 0,
            "playerTotalScore": -2575,
            "oppTotalScore": 586,
            "waitTime": 5573.405454225121,
            "responseTime": 1682362840990,
            "catchQuestion": "How many <b class=\"r\">red<\/b> marbles did your opponent report drawing? ",
            "catchKey": 91,
            "catchResponse": 91,
            "catchTime": 1682362840990,
            "trialTime": 0
        },
        {
            "exptPart": "trial",
            "trialNumber": 77,
            "roleCurrent": "receiver",
            "marblesSampled": 100,
            "probRed": 0.5,
            "practiceLambda": 5,
            "trialLambda": 21.9,
            "instructedLambda": "dishonest_big",
            "sd": 8.1,
            "drawnRed": 59,
            "reportedRed": 82,
            "inferredRed": 1,
            "playerTrialScore": -58,
            "oppTrialScore": 0,
            "playerTotalScore": -2633,
            "oppTotalScore": 586,
            "waitTime": 6243.287549441482,
            "responseTime": 1682362853440,
            "catchQuestion": "How many <b class=\"r\">red<\/b> marbles did your opponent report drawing? ",
            "catchKey": -1,
            "catchResponse": -1,
            "catchTime": 1682362840990,
            "trialTime": 0
        },
        {
            "exptPart": "trial",
            "trialNumber": 78,
            "roleCurrent": "receiver",
            "marblesSampled": 100,
            "probRed": 0.5,
            "practiceLambda": 5,
            "trialLambda": 21.9,
            "instructedLambda": "dishonest_big",
            "sd": 8.1,
            "drawnRed": 76,
            "reportedRed": 93,
            "inferredRed": 1,
            "playerTrialScore": -75,
            "oppTrialScore": 0,
            "playerTotalScore": -2708,
            "oppTotalScore": 586,
            "waitTime": 5816.693274254934,
            "responseTime": 1682362860648,
            "catchQuestion": "How many <b class=\"r\">red<\/b> marbles did your opponent report drawing? ",
            "catchKey": -1,
            "catchResponse": -1,
            "catchTime": 1682362840990,
            "trialTime": 0
        },
        {
            "exptPart": "trial",
            "trialNumber": 79,
            "roleCurrent": "receiver",
            "marblesSampled": 100,
            "probRed": 0.5,
            "practiceLambda": 5,
            "trialLambda": 21.9,
            "instructedLambda": "dishonest_big",
            "sd": 8.1,
            "drawnRed": 47,
            "reportedRed": 77,
            "inferredRed": 1,
            "playerTrialScore": -46,
            "oppTrialScore": 0,
            "playerTotalScore": -2754,
            "oppTotalScore": 586,
            "waitTime": 7279.099453015012,
            "responseTime": 1682362876504,
            "catchQuestion": "How many <b class=\"r\">red<\/b> marbles did your opponent report drawing? ",
            "catchKey": -1,
            "catchResponse": -1,
            "catchTime": 1682362840990,
            "trialTime": 0
        },
        {
            "exptPart": "trial",
            "trialNumber": 80,
            "roleCurrent": "receiver",
            "marblesSampled": 100,
            "probRed": 0.5,
            "practiceLambda": 5,
            "trialLambda": 21.9,
            "instructedLambda": "dishonest_big",
            "sd": 8.1,
            "drawnRed": 15,
            "reportedRed": 35,
            "inferredRed": 1,
            "playerTrialScore": -14,
            "oppTrialScore": 0,
            "playerTotalScore": -2768,
            "oppTotalScore": 586,
            "waitTime": 6101.71067639727,
            "responseTime": 1682362884598,
            "catchQuestion": "How many <b class=\"r\">red<\/b> marbles did your opponent report drawing? ",
            "catchKey": -1,
            "catchResponse": -1,
            "catchTime": 1682362884598,
            "trialTime": 0
        },
        {
            "exptPart": "trial",
            "trialNumber": 81,
            "roleCurrent": "receiver",
            "marblesSampled": 100,
            "probRed": 0.5,
            "practiceLambda": 5,
            "trialLambda": 21.9,
            "instructedLambda": "dishonest_big",
            "sd": 8.1,
            "drawnRed": 44,
            "reportedRed": 68,
            "inferredRed": 1,
            "playerTrialScore": -43,
            "oppTrialScore": 0,
            "playerTotalScore": -2811,
            "oppTotalScore": 586,
            "waitTime": 5278.963798548362,
            "responseTime": 1682362892806,
            "catchQuestion": "How many <b class=\"r\">red<\/b> marbles did your opponent report drawing? ",
            "catchKey": -1,
            "catchResponse": -1,
            "catchTime": 1682362884598,
            "trialTime": 0
        },
        {
            "exptPart": "trial",
            "trialNumber": 82,
            "roleCurrent": "receiver",
            "marblesSampled": 100,
            "probRed": 0.5,
            "practiceLambda": 5,
            "trialLambda": 21.9,
            "instructedLambda": "dishonest_big",
            "sd": 8.1,
            "drawnRed": 68,
            "reportedRed": 98,
            "inferredRed": 1,
            "playerTrialScore": -67,
            "oppTrialScore": 0,
            "playerTotalScore": -2878,
            "oppTotalScore": 586,
            "waitTime": 5664.229117818707,
            "responseTime": 1682362900451,
            "catchQuestion": "How many <b class=\"r\">red<\/b> marbles did your opponent report drawing? ",
            "catchKey": -1,
            "catchResponse": -1,
            "catchTime": 1682362884598,
            "trialTime": 0
        },
        {
            "exptPart": "trial",
            "trialNumber": 83,
            "roleCurrent": "receiver",
            "marblesSampled": 100,
            "probRed": 0.5,
            "practiceLambda": 5,
            "trialLambda": 21.9,
            "instructedLambda": "dishonest_big",
            "sd": 8.1,
            "drawnRed": 58,
            "reportedRed": 85,
            "inferredRed": 1,
            "playerTrialScore": -57,
            "oppTrialScore": 0,
            "playerTotalScore": -2935,
            "oppTotalScore": 586,
            "waitTime": 5317.09838380183,
            "responseTime": 1682362908513,
            "catchQuestion": "How many <b class=\"r\">red<\/b> marbles did your opponent report drawing? ",
            "catchKey": 85,
            "catchResponse": 85,
            "catchTime": 1682362908513,
            "trialTime": 0
        },
        {
            "exptPart": "trial",
            "trialNumber": 84,
            "roleCurrent": "receiver",
            "marblesSampled": 100,
            "probRed": 0.5,
            "practiceLambda": 5,
            "trialLambda": 21.9,
            "instructedLambda": "dishonest_big",
            "sd": 8.1,
            "drawnRed": 74,
            "reportedRed": 93,
            "inferredRed": 1,
            "playerTrialScore": -73,
            "oppTrialScore": 0,
            "playerTotalScore": -3008,
            "oppTotalScore": 586,
            "waitTime": 7256.573125951205,
            "responseTime": 1682362932053,
            "catchQuestion": "How many <b class=\"r\">red<\/b> marbles did your opponent report drawing? ",
            "catchKey": -1,
            "catchResponse": -1,
            "catchTime": 1682362908513,
            "trialTime": 0
        },
        {
            "exptPart": "trial",
            "trialNumber": 85,
            "roleCurrent": "receiver",
            "marblesSampled": 100,
            "probRed": 0.5,
            "practiceLambda": 5,
            "trialLambda": 21.9,
            "instructedLambda": "dishonest_big",
            "sd": 8.1,
            "drawnRed": 46,
            "reportedRed": 79,
            "inferredRed": 1,
            "playerTrialScore": -45,
            "oppTrialScore": 0,
            "playerTotalScore": -3053,
            "oppTotalScore": 586,
            "waitTime": 5650.504812833699,
            "responseTime": 1682362962054,
            "catchQuestion": "How many <b class=\"r\">red<\/b> marbles did your opponent report drawing? ",
            "catchKey": -1,
            "catchResponse": -1,
            "catchTime": 1682362908513,
            "trialTime": 0
        },
        {
            "exptPart": "trial",
            "trialNumber": 86,
            "roleCurrent": "receiver",
            "marblesSampled": 100,
            "probRed": 0.5,
            "practiceLambda": 5,
            "trialLambda": 21.9,
            "instructedLambda": "dishonest_big",
            "sd": 8.1,
            "drawnRed": 37,
            "reportedRed": 65,
            "inferredRed": 1,
            "playerTrialScore": -36,
            "oppTrialScore": 0,
            "playerTotalScore": -3089,
            "oppTotalScore": 586,
            "waitTime": 6902.807008930853,
            "responseTime": 1682362972280,
            "catchQuestion": "How many <b class=\"r\">red<\/b> marbles did your opponent report drawing? ",
            "catchKey": -1,
            "catchResponse": -1,
            "catchTime": 1682362908513,
            "trialTime": 0
        },
        {
            "exptPart": "trial",
            "trialNumber": 87,
            "roleCurrent": "receiver",
            "marblesSampled": 100,
            "probRed": 0.5,
            "practiceLambda": 5,
            "trialLambda": 21.9,
            "instructedLambda": "dishonest_big",
            "sd": 8.1,
            "drawnRed": 52,
            "reportedRed": 71,
            "inferredRed": 1,
            "playerTrialScore": -51,
            "oppTrialScore": 0,
            "playerTotalScore": -3140,
            "oppTotalScore": 586,
            "waitTime": 5465.835375077453,
            "responseTime": 1682362980329,
            "catchQuestion": "How many <b class=\"r\">red<\/b> marbles did your opponent report drawing? ",
            "catchKey": -1,
            "catchResponse": -1,
            "catchTime": 1682362908513,
            "trialTime": 0
        },
        {
            "exptPart": "trial",
            "trialNumber": 88,
            "roleCurrent": "receiver",
            "marblesSampled": 100,
            "probRed": 0.5,
            "practiceLambda": 5,
            "trialLambda": 21.9,
            "instructedLambda": "dishonest_big",
            "sd": 8.1,
            "drawnRed": 34,
            "reportedRed": 53,
            "inferredRed": 1,
            "playerTrialScore": -33,
            "oppTrialScore": 0,
            "playerTotalScore": -3173,
            "oppTotalScore": 586,
            "waitTime": 7476.91002858781,
            "responseTime": 1682363007821,
            "catchQuestion": "How many <b class=\"r\">red<\/b> marbles did your opponent report drawing? ",
            "catchKey": -1,
            "catchResponse": -1,
            "catchTime": 1682362908513,
            "trialTime": 0
        },
        {
            "exptPart": "trial",
            "trialNumber": 89,
            "roleCurrent": "receiver",
            "marblesSampled": 100,
            "probRed": 0.5,
            "practiceLambda": 5,
            "trialLambda": 21.9,
            "instructedLambda": "dishonest_big",
            "sd": 8.1,
            "drawnRed": 64,
            "reportedRed": 95,
            "inferredRed": 1,
            "playerTrialScore": -63,
            "oppTrialScore": 0,
            "playerTotalScore": -3236,
            "oppTotalScore": 586,
            "waitTime": 6125.734061665893,
            "responseTime": 1682363017593,
            "catchQuestion": "How many <b class=\"r\">red<\/b> marbles did your opponent report drawing? ",
            "catchKey": -1,
            "catchResponse": -1,
            "catchTime": 1682362908513,
            "trialTime": 0
        },
        {
            "exptPart": "trial",
            "trialNumber": 90,
            "roleCurrent": "receiver",
            "marblesSampled": 100,
            "probRed": 0.5,
            "practiceLambda": 5,
            "trialLambda": 21.9,
            "instructedLambda": "dishonest_big",
            "sd": 8.1,
            "drawnRed": 33,
            "reportedRed": 37,
            "inferredRed": 1,
            "playerTrialScore": -32,
            "oppTrialScore": 0,
            "playerTotalScore": -3268,
            "oppTotalScore": 586,
            "waitTime": 7022.753879983582,
            "responseTime": 1682363027421,
            "catchQuestion": "How many <b class=\"r\">red<\/b> marbles did your opponent report drawing? ",
            "catchKey": -1,
            "catchResponse": -1,
            "catchTime": 1682363027421,
            "trialTime": 0
        },
        {
            "exptPart": "trial",
            "trialNumber": 91,
            "roleCurrent": "receiver",
            "marblesSampled": 100,
            "probRed": 0.5,
            "practiceLambda": 5,
            "trialLambda": 21.9,
            "instructedLambda": "dishonest_big",
            "sd": 8.1,
            "drawnRed": 65,
            "reportedRed": 81,
            "inferredRed": 1,
            "playerTrialScore": -64,
            "oppTrialScore": 0,
            "playerTotalScore": -3332,
            "oppTotalScore": 586,
            "waitTime": 6516.2326989805515,
            "responseTime": 1682363050434,
            "catchQuestion": "How many <b class=\"r\">red<\/b> marbles did your opponent report drawing? ",
            "catchKey": -1,
            "catchResponse": -1,
            "catchTime": 1682363027421,
            "trialTime": 0
        },
        {
            "exptPart": "trial",
            "trialNumber": 92,
            "roleCurrent": "receiver",
            "marblesSampled": 100,
            "probRed": 0.5,
            "practiceLambda": 5,
            "trialLambda": 21.9,
            "instructedLambda": "dishonest_big",
            "sd": 8.1,
            "drawnRed": 23,
            "reportedRed": 51,
            "inferredRed": 1,
            "playerTrialScore": -22,
            "oppTrialScore": 0,
            "playerTotalScore": -3354,
            "oppTotalScore": 586,
            "waitTime": 6495.991891671303,
            "responseTime": 1682363058822,
            "catchQuestion": "How many <b class=\"r\">red<\/b> marbles did your opponent report drawing? ",
            "catchKey": -1,
            "catchResponse": -1,
            "catchTime": 1682363027421,
            "trialTime": 0
        },
        {
            "exptPart": "trial",
            "trialNumber": 93,
            "roleCurrent": "receiver",
            "marblesSampled": 100,
            "probRed": 0.5,
            "practiceLambda": 5,
            "trialLambda": 21.9,
            "instructedLambda": "dishonest_big",
            "sd": 8.1,
            "drawnRed": 45,
            "reportedRed": 58,
            "inferredRed": 1,
            "playerTrialScore": -44,
            "oppTrialScore": 0,
            "playerTotalScore": -3398,
            "oppTotalScore": 586,
            "waitTime": 7424.760023499024,
            "responseTime": 1682363067772,
            "catchQuestion": "How many <b class=\"r\">red<\/b> marbles did your opponent report drawing? ",
            "catchKey": -1,
            "catchResponse": -1,
            "catchTime": 1682363027421,
            "trialTime": 0
        },
        {
            "exptPart": "trial",
            "trialNumber": 94,
            "roleCurrent": "receiver",
            "marblesSampled": 100,
            "probRed": 0.5,
            "practiceLambda": 5,
            "trialLambda": 21.9,
            "instructedLambda": "dishonest_big",
            "sd": 8.1,
            "drawnRed": 14,
            "reportedRed": 40,
            "inferredRed": 1,
            "playerTrialScore": -13,
            "oppTrialScore": 0,
            "playerTotalScore": -3411,
            "oppTotalScore": 586,
            "waitTime": 5177.553947784298,
            "responseTime": 1682363075416,
            "catchQuestion": "How many <b class=\"r\">red<\/b> marbles did your opponent report drawing? ",
            "catchKey": -1,
            "catchResponse": -1,
            "catchTime": 1682363027421,
            "trialTime": 0
        },
        {
            "exptPart": "trial",
            "trialNumber": 95,
            "roleCurrent": "receiver",
            "marblesSampled": 100,
            "probRed": 0.5,
            "practiceLambda": 5,
            "trialLambda": 21.9,
            "instructedLambda": "dishonest_big",
            "sd": 8.1,
            "drawnRed": 86,
            "reportedRed": 100,
            "inferredRed": 1,
            "playerTrialScore": -85,
            "oppTrialScore": 0,
            "playerTotalScore": -3496,
            "oppTotalScore": 586,
            "waitTime": 6242.420963857801,
            "responseTime": 1682363166564,
            "catchQuestion": "How many <b class=\"r\">red<\/b> marbles did your opponent report drawing? ",
            "catchKey": -1,
            "catchResponse": -1,
            "catchTime": 1682363027421,
            "trialTime": 0
        },
        {
            "exptPart": "trial",
            "trialNumber": 96,
            "roleCurrent": "receiver",
            "marblesSampled": 100,
            "probRed": 0.5,
            "practiceLambda": 5,
            "trialLambda": 21.9,
            "instructedLambda": "dishonest_big",
            "sd": 8.1,
            "drawnRed": 62,
            "reportedRed": 78,
            "inferredRed": 1,
            "playerTrialScore": -61,
            "oppTrialScore": 0,
            "playerTotalScore": -3557,
            "oppTotalScore": 586,
            "waitTime": 7229.616108375298,
            "responseTime": 1682363175771,
            "catchQuestion": "How many <b class=\"r\">red<\/b> marbles did your opponent report drawing? ",
            "catchKey": -1,
            "catchResponse": -1,
            "catchTime": 1682363027421,
            "trialTime": 0
        },
        {
            "exptPart": "trial",
            "trialNumber": 97,
            "roleCurrent": "receiver",
            "marblesSampled": 100,
            "probRed": 0.5,
            "practiceLambda": 5,
            "trialLambda": 21.9,
            "instructedLambda": "dishonest_big",
            "sd": 8.1,
            "drawnRed": 55,
            "reportedRed": 71,
            "inferredRed": 1,
            "playerTrialScore": -54,
            "oppTrialScore": 0,
            "playerTotalScore": -3611,
            "oppTotalScore": 586,
            "waitTime": 6213.657045317455,
            "responseTime": 1682363183831,
            "catchQuestion": "How many <b class=\"r\">red<\/b> marbles did your opponent report drawing? ",
            "catchKey": -1,
            "catchResponse": -1,
            "catchTime": 1682363027421,
            "trialTime": 0
        },
        {
            "exptPart": "trial",
            "trialNumber": 98,
            "roleCurrent": "receiver",
            "marblesSampled": 100,
            "probRed": 0.5,
            "practiceLambda": 5,
            "trialLambda": 21.9,
            "instructedLambda": "dishonest_big",
            "sd": 8.1,
            "drawnRed": 18,
            "reportedRed": 43,
            "inferredRed": 1,
            "playerTrialScore": -17,
            "oppTrialScore": 0,
            "playerTotalScore": -3628,
            "oppTotalScore": 586,
            "waitTime": 6832.766029750958,
            "responseTime": 1682363192098,
            "catchQuestion": "How many <b class=\"r\">red<\/b> marbles did your opponent report drawing? ",
            "catchKey": -1,
            "catchResponse": -1,
            "catchTime": 1682363027421,
            "trialTime": 0
        },
        {
            "exptPart": "trial",
            "trialNumber": 99,
            "roleCurrent": "receiver",
            "marblesSampled": 100,
            "probRed": 0.5,
            "practiceLambda": 5,
            "trialLambda": 21.9,
            "instructedLambda": "dishonest_big",
            "sd": 8.1,
            "drawnRed": 72,
            "reportedRed": 82,
            "inferredRed": 1,
            "playerTrialScore": -71,
            "oppTrialScore": 0,
            "playerTotalScore": -3699,
            "oppTotalScore": 586,
            "waitTime": 6286.760047498032,
            "responseTime": 1682363199831,
            "catchQuestion": "How many <b class=\"r\">red<\/b> marbles did your opponent report drawing? ",
            "catchKey": 82,
            "catchResponse": 82,
            "catchTime": 1682363199831,
            "trialTime": 0
        },
        {
            "exptPart": "trial",
            "trialNumber": 100,
            "roleCurrent": "receiver",
            "marblesSampled": 100,
            "probRed": 0.5,
            "practiceLambda": 5,
            "trialLambda": 21.9,
            "instructedLambda": "dishonest_big",
            "sd": 8.1,
            "drawnRed": 39,
            "reportedRed": 56,
            "inferredRed": 1,
            "playerTrialScore": -38,
            "oppTrialScore": 0,
            "playerTotalScore": -3737,
            "oppTotalScore": 586,
            "waitTime": 5835.7618507915995,
            "responseTime": 1682363211332,
            "catchQuestion": "How many <b class=\"r\">red<\/b> marbles did your opponent report drawing? ",
            "catchKey": -1,
            "catchResponse": -1,
            "catchTime": 1682363211332,
            "trialTime": 0
        }
    ]
}