{
    "client": {
        "type": "sona",
        "experiment_id": 2228,
        "credit_token": "b315147ae43241ea9c65086cb510cfb7",
        "survey_code": "34862",
        "sid": "sona-34862",
        "window": {
            "width": 1440,
            "height": 789
        },
        "screen": {
            "width": 1440,
            "height": 900
        },
        "userAgent": "Mozilla\/5.0 (Macintosh; Intel Mac OS X 10_15_7) AppleWebKit\/537.36 (KHTML, like Gecko) Chrome\/109.0.0.0 Safari\/537.36",
        "score": 0,
        "bonus": 0
    },
    "expt": {
        "saveURL": "submit.simple.php",
        "trials": 100,
        "practiceTrials": 2,
        "marblesSampled": 100,
        "probRed": 0.5,
        "practiceLambdaAI": 5,
        "lambdaAI": 0.3,
        "sd": 8.1,
        "roles": [
            "sender",
            "receiver"
        ],
        "cost": "unif",
        "goal": "over",
        "oppDishonesty": "honest",
        "catchTrials": [
            69,
            30,
            60,
            5,
            18,
            82,
            81,
            84,
            52,
            45
        ],
        "scoreTotal": {
            "player": -1057,
            "opp": 518
        },
        "sona": {
            "experiment_id": 2228,
            "credit_token": "b315147ae43241ea9c65086cb510cfb7"
        },
        "pilot": false,
        "debug": false
    },
    "trials": [
        {
            "exptPart": "practice",
            "trialNumber": 1,
            "roleCurrent": "sender",
            "marblesSampled": 100,
            "probRed": 0.5,
            "practiceLambda": 5,
            "trialLambda": 0.3,
            "instructedLambda": "honest",
            "sd": 8.1,
            "drawnRed": 72,
            "reportedRed": 47,
            "inferredRed": 36,
            "playerTrialScore": 0,
            "oppTrialScore": -36,
            "playerTotalScore": 0,
            "oppTotalScore": -36,
            "waitTime": 2182.6924480326625,
            "responseTime": 1682370783206,
            "catchQuestion": "How many <b class=\"r\">red<\/b> marbles did you actually draw (before any changes)? ",
            "catchKey": 72,
            "catchResponse": 72,
            "catchTime": 1682370783207,
            "trialTime": 0
        },
        {
            "exptPart": "practice",
            "trialNumber": 2,
            "roleCurrent": "receiver",
            "marblesSampled": 100,
            "probRed": 0.5,
            "practiceLambda": 5,
            "trialLambda": 0.3,
            "instructedLambda": "honest",
            "sd": 8.1,
            "drawnRed": 50,
            "reportedRed": 62,
            "inferredRed": 45,
            "playerTrialScore": -5,
            "oppTrialScore": 0,
            "playerTotalScore": -5,
            "oppTotalScore": -36,
            "waitTime": 7199.799144029845,
            "responseTime": 1682370862100,
            "catchQuestion": "How many <b class=\"r\">red<\/b> marbles did your opponent report drawing? ",
            "catchKey": 62,
            "catchResponse": 62,
            "catchTime": 1682370862100,
            "trialTime": 0
        },
        {
            "exptPart": "trial",
            "trialNumber": 1,
            "roleCurrent": "receiver",
            "marblesSampled": 100,
            "probRed": 0.5,
            "practiceLambda": 5,
            "trialLambda": 0.3,
            "instructedLambda": "honest",
            "sd": 8.1,
            "drawnRed": 85,
            "reportedRed": 88,
            "inferredRed": 85,
            "playerTrialScore": 0,
            "oppTrialScore": 0,
            "playerTotalScore": 0,
            "oppTotalScore": 0,
            "waitTime": 5784.321281489965,
            "responseTime": 1682370924240,
            "catchQuestion": "How many <b class=\"r\">red<\/b> marbles did your opponent report drawing? ",
            "catchKey": -1,
            "catchResponse": -1,
            "catchTime": 1682370862100,
            "trialTime": 0
        },
        {
            "exptPart": "trial",
            "trialNumber": 2,
            "roleCurrent": "receiver",
            "marblesSampled": 100,
            "probRed": 0.5,
            "practiceLambda": 5,
            "trialLambda": 0.3,
            "instructedLambda": "honest",
            "sd": 8.1,
            "drawnRed": 50,
            "reportedRed": 53,
            "inferredRed": 88,
            "playerTrialScore": -38,
            "oppTrialScore": 38,
            "playerTotalScore": -38,
            "oppTotalScore": 38,
            "waitTime": 6342.541612683986,
            "responseTime": 1682370958922,
            "catchQuestion": "How many <b class=\"r\">red<\/b> marbles did your opponent report drawing? ",
            "catchKey": -1,
            "catchResponse": -1,
            "catchTime": 1682370862100,
            "trialTime": 0
        },
        {
            "exptPart": "trial",
            "trialNumber": 3,
            "roleCurrent": "receiver",
            "marblesSampled": 100,
            "probRed": 0.5,
            "practiceLambda": 5,
            "trialLambda": 0.3,
            "instructedLambda": "honest",
            "sd": 8.1,
            "drawnRed": 31,
            "reportedRed": 35,
            "inferredRed": 50,
            "playerTrialScore": -19,
            "oppTrialScore": 19,
            "playerTotalScore": -57,
            "oppTotalScore": 57,
            "waitTime": 7164.064912175627,
            "responseTime": 1682370973729,
            "catchQuestion": "How many <b class=\"r\">red<\/b> marbles did your opponent report drawing? ",
            "catchKey": -1,
            "catchResponse": -1,
            "catchTime": 1682370862100,
            "trialTime": 0
        },
        {
            "exptPart": "trial",
            "trialNumber": 4,
            "roleCurrent": "receiver",
            "marblesSampled": 100,
            "probRed": 0.5,
            "practiceLambda": 5,
            "trialLambda": 0.3,
            "instructedLambda": "honest",
            "sd": 8.1,
            "drawnRed": 68,
            "reportedRed": 65,
            "inferredRed": 70,
            "playerTrialScore": -2,
            "oppTrialScore": 2,
            "playerTotalScore": -59,
            "oppTotalScore": 59,
            "waitTime": 7100.363960538493,
            "responseTime": 1682370987894,
            "catchQuestion": "How many <b class=\"r\">red<\/b> marbles did your opponent report drawing? ",
            "catchKey": -1,
            "catchResponse": -1,
            "catchTime": 1682370862100,
            "trialTime": 0
        },
        {
            "exptPart": "trial",
            "trialNumber": 5,
            "roleCurrent": "receiver",
            "marblesSampled": 100,
            "probRed": 0.5,
            "practiceLambda": 5,
            "trialLambda": 0.3,
            "instructedLambda": "honest",
            "sd": 8.1,
            "drawnRed": 89,
            "reportedRed": 66,
            "inferredRed": 45,
            "playerTrialScore": -44,
            "oppTrialScore": 0,
            "playerTotalScore": -103,
            "oppTotalScore": 59,
            "waitTime": 5503.337782005137,
            "responseTime": 1682370997355,
            "catchQuestion": "How many <b class=\"r\">red<\/b> marbles did your opponent report drawing? ",
            "catchKey": -1,
            "catchResponse": -1,
            "catchTime": 1682370862100,
            "trialTime": 0
        },
        {
            "exptPart": "trial",
            "trialNumber": 6,
            "roleCurrent": "receiver",
            "marblesSampled": 100,
            "probRed": 0.5,
            "practiceLambda": 5,
            "trialLambda": 0.3,
            "instructedLambda": "honest",
            "sd": 8.1,
            "drawnRed": 48,
            "reportedRed": 48,
            "inferredRed": 56,
            "playerTrialScore": -8,
            "oppTrialScore": 8,
            "playerTotalScore": -111,
            "oppTotalScore": 67,
            "waitTime": 5731.039198908042,
            "responseTime": 1682371007324,
            "catchQuestion": "How many <b class=\"r\">red<\/b> marbles did your opponent report drawing? ",
            "catchKey": 48,
            "catchResponse": 60,
            "catchTime": 1682371007325,
            "trialTime": 0
        },
        {
            "exptPart": "trial",
            "trialNumber": 7,
            "roleCurrent": "receiver",
            "marblesSampled": 100,
            "probRed": 0.5,
            "practiceLambda": 5,
            "trialLambda": 0.3,
            "instructedLambda": "honest",
            "sd": 8.1,
            "drawnRed": 57,
            "reportedRed": 57,
            "inferredRed": 55,
            "playerTrialScore": -2,
            "oppTrialScore": 0,
            "playerTotalScore": -113,
            "oppTotalScore": 67,
            "waitTime": 5973.442774001442,
            "responseTime": 1682371030661,
            "catchQuestion": "How many <b class=\"r\">red<\/b> marbles did your opponent report drawing? ",
            "catchKey": -1,
            "catchResponse": -1,
            "catchTime": 1682371007325,
            "trialTime": 0
        },
        {
            "exptPart": "trial",
            "trialNumber": 8,
            "roleCurrent": "receiver",
            "marblesSampled": 100,
            "probRed": 0.5,
            "practiceLambda": 5,
            "trialLambda": 0.3,
            "instructedLambda": "honest",
            "sd": 8.1,
            "drawnRed": 55,
            "reportedRed": 57,
            "inferredRed": 65,
            "playerTrialScore": -10,
            "oppTrialScore": 10,
            "playerTotalScore": -123,
            "oppTotalScore": 77,
            "waitTime": 7122.336262431755,
            "responseTime": 1682371045031,
            "catchQuestion": "How many <b class=\"r\">red<\/b> marbles did your opponent report drawing? ",
            "catchKey": -1,
            "catchResponse": -1,
            "catchTime": 1682371007325,
            "trialTime": 0
        },
        {
            "exptPart": "trial",
            "trialNumber": 9,
            "roleCurrent": "receiver",
            "marblesSampled": 100,
            "probRed": 0.5,
            "practiceLambda": 5,
            "trialLambda": 0.3,
            "instructedLambda": "honest",
            "sd": 8.1,
            "drawnRed": 58,
            "reportedRed": 55,
            "inferredRed": 45,
            "playerTrialScore": -13,
            "oppTrialScore": 0,
            "playerTotalScore": -136,
            "oppTotalScore": 77,
            "waitTime": 5459.6869386287335,
            "responseTime": 1682371057645,
            "catchQuestion": "How many <b class=\"r\">red<\/b> marbles did your opponent report drawing? ",
            "catchKey": -1,
            "catchResponse": -1,
            "catchTime": 1682371007325,
            "trialTime": 0
        },
        {
            "exptPart": "trial",
            "trialNumber": 10,
            "roleCurrent": "receiver",
            "marblesSampled": 100,
            "probRed": 0.5,
            "practiceLambda": 5,
            "trialLambda": 0.3,
            "instructedLambda": "honest",
            "sd": 8.1,
            "drawnRed": 63,
            "reportedRed": 88,
            "inferredRed": 70,
            "playerTrialScore": -7,
            "oppTrialScore": 7,
            "playerTotalScore": -143,
            "oppTotalScore": 84,
            "waitTime": 5603.583113843466,
            "responseTime": 1682371068020,
            "catchQuestion": "How many <b class=\"r\">red<\/b> marbles did your opponent report drawing? ",
            "catchKey": -1,
            "catchResponse": -1,
            "catchTime": 1682371068020,
            "trialTime": 0
        },
        {
            "exptPart": "trial",
            "trialNumber": 11,
            "roleCurrent": "receiver",
            "marblesSampled": 100,
            "probRed": 0.5,
            "practiceLambda": 5,
            "trialLambda": 0.3,
            "instructedLambda": "honest",
            "sd": 8.1,
            "drawnRed": 31,
            "reportedRed": 16,
            "inferredRed": 20,
            "playerTrialScore": -11,
            "oppTrialScore": 0,
            "playerTotalScore": -154,
            "oppTotalScore": 84,
            "waitTime": 7280.74887352571,
            "responseTime": 1682371086763,
            "catchQuestion": "How many <b class=\"r\">red<\/b> marbles did your opponent report drawing? ",
            "catchKey": -1,
            "catchResponse": -1,
            "catchTime": 1682371068020,
            "trialTime": 0
        },
        {
            "exptPart": "trial",
            "trialNumber": 12,
            "roleCurrent": "receiver",
            "marblesSampled": 100,
            "probRed": 0.5,
            "practiceLambda": 5,
            "trialLambda": 0.3,
            "instructedLambda": "honest",
            "sd": 8.1,
            "drawnRed": 43,
            "reportedRed": 33,
            "inferredRed": 22,
            "playerTrialScore": -21,
            "oppTrialScore": 0,
            "playerTotalScore": -175,
            "oppTotalScore": 84,
            "waitTime": 5710.21774748899,
            "responseTime": 1682371101215,
            "catchQuestion": "How many <b class=\"r\">red<\/b> marbles did your opponent report drawing? ",
            "catchKey": -1,
            "catchResponse": -1,
            "catchTime": 1682371068020,
            "trialTime": 0
        },
        {
            "exptPart": "trial",
            "trialNumber": 13,
            "roleCurrent": "receiver",
            "marblesSampled": 100,
            "probRed": 0.5,
            "practiceLambda": 5,
            "trialLambda": 0.3,
            "instructedLambda": "honest",
            "sd": 8.1,
            "drawnRed": 62,
            "reportedRed": 67,
            "inferredRed": 55,
            "playerTrialScore": -7,
            "oppTrialScore": 0,
            "playerTotalScore": -182,
            "oppTotalScore": 84,
            "waitTime": 5157.340845780063,
            "responseTime": 1682371109229,
            "catchQuestion": "How many <b class=\"r\">red<\/b> marbles did your opponent report drawing? ",
            "catchKey": -1,
            "catchResponse": -1,
            "catchTime": 1682371068020,
            "trialTime": 0
        },
        {
            "exptPart": "trial",
            "trialNumber": 14,
            "roleCurrent": "receiver",
            "marblesSampled": 100,
            "probRed": 0.5,
            "practiceLambda": 5,
            "trialLambda": 0.3,
            "instructedLambda": "honest",
            "sd": 8.1,
            "drawnRed": 44,
            "reportedRed": 42,
            "inferredRed": 35,
            "playerTrialScore": -9,
            "oppTrialScore": 0,
            "playerTotalScore": -191,
            "oppTotalScore": 84,
            "waitTime": 6996.3468433843445,
            "responseTime": 1682371124346,
            "catchQuestion": "How many <b class=\"r\">red<\/b> marbles did your opponent report drawing? ",
            "catchKey": -1,
            "catchResponse": -1,
            "catchTime": 1682371068020,
            "trialTime": 0
        },
        {
            "exptPart": "trial",
            "trialNumber": 15,
            "roleCurrent": "receiver",
            "marblesSampled": 100,
            "probRed": 0.5,
            "practiceLambda": 5,
            "trialLambda": 0.3,
            "instructedLambda": "honest",
            "sd": 8.1,
            "drawnRed": 66,
            "reportedRed": 75,
            "inferredRed": 85,
            "playerTrialScore": -19,
            "oppTrialScore": 19,
            "playerTotalScore": -210,
            "oppTotalScore": 103,
            "waitTime": 6693.374129767658,
            "responseTime": 1682371139691,
            "catchQuestion": "How many <b class=\"r\">red<\/b> marbles did your opponent report drawing? ",
            "catchKey": -1,
            "catchResponse": -1,
            "catchTime": 1682371068020,
            "trialTime": 0
        },
        {
            "exptPart": "trial",
            "trialNumber": 16,
            "roleCurrent": "receiver",
            "marblesSampled": 100,
            "probRed": 0.5,
            "practiceLambda": 5,
            "trialLambda": 0.3,
            "instructedLambda": "honest",
            "sd": 8.1,
            "drawnRed": 54,
            "reportedRed": 54,
            "inferredRed": 45,
            "playerTrialScore": -9,
            "oppTrialScore": 0,
            "playerTotalScore": -219,
            "oppTotalScore": 103,
            "waitTime": 6428.249652692797,
            "responseTime": 1682371149486,
            "catchQuestion": "How many <b class=\"r\">red<\/b> marbles did your opponent report drawing? ",
            "catchKey": -1,
            "catchResponse": -1,
            "catchTime": 1682371068020,
            "trialTime": 0
        },
        {
            "exptPart": "trial",
            "trialNumber": 17,
            "roleCurrent": "receiver",
            "marblesSampled": 100,
            "probRed": 0.5,
            "practiceLambda": 5,
            "trialLambda": 0.3,
            "instructedLambda": "honest",
            "sd": 8.1,
            "drawnRed": 56,
            "reportedRed": 47,
            "inferredRed": 55,
            "playerTrialScore": -1,
            "oppTrialScore": 0,
            "playerTotalScore": -220,
            "oppTotalScore": 103,
            "waitTime": 5997.60064550233,
            "responseTime": 1682371159198,
            "catchQuestion": "How many <b class=\"r\">red<\/b> marbles did your opponent report drawing? ",
            "catchKey": -1,
            "catchResponse": -1,
            "catchTime": 1682371068020,
            "trialTime": 0
        },
        {
            "exptPart": "trial",
            "trialNumber": 18,
            "roleCurrent": "receiver",
            "marblesSampled": 100,
            "probRed": 0.5,
            "practiceLambda": 5,
            "trialLambda": 0.3,
            "instructedLambda": "honest",
            "sd": 8.1,
            "drawnRed": 25,
            "reportedRed": 21,
            "inferredRed": 10,
            "playerTrialScore": -15,
            "oppTrialScore": 0,
            "playerTotalScore": -235,
            "oppTotalScore": 103,
            "waitTime": 7211.327061651006,
            "responseTime": 1682371172494,
            "catchQuestion": "How many <b class=\"r\">red<\/b> marbles did your opponent report drawing? ",
            "catchKey": -1,
            "catchResponse": -1,
            "catchTime": 1682371068020,
            "trialTime": 0
        },
        {
            "exptPart": "trial",
            "trialNumber": 19,
            "roleCurrent": "receiver",
            "marblesSampled": 100,
            "probRed": 0.5,
            "practiceLambda": 5,
            "trialLambda": 0.3,
            "instructedLambda": "honest",
            "sd": 8.1,
            "drawnRed": 16,
            "reportedRed": 23,
            "inferredRed": 30,
            "playerTrialScore": -14,
            "oppTrialScore": 14,
            "playerTotalScore": -249,
            "oppTotalScore": 117,
            "waitTime": 7096.722683489661,
            "responseTime": 1682371184396,
            "catchQuestion": "How many <b class=\"r\">red<\/b> marbles did your opponent report drawing? ",
            "catchKey": 23,
            "catchResponse": 23,
            "catchTime": 1682371184396,
            "trialTime": 0
        },
        {
            "exptPart": "trial",
            "trialNumber": 20,
            "roleCurrent": "receiver",
            "marblesSampled": 100,
            "probRed": 0.5,
            "practiceLambda": 5,
            "trialLambda": 0.3,
            "instructedLambda": "honest",
            "sd": 8.1,
            "drawnRed": 56,
            "reportedRed": 66,
            "inferredRed": 50,
            "playerTrialScore": -6,
            "oppTrialScore": 0,
            "playerTotalScore": -255,
            "oppTotalScore": 117,
            "waitTime": 5629.283472745294,
            "responseTime": 1682371198206,
            "catchQuestion": "How many <b class=\"r\">red<\/b> marbles did your opponent report drawing? ",
            "catchKey": -1,
            "catchResponse": -1,
            "catchTime": 1682371198206,
            "trialTime": 0
        },
        {
            "exptPart": "trial",
            "trialNumber": 21,
            "roleCurrent": "receiver",
            "marblesSampled": 100,
            "probRed": 0.5,
            "practiceLambda": 5,
            "trialLambda": 0.3,
            "instructedLambda": "honest",
            "sd": 8.1,
            "drawnRed": 51,
            "reportedRed": 61,
            "inferredRed": 40,
            "playerTrialScore": -11,
            "oppTrialScore": 0,
            "playerTotalScore": -266,
            "oppTotalScore": 117,
            "waitTime": 6047.650774157166,
            "responseTime": 1682371211318,
            "catchQuestion": "How many <b class=\"r\">red<\/b> marbles did your opponent report drawing? ",
            "catchKey": -1,
            "catchResponse": -1,
            "catchTime": 1682371198206,
            "trialTime": 0
        },
        {
            "exptPart": "trial",
            "trialNumber": 22,
            "roleCurrent": "receiver",
            "marblesSampled": 100,
            "probRed": 0.5,
            "practiceLambda": 5,
            "trialLambda": 0.3,
            "instructedLambda": "honest",
            "sd": 8.1,
            "drawnRed": 60,
            "reportedRed": 61,
            "inferredRed": 65,
            "playerTrialScore": -5,
            "oppTrialScore": 5,
            "playerTotalScore": -271,
            "oppTotalScore": 122,
            "waitTime": 5618.016307437352,
            "responseTime": 1682371222068,
            "catchQuestion": "How many <b class=\"r\">red<\/b> marbles did your opponent report drawing? ",
            "catchKey": -1,
            "catchResponse": -1,
            "catchTime": 1682371198206,
            "trialTime": 0
        },
        {
            "exptPart": "trial",
            "trialNumber": 23,
            "roleCurrent": "receiver",
            "marblesSampled": 100,
            "probRed": 0.5,
            "practiceLambda": 5,
            "trialLambda": 0.3,
            "instructedLambda": "honest",
            "sd": 8.1,
            "drawnRed": 64,
            "reportedRed": 60,
            "inferredRed": 55,
            "playerTrialScore": -9,
            "oppTrialScore": 0,
            "playerTotalScore": -280,
            "oppTotalScore": 122,
            "waitTime": 6060.004960267737,
            "responseTime": 1682371233448,
            "catchQuestion": "How many <b class=\"r\">red<\/b> marbles did your opponent report drawing? ",
            "catchKey": -1,
            "catchResponse": -1,
            "catchTime": 1682371198206,
            "trialTime": 0
        },
        {
            "exptPart": "trial",
            "trialNumber": 24,
            "roleCurrent": "receiver",
            "marblesSampled": 100,
            "probRed": 0.5,
            "practiceLambda": 5,
            "trialLambda": 0.3,
            "instructedLambda": "honest",
            "sd": 8.1,
            "drawnRed": 32,
            "reportedRed": 39,
            "inferredRed": 45,
            "playerTrialScore": -13,
            "oppTrialScore": 13,
            "playerTotalScore": -293,
            "oppTotalScore": 135,
            "waitTime": 6920.187172645749,
            "responseTime": 1682371243836,
            "catchQuestion": "How many <b class=\"r\">red<\/b> marbles did your opponent report drawing? ",
            "catchKey": -1,
            "catchResponse": -1,
            "catchTime": 1682371198206,
            "trialTime": 0
        },
        {
            "exptPart": "trial",
            "trialNumber": 25,
            "roleCurrent": "receiver",
            "marblesSampled": 100,
            "probRed": 0.5,
            "practiceLambda": 5,
            "trialLambda": 0.3,
            "instructedLambda": "honest",
            "sd": 8.1,
            "drawnRed": 76,
            "reportedRed": 75,
            "inferredRed": 60,
            "playerTrialScore": -16,
            "oppTrialScore": 0,
            "playerTotalScore": -309,
            "oppTotalScore": 135,
            "waitTime": 7490.237541865419,
            "responseTime": 1682371255150,
            "catchQuestion": "How many <b class=\"r\">red<\/b> marbles did your opponent report drawing? ",
            "catchKey": -1,
            "catchResponse": -1,
            "catchTime": 1682371198206,
            "trialTime": 0
        },
        {
            "exptPart": "trial",
            "trialNumber": 26,
            "roleCurrent": "receiver",
            "marblesSampled": 100,
            "probRed": 0.5,
            "practiceLambda": 5,
            "trialLambda": 0.3,
            "instructedLambda": "honest",
            "sd": 8.1,
            "drawnRed": 17,
            "reportedRed": 18,
            "inferredRed": 24,
            "playerTrialScore": -7,
            "oppTrialScore": 7,
            "playerTotalScore": -316,
            "oppTotalScore": 142,
            "waitTime": 6970.870097432985,
            "responseTime": 1682371265491,
            "catchQuestion": "How many <b class=\"r\">red<\/b> marbles did your opponent report drawing? ",
            "catchKey": -1,
            "catchResponse": -1,
            "catchTime": 1682371198206,
            "trialTime": 0
        },
        {
            "exptPart": "trial",
            "trialNumber": 27,
            "roleCurrent": "receiver",
            "marblesSampled": 100,
            "probRed": 0.5,
            "practiceLambda": 5,
            "trialLambda": 0.3,
            "instructedLambda": "honest",
            "sd": 8.1,
            "drawnRed": 43,
            "reportedRed": 45,
            "inferredRed": 40,
            "playerTrialScore": -3,
            "oppTrialScore": 0,
            "playerTotalScore": -319,
            "oppTotalScore": 142,
            "waitTime": 6791.8857675481795,
            "responseTime": 1682371275786,
            "catchQuestion": "How many <b class=\"r\">red<\/b> marbles did your opponent report drawing? ",
            "catchKey": -1,
            "catchResponse": -1,
            "catchTime": 1682371198206,
            "trialTime": 0
        },
        {
            "exptPart": "trial",
            "trialNumber": 28,
            "roleCurrent": "receiver",
            "marblesSampled": 100,
            "probRed": 0.5,
            "practiceLambda": 5,
            "trialLambda": 0.3,
            "instructedLambda": "honest",
            "sd": 8.1,
            "drawnRed": 85,
            "reportedRed": 86,
            "inferredRed": 90,
            "playerTrialScore": -5,
            "oppTrialScore": 5,
            "playerTotalScore": -324,
            "oppTotalScore": 147,
            "waitTime": 5339.209776720612,
            "responseTime": 1682371284722,
            "catchQuestion": "How many <b class=\"r\">red<\/b> marbles did your opponent report drawing? ",
            "catchKey": -1,
            "catchResponse": -1,
            "catchTime": 1682371198206,
            "trialTime": 0
        },
        {
            "exptPart": "trial",
            "trialNumber": 29,
            "roleCurrent": "receiver",
            "marblesSampled": 100,
            "probRed": 0.5,
            "practiceLambda": 5,
            "trialLambda": 0.3,
            "instructedLambda": "honest",
            "sd": 8.1,
            "drawnRed": 47,
            "reportedRed": 62,
            "inferredRed": 60,
            "playerTrialScore": -13,
            "oppTrialScore": 13,
            "playerTotalScore": -337,
            "oppTotalScore": 160,
            "waitTime": 6792.001333459002,
            "responseTime": 1682371295835,
            "catchQuestion": "How many <b class=\"r\">red<\/b> marbles did your opponent report drawing? ",
            "catchKey": -1,
            "catchResponse": -1,
            "catchTime": 1682371198206,
            "trialTime": 0
        },
        {
            "exptPart": "trial",
            "trialNumber": 30,
            "roleCurrent": "receiver",
            "marblesSampled": 100,
            "probRed": 0.5,
            "practiceLambda": 5,
            "trialLambda": 0.3,
            "instructedLambda": "honest",
            "sd": 8.1,
            "drawnRed": 43,
            "reportedRed": 51,
            "inferredRed": 50,
            "playerTrialScore": -7,
            "oppTrialScore": 7,
            "playerTotalScore": -344,
            "oppTotalScore": 167,
            "waitTime": 7300.249838383738,
            "responseTime": 1682371307263,
            "catchQuestion": "How many <b class=\"r\">red<\/b> marbles did your opponent report drawing? ",
            "catchKey": -1,
            "catchResponse": -1,
            "catchTime": 1682371307263,
            "trialTime": 0
        },
        {
            "exptPart": "trial",
            "trialNumber": 31,
            "roleCurrent": "receiver",
            "marblesSampled": 100,
            "probRed": 0.5,
            "practiceLambda": 5,
            "trialLambda": 0.3,
            "instructedLambda": "honest",
            "sd": 8.1,
            "drawnRed": 51,
            "reportedRed": 54,
            "inferredRed": 50,
            "playerTrialScore": -1,
            "oppTrialScore": 0,
            "playerTotalScore": -345,
            "oppTotalScore": 167,
            "waitTime": 5262.359011795144,
            "responseTime": 1682371318858,
            "catchQuestion": "How many <b class=\"r\">red<\/b> marbles did your opponent report drawing? ",
            "catchKey": 54,
            "catchResponse": 54,
            "catchTime": 1682371318858,
            "trialTime": 0
        },
        {
            "exptPart": "trial",
            "trialNumber": 32,
            "roleCurrent": "receiver",
            "marblesSampled": 100,
            "probRed": 0.5,
            "practiceLambda": 5,
            "trialLambda": 0.3,
            "instructedLambda": "honest",
            "sd": 8.1,
            "drawnRed": 37,
            "reportedRed": 33,
            "inferredRed": 35,
            "playerTrialScore": -2,
            "oppTrialScore": 0,
            "playerTotalScore": -347,
            "oppTotalScore": 167,
            "waitTime": 5801.960014569519,
            "responseTime": 1682371333966,
            "catchQuestion": "How many <b class=\"r\">red<\/b> marbles did your opponent report drawing? ",
            "catchKey": -1,
            "catchResponse": -1,
            "catchTime": 1682371318858,
            "trialTime": 0
        },
        {
            "exptPart": "trial",
            "trialNumber": 33,
            "roleCurrent": "receiver",
            "marblesSampled": 100,
            "probRed": 0.5,
            "practiceLambda": 5,
            "trialLambda": 0.3,
            "instructedLambda": "honest",
            "sd": 8.1,
            "drawnRed": 42,
            "reportedRed": 38,
            "inferredRed": 40,
            "playerTrialScore": -2,
            "oppTrialScore": 0,
            "playerTotalScore": -349,
            "oppTotalScore": 167,
            "waitTime": 7255.123300500045,
            "responseTime": 1682371344636,
            "catchQuestion": "How many <b class=\"r\">red<\/b> marbles did your opponent report drawing? ",
            "catchKey": -1,
            "catchResponse": -1,
            "catchTime": 1682371318858,
            "trialTime": 0
        },
        {
            "exptPart": "trial",
            "trialNumber": 34,
            "roleCurrent": "receiver",
            "marblesSampled": 100,
            "probRed": 0.5,
            "practiceLambda": 5,
            "trialLambda": 0.3,
            "instructedLambda": "honest",
            "sd": 8.1,
            "drawnRed": 45,
            "reportedRed": 55,
            "inferredRed": 60,
            "playerTrialScore": -15,
            "oppTrialScore": 15,
            "playerTotalScore": -364,
            "oppTotalScore": 182,
            "waitTime": 6639.730194799808,
            "responseTime": 1682371355160,
            "catchQuestion": "How many <b class=\"r\">red<\/b> marbles did your opponent report drawing? ",
            "catchKey": -1,
            "catchResponse": -1,
            "catchTime": 1682371318858,
            "trialTime": 0
        },
        {
            "exptPart": "trial",
            "trialNumber": 35,
            "roleCurrent": "receiver",
            "marblesSampled": 100,
            "probRed": 0.5,
            "practiceLambda": 5,
            "trialLambda": 0.3,
            "instructedLambda": "honest",
            "sd": 8.1,
            "drawnRed": 79,
            "reportedRed": 74,
            "inferredRed": 70,
            "playerTrialScore": -9,
            "oppTrialScore": 0,
            "playerTotalScore": -373,
            "oppTotalScore": 182,
            "waitTime": 5245.128122512908,
            "responseTime": 1682371364092,
            "catchQuestion": "How many <b class=\"r\">red<\/b> marbles did your opponent report drawing? ",
            "catchKey": -1,
            "catchResponse": -1,
            "catchTime": 1682371318858,
            "trialTime": 0
        },
        {
            "exptPart": "trial",
            "trialNumber": 36,
            "roleCurrent": "receiver",
            "marblesSampled": 100,
            "probRed": 0.5,
            "practiceLambda": 5,
            "trialLambda": 0.3,
            "instructedLambda": "honest",
            "sd": 8.1,
            "drawnRed": 46,
            "reportedRed": 37,
            "inferredRed": 35,
            "playerTrialScore": -11,
            "oppTrialScore": 0,
            "playerTotalScore": -384,
            "oppTotalScore": 182,
            "waitTime": 6878.398954781393,
            "responseTime": 1682371374938,
            "catchQuestion": "How many <b class=\"r\">red<\/b> marbles did your opponent report drawing? ",
            "catchKey": -1,
            "catchResponse": -1,
            "catchTime": 1682371318858,
            "trialTime": 0
        },
        {
            "exptPart": "trial",
            "trialNumber": 37,
            "roleCurrent": "receiver",
            "marblesSampled": 100,
            "probRed": 0.5,
            "practiceLambda": 5,
            "trialLambda": 0.3,
            "instructedLambda": "honest",
            "sd": 8.1,
            "drawnRed": 60,
            "reportedRed": 65,
            "inferredRed": 70,
            "playerTrialScore": -10,
            "oppTrialScore": 10,
            "playerTotalScore": -394,
            "oppTotalScore": 192,
            "waitTime": 5417.616350297388,
            "responseTime": 1682371383828,
            "catchQuestion": "How many <b class=\"r\">red<\/b> marbles did your opponent report drawing? ",
            "catchKey": -1,
            "catchResponse": -1,
            "catchTime": 1682371318858,
            "trialTime": 0
        },
        {
            "exptPart": "trial",
            "trialNumber": 38,
            "roleCurrent": "receiver",
            "marblesSampled": 100,
            "probRed": 0.5,
            "practiceLambda": 5,
            "trialLambda": 0.3,
            "instructedLambda": "honest",
            "sd": 8.1,
            "drawnRed": 59,
            "reportedRed": 68,
            "inferredRed": 65,
            "playerTrialScore": -6,
            "oppTrialScore": 6,
            "playerTotalScore": -400,
            "oppTotalScore": 198,
            "waitTime": 5619.359418901617,
            "responseTime": 1682371393058,
            "catchQuestion": "How many <b class=\"r\">red<\/b> marbles did your opponent report drawing? ",
            "catchKey": -1,
            "catchResponse": -1,
            "catchTime": 1682371318858,
            "trialTime": 0
        },
        {
            "exptPart": "trial",
            "trialNumber": 39,
            "roleCurrent": "receiver",
            "marblesSampled": 100,
            "probRed": 0.5,
            "practiceLambda": 5,
            "trialLambda": 0.3,
            "instructedLambda": "honest",
            "sd": 8.1,
            "drawnRed": 38,
            "reportedRed": 46,
            "inferredRed": 45,
            "playerTrialScore": -7,
            "oppTrialScore": 7,
            "playerTotalScore": -407,
            "oppTotalScore": 205,
            "waitTime": 6655.892204413567,
            "responseTime": 1682371403697,
            "catchQuestion": "How many <b class=\"r\">red<\/b> marbles did your opponent report drawing? ",
            "catchKey": -1,
            "catchResponse": -1,
            "catchTime": 1682371318858,
            "trialTime": 0
        },
        {
            "exptPart": "trial",
            "trialNumber": 40,
            "roleCurrent": "receiver",
            "marblesSampled": 100,
            "probRed": 0.5,
            "practiceLambda": 5,
            "trialLambda": 0.3,
            "instructedLambda": "honest",
            "sd": 8.1,
            "drawnRed": 56,
            "reportedRed": 51,
            "inferredRed": 55,
            "playerTrialScore": -1,
            "oppTrialScore": 0,
            "playerTotalScore": -408,
            "oppTotalScore": 205,
            "waitTime": 5410.3938425984,
            "responseTime": 1682371411926,
            "catchQuestion": "How many <b class=\"r\">red<\/b> marbles did your opponent report drawing? ",
            "catchKey": -1,
            "catchResponse": -1,
            "catchTime": 1682371411926,
            "trialTime": 0
        },
        {
            "exptPart": "trial",
            "trialNumber": 41,
            "roleCurrent": "receiver",
            "marblesSampled": 100,
            "probRed": 0.5,
            "practiceLambda": 5,
            "trialLambda": 0.3,
            "instructedLambda": "honest",
            "sd": 8.1,
            "drawnRed": 71,
            "reportedRed": 77,
            "inferredRed": 55,
            "playerTrialScore": -16,
            "oppTrialScore": 0,
            "playerTotalScore": -424,
            "oppTotalScore": 205,
            "waitTime": 6771.602513642465,
            "responseTime": 1682371423372,
            "catchQuestion": "How many <b class=\"r\">red<\/b> marbles did your opponent report drawing? ",
            "catchKey": -1,
            "catchResponse": -1,
            "catchTime": 1682371411926,
            "trialTime": 0
        },
        {
            "exptPart": "trial",
            "trialNumber": 42,
            "roleCurrent": "receiver",
            "marblesSampled": 100,
            "probRed": 0.5,
            "practiceLambda": 5,
            "trialLambda": 0.3,
            "instructedLambda": "honest",
            "sd": 8.1,
            "drawnRed": 76,
            "reportedRed": 71,
            "inferredRed": 55,
            "playerTrialScore": -21,
            "oppTrialScore": 0,
            "playerTotalScore": -445,
            "oppTotalScore": 205,
            "waitTime": 5481.949832787065,
            "responseTime": 1682371431289,
            "catchQuestion": "How many <b class=\"r\">red<\/b> marbles did your opponent report drawing? ",
            "catchKey": -1,
            "catchResponse": -1,
            "catchTime": 1682371411926,
            "trialTime": 0
        },
        {
            "exptPart": "trial",
            "trialNumber": 43,
            "roleCurrent": "receiver",
            "marblesSampled": 100,
            "probRed": 0.5,
            "practiceLambda": 5,
            "trialLambda": 0.3,
            "instructedLambda": "honest",
            "sd": 8.1,
            "drawnRed": 39,
            "reportedRed": 38,
            "inferredRed": 45,
            "playerTrialScore": -6,
            "oppTrialScore": 6,
            "playerTotalScore": -451,
            "oppTotalScore": 211,
            "waitTime": 5481.142821340318,
            "responseTime": 1682371440317,
            "catchQuestion": "How many <b class=\"r\">red<\/b> marbles did your opponent report drawing? ",
            "catchKey": -1,
            "catchResponse": -1,
            "catchTime": 1682371411926,
            "trialTime": 0
        },
        {
            "exptPart": "trial",
            "trialNumber": 44,
            "roleCurrent": "receiver",
            "marblesSampled": 100,
            "probRed": 0.5,
            "practiceLambda": 5,
            "trialLambda": 0.3,
            "instructedLambda": "honest",
            "sd": 8.1,
            "drawnRed": 11,
            "reportedRed": 24,
            "inferredRed": 30,
            "playerTrialScore": -19,
            "oppTrialScore": 19,
            "playerTotalScore": -470,
            "oppTotalScore": 230,
            "waitTime": 5541.354317510653,
            "responseTime": 1682371450291,
            "catchQuestion": "How many <b class=\"r\">red<\/b> marbles did your opponent report drawing? ",
            "catchKey": -1,
            "catchResponse": -1,
            "catchTime": 1682371411926,
            "trialTime": 0
        },
        {
            "exptPart": "trial",
            "trialNumber": 45,
            "roleCurrent": "receiver",
            "marblesSampled": 100,
            "probRed": 0.5,
            "practiceLambda": 5,
            "trialLambda": 0.3,
            "instructedLambda": "honest",
            "sd": 8.1,
            "drawnRed": 41,
            "reportedRed": 50,
            "inferredRed": 45,
            "playerTrialScore": -4,
            "oppTrialScore": 4,
            "playerTotalScore": -474,
            "oppTotalScore": 234,
            "waitTime": 6092.622394813394,
            "responseTime": 1682371459705,
            "catchQuestion": "How many <b class=\"r\">red<\/b> marbles did your opponent report drawing? ",
            "catchKey": -1,
            "catchResponse": -1,
            "catchTime": 1682371411926,
            "trialTime": 0
        },
        {
            "exptPart": "trial",
            "trialNumber": 46,
            "roleCurrent": "receiver",
            "marblesSampled": 100,
            "probRed": 0.5,
            "practiceLambda": 5,
            "trialLambda": 0.3,
            "instructedLambda": "honest",
            "sd": 8.1,
            "drawnRed": 44,
            "reportedRed": 53,
            "inferredRed": 55,
            "playerTrialScore": -11,
            "oppTrialScore": 11,
            "playerTotalScore": -485,
            "oppTotalScore": 245,
            "waitTime": 5587.803793826404,
            "responseTime": 1682371468807,
            "catchQuestion": "How many <b class=\"r\">red<\/b> marbles did your opponent report drawing? ",
            "catchKey": 53,
            "catchResponse": 53,
            "catchTime": 1682371468807,
            "trialTime": 0
        },
        {
            "exptPart": "trial",
            "trialNumber": 47,
            "roleCurrent": "receiver",
            "marblesSampled": 100,
            "probRed": 0.5,
            "practiceLambda": 5,
            "trialLambda": 0.3,
            "instructedLambda": "honest",
            "sd": 8.1,
            "drawnRed": 44,
            "reportedRed": 36,
            "inferredRed": 40,
            "playerTrialScore": -4,
            "oppTrialScore": 0,
            "playerTotalScore": -489,
            "oppTotalScore": 245,
            "waitTime": 6523.429721567218,
            "responseTime": 1682371485373,
            "catchQuestion": "How many <b class=\"r\">red<\/b> marbles did your opponent report drawing? ",
            "catchKey": -1,
            "catchResponse": -1,
            "catchTime": 1682371468807,
            "trialTime": 0
        },
        {
            "exptPart": "trial",
            "trialNumber": 48,
            "roleCurrent": "receiver",
            "marblesSampled": 100,
            "probRed": 0.5,
            "practiceLambda": 5,
            "trialLambda": 0.3,
            "instructedLambda": "honest",
            "sd": 8.1,
            "drawnRed": 50,
            "reportedRed": 50,
            "inferredRed": 55,
            "playerTrialScore": -5,
            "oppTrialScore": 5,
            "playerTotalScore": -494,
            "oppTotalScore": 250,
            "waitTime": 6933.076772669693,
            "responseTime": 1682371496128,
            "catchQuestion": "How many <b class=\"r\">red<\/b> marbles did your opponent report drawing? ",
            "catchKey": -1,
            "catchResponse": -1,
            "catchTime": 1682371468807,
            "trialTime": 0
        },
        {
            "exptPart": "trial",
            "trialNumber": 49,
            "roleCurrent": "receiver",
            "marblesSampled": 100,
            "probRed": 0.5,
            "practiceLambda": 5,
            "trialLambda": 0.3,
            "instructedLambda": "honest",
            "sd": 8.1,
            "drawnRed": 31,
            "reportedRed": 38,
            "inferredRed": 44,
            "playerTrialScore": -13,
            "oppTrialScore": 13,
            "playerTotalScore": -507,
            "oppTotalScore": 263,
            "waitTime": 7292.195743187321,
            "responseTime": 1682371507456,
            "catchQuestion": "How many <b class=\"r\">red<\/b> marbles did your opponent report drawing? ",
            "catchKey": -1,
            "catchResponse": -1,
            "catchTime": 1682371468807,
            "trialTime": 0
        },
        {
            "exptPart": "trial",
            "trialNumber": 50,
            "roleCurrent": "receiver",
            "marblesSampled": 100,
            "probRed": 0.5,
            "practiceLambda": 5,
            "trialLambda": 0.3,
            "instructedLambda": "honest",
            "sd": 8.1,
            "drawnRed": 39,
            "reportedRed": 44,
            "inferredRed": 50,
            "playerTrialScore": -11,
            "oppTrialScore": 11,
            "playerTotalScore": -518,
            "oppTotalScore": 274,
            "waitTime": 6645.769633807613,
            "responseTime": 1682371517858,
            "catchQuestion": "How many <b class=\"r\">red<\/b> marbles did your opponent report drawing? ",
            "catchKey": -1,
            "catchResponse": -1,
            "catchTime": 1682371517858,
            "trialTime": 0
        },
        {
            "exptPart": "trial",
            "trialNumber": 51,
            "roleCurrent": "receiver",
            "marblesSampled": 100,
            "probRed": 0.5,
            "practiceLambda": 5,
            "trialLambda": 0.3,
            "instructedLambda": "honest",
            "sd": 8.1,
            "drawnRed": 26,
            "reportedRed": 34,
            "inferredRed": 40,
            "playerTrialScore": -14,
            "oppTrialScore": 14,
            "playerTotalScore": -532,
            "oppTotalScore": 288,
            "waitTime": 5132.778377085473,
            "responseTime": 1682371529967,
            "catchQuestion": "How many <b class=\"r\">red<\/b> marbles did your opponent report drawing? ",
            "catchKey": -1,
            "catchResponse": -1,
            "catchTime": 1682371517858,
            "trialTime": 0
        },
        {
            "exptPart": "trial",
            "trialNumber": 52,
            "roleCurrent": "receiver",
            "marblesSampled": 100,
            "probRed": 0.5,
            "practiceLambda": 5,
            "trialLambda": 0.3,
            "instructedLambda": "honest",
            "sd": 8.1,
            "drawnRed": 45,
            "reportedRed": 35,
            "inferredRed": 55,
            "playerTrialScore": -10,
            "oppTrialScore": 10,
            "playerTotalScore": -542,
            "oppTotalScore": 298,
            "waitTime": 5164.441255296619,
            "responseTime": 1682371540287,
            "catchQuestion": "How many <b class=\"r\">red<\/b> marbles did your opponent report drawing? ",
            "catchKey": -1,
            "catchResponse": -1,
            "catchTime": 1682371517858,
            "trialTime": 0
        },
        {
            "exptPart": "trial",
            "trialNumber": 53,
            "roleCurrent": "receiver",
            "marblesSampled": 100,
            "probRed": 0.5,
            "practiceLambda": 5,
            "trialLambda": 0.3,
            "instructedLambda": "honest",
            "sd": 8.1,
            "drawnRed": 43,
            "reportedRed": 54,
            "inferredRed": 60,
            "playerTrialScore": -17,
            "oppTrialScore": 17,
            "playerTotalScore": -559,
            "oppTotalScore": 315,
            "waitTime": 5136.759357645022,
            "responseTime": 1682371548416,
            "catchQuestion": "How many <b class=\"r\">red<\/b> marbles did your opponent report drawing? ",
            "catchKey": 54,
            "catchResponse": 54,
            "catchTime": 1682371548416,
            "trialTime": 0
        },
        {
            "exptPart": "trial",
            "trialNumber": 54,
            "roleCurrent": "receiver",
            "marblesSampled": 100,
            "probRed": 0.5,
            "practiceLambda": 5,
            "trialLambda": 0.3,
            "instructedLambda": "honest",
            "sd": 8.1,
            "drawnRed": 87,
            "reportedRed": 88,
            "inferredRed": 60,
            "playerTrialScore": -27,
            "oppTrialScore": 0,
            "playerTotalScore": -586,
            "oppTotalScore": 315,
            "waitTime": 5683.963430762265,
            "responseTime": 1682371561988,
            "catchQuestion": "How many <b class=\"r\">red<\/b> marbles did your opponent report drawing? ",
            "catchKey": -1,
            "catchResponse": -1,
            "catchTime": 1682371548416,
            "trialTime": 0
        },
        {
            "exptPart": "trial",
            "trialNumber": 55,
            "roleCurrent": "receiver",
            "marblesSampled": 100,
            "probRed": 0.5,
            "practiceLambda": 5,
            "trialLambda": 0.3,
            "instructedLambda": "honest",
            "sd": 8.1,
            "drawnRed": 42,
            "reportedRed": 42,
            "inferredRed": 33,
            "playerTrialScore": -9,
            "oppTrialScore": 0,
            "playerTotalScore": -595,
            "oppTotalScore": 315,
            "waitTime": 5180.710622730829,
            "responseTime": 1682371570124,
            "catchQuestion": "How many <b class=\"r\">red<\/b> marbles did your opponent report drawing? ",
            "catchKey": -1,
            "catchResponse": -1,
            "catchTime": 1682371548416,
            "trialTime": 0
        },
        {
            "exptPart": "trial",
            "trialNumber": 56,
            "roleCurrent": "receiver",
            "marblesSampled": 100,
            "probRed": 0.5,
            "practiceLambda": 5,
            "trialLambda": 0.3,
            "instructedLambda": "honest",
            "sd": 8.1,
            "drawnRed": 17,
            "reportedRed": 28,
            "inferredRed": 45,
            "playerTrialScore": -28,
            "oppTrialScore": 28,
            "playerTotalScore": -623,
            "oppTotalScore": 343,
            "waitTime": 5916.519281885896,
            "responseTime": 1682371579858,
            "catchQuestion": "How many <b class=\"r\">red<\/b> marbles did your opponent report drawing? ",
            "catchKey": -1,
            "catchResponse": -1,
            "catchTime": 1682371548416,
            "trialTime": 0
        },
        {
            "exptPart": "trial",
            "trialNumber": 57,
            "roleCurrent": "receiver",
            "marblesSampled": 100,
            "probRed": 0.5,
            "practiceLambda": 5,
            "trialLambda": 0.3,
            "instructedLambda": "honest",
            "sd": 8.1,
            "drawnRed": 20,
            "reportedRed": 18,
            "inferredRed": 12,
            "playerTrialScore": -8,
            "oppTrialScore": 0,
            "playerTotalScore": -631,
            "oppTotalScore": 343,
            "waitTime": 6052.933036452636,
            "responseTime": 1682371589813,
            "catchQuestion": "How many <b class=\"r\">red<\/b> marbles did your opponent report drawing? ",
            "catchKey": -1,
            "catchResponse": -1,
            "catchTime": 1682371548416,
            "trialTime": 0
        },
        {
            "exptPart": "trial",
            "trialNumber": 58,
            "roleCurrent": "receiver",
            "marblesSampled": 100,
            "probRed": 0.5,
            "practiceLambda": 5,
            "trialLambda": 0.3,
            "instructedLambda": "honest",
            "sd": 8.1,
            "drawnRed": 82,
            "reportedRed": 78,
            "inferredRed": 85,
            "playerTrialScore": -3,
            "oppTrialScore": 3,
            "playerTotalScore": -634,
            "oppTotalScore": 346,
            "waitTime": 6944.808436371635,
            "responseTime": 1682371600810,
            "catchQuestion": "How many <b class=\"r\">red<\/b> marbles did your opponent report drawing? ",
            "catchKey": -1,
            "catchResponse": -1,
            "catchTime": 1682371548416,
            "trialTime": 0
        },
        {
            "exptPart": "trial",
            "trialNumber": 59,
            "roleCurrent": "receiver",
            "marblesSampled": 100,
            "probRed": 0.5,
            "practiceLambda": 5,
            "trialLambda": 0.3,
            "instructedLambda": "honest",
            "sd": 8.1,
            "drawnRed": 45,
            "reportedRed": 41,
            "inferredRed": 50,
            "playerTrialScore": -5,
            "oppTrialScore": 5,
            "playerTotalScore": -639,
            "oppTotalScore": 351,
            "waitTime": 6016.1493950746335,
            "responseTime": 1682371610683,
            "catchQuestion": "How many <b class=\"r\">red<\/b> marbles did your opponent report drawing? ",
            "catchKey": -1,
            "catchResponse": -1,
            "catchTime": 1682371548416,
            "trialTime": 0
        },
        {
            "exptPart": "trial",
            "trialNumber": 60,
            "roleCurrent": "receiver",
            "marblesSampled": 100,
            "probRed": 0.5,
            "practiceLambda": 5,
            "trialLambda": 0.3,
            "instructedLambda": "honest",
            "sd": 8.1,
            "drawnRed": 27,
            "reportedRed": 17,
            "inferredRed": 25,
            "playerTrialScore": -2,
            "oppTrialScore": 0,
            "playerTotalScore": -641,
            "oppTotalScore": 351,
            "waitTime": 5339.7868810318105,
            "responseTime": 1682371619106,
            "catchQuestion": "How many <b class=\"r\">red<\/b> marbles did your opponent report drawing? ",
            "catchKey": -1,
            "catchResponse": -1,
            "catchTime": 1682371619106,
            "trialTime": 0
        },
        {
            "exptPart": "trial",
            "trialNumber": 61,
            "roleCurrent": "receiver",
            "marblesSampled": 100,
            "probRed": 0.5,
            "practiceLambda": 5,
            "trialLambda": 0.3,
            "instructedLambda": "honest",
            "sd": 8.1,
            "drawnRed": 40,
            "reportedRed": 33,
            "inferredRed": 55,
            "playerTrialScore": -15,
            "oppTrialScore": 15,
            "playerTotalScore": -656,
            "oppTotalScore": 366,
            "waitTime": 5239.573861615938,
            "responseTime": 1682371629035,
            "catchQuestion": "How many <b class=\"r\">red<\/b> marbles did your opponent report drawing? ",
            "catchKey": 33,
            "catchResponse": 33,
            "catchTime": 1682371629035,
            "trialTime": 0
        },
        {
            "exptPart": "trial",
            "trialNumber": 62,
            "roleCurrent": "receiver",
            "marblesSampled": 100,
            "probRed": 0.5,
            "practiceLambda": 5,
            "trialLambda": 0.3,
            "instructedLambda": "honest",
            "sd": 8.1,
            "drawnRed": 44,
            "reportedRed": 41,
            "inferredRed": 55,
            "playerTrialScore": -11,
            "oppTrialScore": 11,
            "playerTotalScore": -667,
            "oppTotalScore": 377,
            "waitTime": 6206.41611545364,
            "responseTime": 1682371643632,
            "catchQuestion": "How many <b class=\"r\">red<\/b> marbles did your opponent report drawing? ",
            "catchKey": -1,
            "catchResponse": -1,
            "catchTime": 1682371629035,
            "trialTime": 0
        },
        {
            "exptPart": "trial",
            "trialNumber": 63,
            "roleCurrent": "receiver",
            "marblesSampled": 100,
            "probRed": 0.5,
            "practiceLambda": 5,
            "trialLambda": 0.3,
            "instructedLambda": "honest",
            "sd": 8.1,
            "drawnRed": 59,
            "reportedRed": 50,
            "inferredRed": 60,
            "playerTrialScore": -1,
            "oppTrialScore": 1,
            "playerTotalScore": -668,
            "oppTotalScore": 378,
            "waitTime": 5489.094129656469,
            "responseTime": 1682371651998,
            "catchQuestion": "How many <b class=\"r\">red<\/b> marbles did your opponent report drawing? ",
            "catchKey": -1,
            "catchResponse": -1,
            "catchTime": 1682371629035,
            "trialTime": 0
        },
        {
            "exptPart": "trial",
            "trialNumber": 64,
            "roleCurrent": "receiver",
            "marblesSampled": 100,
            "probRed": 0.5,
            "practiceLambda": 5,
            "trialLambda": 0.3,
            "instructedLambda": "honest",
            "sd": 8.1,
            "drawnRed": 18,
            "reportedRed": 22,
            "inferredRed": 55,
            "playerTrialScore": -37,
            "oppTrialScore": 37,
            "playerTotalScore": -705,
            "oppTotalScore": 415,
            "waitTime": 6380.381578539431,
            "responseTime": 1682371661173,
            "catchQuestion": "How many <b class=\"r\">red<\/b> marbles did your opponent report drawing? ",
            "catchKey": -1,
            "catchResponse": -1,
            "catchTime": 1682371629035,
            "trialTime": 0
        },
        {
            "exptPart": "trial",
            "trialNumber": 65,
            "roleCurrent": "receiver",
            "marblesSampled": 100,
            "probRed": 0.5,
            "practiceLambda": 5,
            "trialLambda": 0.3,
            "instructedLambda": "honest",
            "sd": 8.1,
            "drawnRed": 28,
            "reportedRed": 23,
            "inferredRed": 30,
            "playerTrialScore": -2,
            "oppTrialScore": 2,
            "playerTotalScore": -707,
            "oppTotalScore": 417,
            "waitTime": 6807.48469871099,
            "responseTime": 1682371671431,
            "catchQuestion": "How many <b class=\"r\">red<\/b> marbles did your opponent report drawing? ",
            "catchKey": -1,
            "catchResponse": -1,
            "catchTime": 1682371629035,
            "trialTime": 0
        },
        {
            "exptPart": "trial",
            "trialNumber": 66,
            "roleCurrent": "receiver",
            "marblesSampled": 100,
            "probRed": 0.5,
            "practiceLambda": 5,
            "trialLambda": 0.3,
            "instructedLambda": "honest",
            "sd": 8.1,
            "drawnRed": 73,
            "reportedRed": 65,
            "inferredRed": 80,
            "playerTrialScore": -7,
            "oppTrialScore": 7,
            "playerTotalScore": -714,
            "oppTotalScore": 424,
            "waitTime": 7327.016021564168,
            "responseTime": 1682371681704,
            "catchQuestion": "How many <b class=\"r\">red<\/b> marbles did your opponent report drawing? ",
            "catchKey": -1,
            "catchResponse": -1,
            "catchTime": 1682371629035,
            "trialTime": 0
        },
        {
            "exptPart": "trial",
            "trialNumber": 67,
            "roleCurrent": "receiver",
            "marblesSampled": 100,
            "probRed": 0.5,
            "practiceLambda": 5,
            "trialLambda": 0.3,
            "instructedLambda": "honest",
            "sd": 8.1,
            "drawnRed": 52,
            "reportedRed": 48,
            "inferredRed": 55,
            "playerTrialScore": -3,
            "oppTrialScore": 3,
            "playerTotalScore": -717,
            "oppTotalScore": 427,
            "waitTime": 5712.946153640229,
            "responseTime": 1682371691889,
            "catchQuestion": "How many <b class=\"r\">red<\/b> marbles did your opponent report drawing? ",
            "catchKey": -1,
            "catchResponse": -1,
            "catchTime": 1682371629035,
            "trialTime": 0
        },
        {
            "exptPart": "trial",
            "trialNumber": 68,
            "roleCurrent": "receiver",
            "marblesSampled": 100,
            "probRed": 0.5,
            "practiceLambda": 5,
            "trialLambda": 0.3,
            "instructedLambda": "honest",
            "sd": 8.1,
            "drawnRed": 55,
            "reportedRed": 53,
            "inferredRed": 60,
            "playerTrialScore": -5,
            "oppTrialScore": 5,
            "playerTotalScore": -722,
            "oppTotalScore": 432,
            "waitTime": 5177.945516084771,
            "responseTime": 1682371701041,
            "catchQuestion": "How many <b class=\"r\">red<\/b> marbles did your opponent report drawing? ",
            "catchKey": -1,
            "catchResponse": -1,
            "catchTime": 1682371629035,
            "trialTime": 0
        },
        {
            "exptPart": "trial",
            "trialNumber": 69,
            "roleCurrent": "receiver",
            "marblesSampled": 100,
            "probRed": 0.5,
            "practiceLambda": 5,
            "trialLambda": 0.3,
            "instructedLambda": "honest",
            "sd": 8.1,
            "drawnRed": 21,
            "reportedRed": 26,
            "inferredRed": 20,
            "playerTrialScore": -1,
            "oppTrialScore": 0,
            "playerTotalScore": -723,
            "oppTotalScore": 432,
            "waitTime": 5588.010255654175,
            "responseTime": 1682371711273,
            "catchQuestion": "How many <b class=\"r\">red<\/b> marbles did your opponent report drawing? ",
            "catchKey": -1,
            "catchResponse": -1,
            "catchTime": 1682371629035,
            "trialTime": 0
        },
        {
            "exptPart": "trial",
            "trialNumber": 70,
            "roleCurrent": "receiver",
            "marblesSampled": 100,
            "probRed": 0.5,
            "practiceLambda": 5,
            "trialLambda": 0.3,
            "instructedLambda": "honest",
            "sd": 8.1,
            "drawnRed": 72,
            "reportedRed": 69,
            "inferredRed": 80,
            "playerTrialScore": -8,
            "oppTrialScore": 8,
            "playerTotalScore": -731,
            "oppTotalScore": 440,
            "waitTime": 7357.947547055172,
            "responseTime": 1682371722356,
            "catchQuestion": "How many <b class=\"r\">red<\/b> marbles did your opponent report drawing? ",
            "catchKey": 69,
            "catchResponse": 69,
            "catchTime": 1682371722356,
            "trialTime": 0
        },
        {
            "exptPart": "trial",
            "trialNumber": 71,
            "roleCurrent": "receiver",
            "marblesSampled": 100,
            "probRed": 0.5,
            "practiceLambda": 5,
            "trialLambda": 0.3,
            "instructedLambda": "honest",
            "sd": 8.1,
            "drawnRed": 77,
            "reportedRed": 70,
            "inferredRed": 45,
            "playerTrialScore": -32,
            "oppTrialScore": 0,
            "playerTotalScore": -763,
            "oppTotalScore": 440,
            "waitTime": 5996.616260488718,
            "responseTime": 1682371737889,
            "catchQuestion": "How many <b class=\"r\">red<\/b> marbles did your opponent report drawing? ",
            "catchKey": -1,
            "catchResponse": -1,
            "catchTime": 1682371722356,
            "trialTime": 0
        },
        {
            "exptPart": "trial",
            "trialNumber": 72,
            "roleCurrent": "receiver",
            "marblesSampled": 100,
            "probRed": 0.5,
            "practiceLambda": 5,
            "trialLambda": 0.3,
            "instructedLambda": "honest",
            "sd": 8.1,
            "drawnRed": 63,
            "reportedRed": 63,
            "inferredRed": 50,
            "playerTrialScore": -13,
            "oppTrialScore": 0,
            "playerTotalScore": -776,
            "oppTotalScore": 440,
            "waitTime": 5723.912876562456,
            "responseTime": 1682371747379,
            "catchQuestion": "How many <b class=\"r\">red<\/b> marbles did your opponent report drawing? ",
            "catchKey": -1,
            "catchResponse": -1,
            "catchTime": 1682371722356,
            "trialTime": 0
        },
        {
            "exptPart": "trial",
            "trialNumber": 73,
            "roleCurrent": "receiver",
            "marblesSampled": 100,
            "probRed": 0.5,
            "practiceLambda": 5,
            "trialLambda": 0.3,
            "instructedLambda": "honest",
            "sd": 8.1,
            "drawnRed": 28,
            "reportedRed": 15,
            "inferredRed": 10,
            "playerTrialScore": -18,
            "oppTrialScore": 0,
            "playerTotalScore": -794,
            "oppTotalScore": 440,
            "waitTime": 5564.17505754131,
            "responseTime": 1682371756968,
            "catchQuestion": "How many <b class=\"r\">red<\/b> marbles did your opponent report drawing? ",
            "catchKey": -1,
            "catchResponse": -1,
            "catchTime": 1682371722356,
            "trialTime": 0
        },
        {
            "exptPart": "trial",
            "trialNumber": 74,
            "roleCurrent": "receiver",
            "marblesSampled": 100,
            "probRed": 0.5,
            "practiceLambda": 5,
            "trialLambda": 0.3,
            "instructedLambda": "honest",
            "sd": 8.1,
            "drawnRed": 83,
            "reportedRed": 76,
            "inferredRed": 70,
            "playerTrialScore": -13,
            "oppTrialScore": 0,
            "playerTotalScore": -807,
            "oppTotalScore": 440,
            "waitTime": 5996.489467383568,
            "responseTime": 1682371767457,
            "catchQuestion": "How many <b class=\"r\">red<\/b> marbles did your opponent report drawing? ",
            "catchKey": -1,
            "catchResponse": -1,
            "catchTime": 1682371722356,
            "trialTime": 0
        },
        {
            "exptPart": "trial",
            "trialNumber": 75,
            "roleCurrent": "receiver",
            "marblesSampled": 100,
            "probRed": 0.5,
            "practiceLambda": 5,
            "trialLambda": 0.3,
            "instructedLambda": "honest",
            "sd": 8.1,
            "drawnRed": 51,
            "reportedRed": 49,
            "inferredRed": 45,
            "playerTrialScore": -6,
            "oppTrialScore": 0,
            "playerTotalScore": -813,
            "oppTotalScore": 440,
            "waitTime": 5178.333407373009,
            "responseTime": 1682371775637,
            "catchQuestion": "How many <b class=\"r\">red<\/b> marbles did your opponent report drawing? ",
            "catchKey": -1,
            "catchResponse": -1,
            "catchTime": 1682371722356,
            "trialTime": 0
        },
        {
            "exptPart": "trial",
            "trialNumber": 76,
            "roleCurrent": "receiver",
            "marblesSampled": 100,
            "probRed": 0.5,
            "practiceLambda": 5,
            "trialLambda": 0.3,
            "instructedLambda": "honest",
            "sd": 8.1,
            "drawnRed": 37,
            "reportedRed": 48,
            "inferredRed": 45,
            "playerTrialScore": -8,
            "oppTrialScore": 8,
            "playerTotalScore": -821,
            "oppTotalScore": 448,
            "waitTime": 6295.975915873727,
            "responseTime": 1682371784491,
            "catchQuestion": "How many <b class=\"r\">red<\/b> marbles did your opponent report drawing? ",
            "catchKey": -1,
            "catchResponse": -1,
            "catchTime": 1682371722356,
            "trialTime": 0
        },
        {
            "exptPart": "trial",
            "trialNumber": 77,
            "roleCurrent": "receiver",
            "marblesSampled": 100,
            "probRed": 0.5,
            "practiceLambda": 5,
            "trialLambda": 0.3,
            "instructedLambda": "honest",
            "sd": 8.1,
            "drawnRed": 68,
            "reportedRed": 65,
            "inferredRed": 60,
            "playerTrialScore": -8,
            "oppTrialScore": 0,
            "playerTotalScore": -829,
            "oppTotalScore": 448,
            "waitTime": 6086.068718419765,
            "responseTime": 1682371793395,
            "catchQuestion": "How many <b class=\"r\">red<\/b> marbles did your opponent report drawing? ",
            "catchKey": -1,
            "catchResponse": -1,
            "catchTime": 1682371722356,
            "trialTime": 0
        },
        {
            "exptPart": "trial",
            "trialNumber": 78,
            "roleCurrent": "receiver",
            "marblesSampled": 100,
            "probRed": 0.5,
            "practiceLambda": 5,
            "trialLambda": 0.3,
            "instructedLambda": "honest",
            "sd": 8.1,
            "drawnRed": 89,
            "reportedRed": 85,
            "inferredRed": 80,
            "playerTrialScore": -9,
            "oppTrialScore": 0,
            "playerTotalScore": -838,
            "oppTotalScore": 448,
            "waitTime": 5727.829982713635,
            "responseTime": 1682371802579,
            "catchQuestion": "How many <b class=\"r\">red<\/b> marbles did your opponent report drawing? ",
            "catchKey": -1,
            "catchResponse": -1,
            "catchTime": 1682371722356,
            "trialTime": 0
        },
        {
            "exptPart": "trial",
            "trialNumber": 79,
            "roleCurrent": "receiver",
            "marblesSampled": 100,
            "probRed": 0.5,
            "practiceLambda": 5,
            "trialLambda": 0.3,
            "instructedLambda": "honest",
            "sd": 8.1,
            "drawnRed": 21,
            "reportedRed": 25,
            "inferredRed": 20,
            "playerTrialScore": -1,
            "oppTrialScore": 0,
            "playerTotalScore": -839,
            "oppTotalScore": 448,
            "waitTime": 6819.8737232899075,
            "responseTime": 1682371813023,
            "catchQuestion": "How many <b class=\"r\">red<\/b> marbles did your opponent report drawing? ",
            "catchKey": -1,
            "catchResponse": -1,
            "catchTime": 1682371722356,
            "trialTime": 0
        },
        {
            "exptPart": "trial",
            "trialNumber": 80,
            "roleCurrent": "receiver",
            "marblesSampled": 100,
            "probRed": 0.5,
            "practiceLambda": 5,
            "trialLambda": 0.3,
            "instructedLambda": "honest",
            "sd": 8.1,
            "drawnRed": 66,
            "reportedRed": 63,
            "inferredRed": 60,
            "playerTrialScore": -6,
            "oppTrialScore": 0,
            "playerTotalScore": -845,
            "oppTotalScore": 448,
            "waitTime": 5825.549990513859,
            "responseTime": 1682371822748,
            "catchQuestion": "How many <b class=\"r\">red<\/b> marbles did your opponent report drawing? ",
            "catchKey": -1,
            "catchResponse": -1,
            "catchTime": 1682371822748,
            "trialTime": 0
        },
        {
            "exptPart": "trial",
            "trialNumber": 81,
            "roleCurrent": "receiver",
            "marblesSampled": 100,
            "probRed": 0.5,
            "practiceLambda": 5,
            "trialLambda": 0.3,
            "instructedLambda": "honest",
            "sd": 8.1,
            "drawnRed": 49,
            "reportedRed": 53,
            "inferredRed": 50,
            "playerTrialScore": -1,
            "oppTrialScore": 1,
            "playerTotalScore": -846,
            "oppTotalScore": 449,
            "waitTime": 7430.313171189992,
            "responseTime": 1682371835193,
            "catchQuestion": "How many <b class=\"r\">red<\/b> marbles did your opponent report drawing? ",
            "catchKey": -1,
            "catchResponse": -1,
            "catchTime": 1682371822748,
            "trialTime": 0
        },
        {
            "exptPart": "trial",
            "trialNumber": 82,
            "roleCurrent": "receiver",
            "marblesSampled": 100,
            "probRed": 0.5,
            "practiceLambda": 5,
            "trialLambda": 0.3,
            "instructedLambda": "honest",
            "sd": 8.1,
            "drawnRed": 42,
            "reportedRed": 28,
            "inferredRed": 20,
            "playerTrialScore": -22,
            "oppTrialScore": 0,
            "playerTotalScore": -868,
            "oppTotalScore": 449,
            "waitTime": 5946.396416823286,
            "responseTime": 1682371844750,
            "catchQuestion": "How many <b class=\"r\">red<\/b> marbles did your opponent report drawing? ",
            "catchKey": 28,
            "catchResponse": 28,
            "catchTime": 1682371844750,
            "trialTime": 0
        },
        {
            "exptPart": "trial",
            "trialNumber": 83,
            "roleCurrent": "receiver",
            "marblesSampled": 100,
            "probRed": 0.5,
            "practiceLambda": 5,
            "trialLambda": 0.3,
            "instructedLambda": "honest",
            "sd": 8.1,
            "drawnRed": 17,
            "reportedRed": 21,
            "inferredRed": 15,
            "playerTrialScore": -2,
            "oppTrialScore": 0,
            "playerTotalScore": -870,
            "oppTotalScore": 449,
            "waitTime": 6357.3281427047,
            "responseTime": 1682371859600,
            "catchQuestion": "How many <b class=\"r\">red<\/b> marbles did your opponent report drawing? ",
            "catchKey": 21,
            "catchResponse": 21,
            "catchTime": 1682371859600,
            "trialTime": 0
        },
        {
            "exptPart": "trial",
            "trialNumber": 84,
            "roleCurrent": "receiver",
            "marblesSampled": 100,
            "probRed": 0.5,
            "practiceLambda": 5,
            "trialLambda": 0.3,
            "instructedLambda": "honest",
            "sd": 8.1,
            "drawnRed": 80,
            "reportedRed": 77,
            "inferredRed": 50,
            "playerTrialScore": -30,
            "oppTrialScore": 0,
            "playerTotalScore": -900,
            "oppTotalScore": 449,
            "waitTime": 6261.835850742378,
            "responseTime": 1682371877790,
            "catchQuestion": "How many <b class=\"r\">red<\/b> marbles did your opponent report drawing? ",
            "catchKey": -1,
            "catchResponse": -1,
            "catchTime": 1682371859600,
            "trialTime": 0
        },
        {
            "exptPart": "trial",
            "trialNumber": 85,
            "roleCurrent": "receiver",
            "marblesSampled": 100,
            "probRed": 0.5,
            "practiceLambda": 5,
            "trialLambda": 0.3,
            "instructedLambda": "honest",
            "sd": 8.1,
            "drawnRed": 62,
            "reportedRed": 63,
            "inferredRed": 80,
            "playerTrialScore": -18,
            "oppTrialScore": 18,
            "playerTotalScore": -918,
            "oppTotalScore": 467,
            "waitTime": 6934.792235689138,
            "responseTime": 1682371889455,
            "catchQuestion": "How many <b class=\"r\">red<\/b> marbles did your opponent report drawing? ",
            "catchKey": 63,
            "catchResponse": 63,
            "catchTime": 1682371889455,
            "trialTime": 0
        },
        {
            "exptPart": "trial",
            "trialNumber": 86,
            "roleCurrent": "receiver",
            "marblesSampled": 100,
            "probRed": 0.5,
            "practiceLambda": 5,
            "trialLambda": 0.3,
            "instructedLambda": "honest",
            "sd": 8.1,
            "drawnRed": 35,
            "reportedRed": 29,
            "inferredRed": 25,
            "playerTrialScore": -10,
            "oppTrialScore": 0,
            "playerTotalScore": -928,
            "oppTotalScore": 467,
            "waitTime": 6139.74280566987,
            "responseTime": 1682371905286,
            "catchQuestion": "How many <b class=\"r\">red<\/b> marbles did your opponent report drawing? ",
            "catchKey": -1,
            "catchResponse": -1,
            "catchTime": 1682371889455,
            "trialTime": 0
        },
        {
            "exptPart": "trial",
            "trialNumber": 87,
            "roleCurrent": "receiver",
            "marblesSampled": 100,
            "probRed": 0.5,
            "practiceLambda": 5,
            "trialLambda": 0.3,
            "instructedLambda": "honest",
            "sd": 8.1,
            "drawnRed": 47,
            "reportedRed": 47,
            "inferredRed": 35,
            "playerTrialScore": -12,
            "oppTrialScore": 0,
            "playerTotalScore": -940,
            "oppTotalScore": 467,
            "waitTime": 5917.935895530054,
            "responseTime": 1682371915978,
            "catchQuestion": "How many <b class=\"r\">red<\/b> marbles did your opponent report drawing? ",
            "catchKey": -1,
            "catchResponse": -1,
            "catchTime": 1682371889455,
            "trialTime": 0
        },
        {
            "exptPart": "trial",
            "trialNumber": 88,
            "roleCurrent": "receiver",
            "marblesSampled": 100,
            "probRed": 0.5,
            "practiceLambda": 5,
            "trialLambda": 0.3,
            "instructedLambda": "honest",
            "sd": 8.1,
            "drawnRed": 41,
            "reportedRed": 63,
            "inferredRed": 55,
            "playerTrialScore": -14,
            "oppTrialScore": 14,
            "playerTotalScore": -954,
            "oppTotalScore": 481,
            "waitTime": 5772.8187179229735,
            "responseTime": 1682371925174,
            "catchQuestion": "How many <b class=\"r\">red<\/b> marbles did your opponent report drawing? ",
            "catchKey": -1,
            "catchResponse": -1,
            "catchTime": 1682371889455,
            "trialTime": 0
        },
        {
            "exptPart": "trial",
            "trialNumber": 89,
            "roleCurrent": "receiver",
            "marblesSampled": 100,
            "probRed": 0.5,
            "practiceLambda": 5,
            "trialLambda": 0.3,
            "instructedLambda": "honest",
            "sd": 8.1,
            "drawnRed": 73,
            "reportedRed": 75,
            "inferredRed": 70,
            "playerTrialScore": -3,
            "oppTrialScore": 0,
            "playerTotalScore": -957,
            "oppTotalScore": 481,
            "waitTime": 7339.111634099775,
            "responseTime": 1682371937136,
            "catchQuestion": "How many <b class=\"r\">red<\/b> marbles did your opponent report drawing? ",
            "catchKey": -1,
            "catchResponse": -1,
            "catchTime": 1682371889455,
            "trialTime": 0
        },
        {
            "exptPart": "trial",
            "trialNumber": 90,
            "roleCurrent": "receiver",
            "marblesSampled": 100,
            "probRed": 0.5,
            "practiceLambda": 5,
            "trialLambda": 0.3,
            "instructedLambda": "honest",
            "sd": 8.1,
            "drawnRed": 52,
            "reportedRed": 61,
            "inferredRed": 55,
            "playerTrialScore": -3,
            "oppTrialScore": 3,
            "playerTotalScore": -960,
            "oppTotalScore": 484,
            "waitTime": 5379.869992474496,
            "responseTime": 1682371945545,
            "catchQuestion": "How many <b class=\"r\">red<\/b> marbles did your opponent report drawing? ",
            "catchKey": -1,
            "catchResponse": -1,
            "catchTime": 1682371945545,
            "trialTime": 0
        },
        {
            "exptPart": "trial",
            "trialNumber": 91,
            "roleCurrent": "receiver",
            "marblesSampled": 100,
            "probRed": 0.5,
            "practiceLambda": 5,
            "trialLambda": 0.3,
            "instructedLambda": "honest",
            "sd": 8.1,
            "drawnRed": 76,
            "reportedRed": 71,
            "inferredRed": 56,
            "playerTrialScore": -20,
            "oppTrialScore": 0,
            "playerTotalScore": -980,
            "oppTotalScore": 484,
            "waitTime": 7005.044960540836,
            "responseTime": 1682371958356,
            "catchQuestion": "How many <b class=\"r\">red<\/b> marbles did your opponent report drawing? ",
            "catchKey": -1,
            "catchResponse": -1,
            "catchTime": 1682371945545,
            "trialTime": 0
        },
        {
            "exptPart": "trial",
            "trialNumber": 92,
            "roleCurrent": "receiver",
            "marblesSampled": 100,
            "probRed": 0.5,
            "practiceLambda": 5,
            "trialLambda": 0.3,
            "instructedLambda": "honest",
            "sd": 8.1,
            "drawnRed": 55,
            "reportedRed": 47,
            "inferredRed": 45,
            "playerTrialScore": -10,
            "oppTrialScore": 0,
            "playerTotalScore": -990,
            "oppTotalScore": 484,
            "waitTime": 5155.838020359588,
            "responseTime": 1682371967023,
            "catchQuestion": "How many <b class=\"r\">red<\/b> marbles did your opponent report drawing? ",
            "catchKey": -1,
            "catchResponse": -1,
            "catchTime": 1682371945545,
            "trialTime": 0
        },
        {
            "exptPart": "trial",
            "trialNumber": 93,
            "roleCurrent": "receiver",
            "marblesSampled": 100,
            "probRed": 0.5,
            "practiceLambda": 5,
            "trialLambda": 0.3,
            "instructedLambda": "honest",
            "sd": 8.1,
            "drawnRed": 50,
            "reportedRed": 49,
            "inferredRed": 45,
            "playerTrialScore": -5,
            "oppTrialScore": 0,
            "playerTotalScore": -995,
            "oppTotalScore": 484,
            "waitTime": 6999.155093135778,
            "responseTime": 1682371977305,
            "catchQuestion": "How many <b class=\"r\">red<\/b> marbles did your opponent report drawing? ",
            "catchKey": -1,
            "catchResponse": -1,
            "catchTime": 1682371945545,
            "trialTime": 0
        },
        {
            "exptPart": "trial",
            "trialNumber": 94,
            "roleCurrent": "receiver",
            "marblesSampled": 100,
            "probRed": 0.5,
            "practiceLambda": 5,
            "trialLambda": 0.3,
            "instructedLambda": "honest",
            "sd": 8.1,
            "drawnRed": 20,
            "reportedRed": 22,
            "inferredRed": 35,
            "playerTrialScore": -15,
            "oppTrialScore": 15,
            "playerTotalScore": -1010,
            "oppTotalScore": 499,
            "waitTime": 6636.576167596444,
            "responseTime": 1682371986918,
            "catchQuestion": "How many <b class=\"r\">red<\/b> marbles did your opponent report drawing? ",
            "catchKey": -1,
            "catchResponse": -1,
            "catchTime": 1682371945545,
            "trialTime": 0
        },
        {
            "exptPart": "trial",
            "trialNumber": 95,
            "roleCurrent": "receiver",
            "marblesSampled": 100,
            "probRed": 0.5,
            "practiceLambda": 5,
            "trialLambda": 0.3,
            "instructedLambda": "honest",
            "sd": 8.1,
            "drawnRed": 58,
            "reportedRed": 67,
            "inferredRed": 55,
            "playerTrialScore": -3,
            "oppTrialScore": 0,
            "playerTotalScore": -1013,
            "oppTotalScore": 499,
            "waitTime": 6488.379760037328,
            "responseTime": 1682371996988,
            "catchQuestion": "How many <b class=\"r\">red<\/b> marbles did your opponent report drawing? ",
            "catchKey": -1,
            "catchResponse": -1,
            "catchTime": 1682371945545,
            "trialTime": 0
        },
        {
            "exptPart": "trial",
            "trialNumber": 96,
            "roleCurrent": "receiver",
            "marblesSampled": 100,
            "probRed": 0.5,
            "practiceLambda": 5,
            "trialLambda": 0.3,
            "instructedLambda": "honest",
            "sd": 8.1,
            "drawnRed": 21,
            "reportedRed": 31,
            "inferredRed": 40,
            "playerTrialScore": -19,
            "oppTrialScore": 19,
            "playerTotalScore": -1032,
            "oppTotalScore": 518,
            "waitTime": 7101.823535357472,
            "responseTime": 1682372007786,
            "catchQuestion": "How many <b class=\"r\">red<\/b> marbles did your opponent report drawing? ",
            "catchKey": -1,
            "catchResponse": -1,
            "catchTime": 1682371945545,
            "trialTime": 0
        },
        {
            "exptPart": "trial",
            "trialNumber": 97,
            "roleCurrent": "receiver",
            "marblesSampled": 100,
            "probRed": 0.5,
            "practiceLambda": 5,
            "trialLambda": 0.3,
            "instructedLambda": "honest",
            "sd": 8.1,
            "drawnRed": 52,
            "reportedRed": 44,
            "inferredRed": 40,
            "playerTrialScore": -12,
            "oppTrialScore": 0,
            "playerTotalScore": -1044,
            "oppTotalScore": 518,
            "waitTime": 5529.858806343136,
            "responseTime": 1682372017221,
            "catchQuestion": "How many <b class=\"r\">red<\/b> marbles did your opponent report drawing? ",
            "catchKey": -1,
            "catchResponse": -1,
            "catchTime": 1682371945545,
            "trialTime": 0
        },
        {
            "exptPart": "trial",
            "trialNumber": 98,
            "roleCurrent": "receiver",
            "marblesSampled": 100,
            "probRed": 0.5,
            "practiceLambda": 5,
            "trialLambda": 0.3,
            "instructedLambda": "honest",
            "sd": 8.1,
            "drawnRed": 81,
            "reportedRed": 91,
            "inferredRed": 80,
            "playerTrialScore": -1,
            "oppTrialScore": 0,
            "playerTotalScore": -1045,
            "oppTotalScore": 518,
            "waitTime": 6574.985985275817,
            "responseTime": 1682372028285,
            "catchQuestion": "How many <b class=\"r\">red<\/b> marbles did your opponent report drawing? ",
            "catchKey": -1,
            "catchResponse": -1,
            "catchTime": 1682371945545,
            "trialTime": 0
        },
        {
            "exptPart": "trial",
            "trialNumber": 99,
            "roleCurrent": "receiver",
            "marblesSampled": 100,
            "probRed": 0.5,
            "practiceLambda": 5,
            "trialLambda": 0.3,
            "instructedLambda": "honest",
            "sd": 8.1,
            "drawnRed": 41,
            "reportedRed": 43,
            "inferredRed": 40,
            "playerTrialScore": -1,
            "oppTrialScore": 0,
            "playerTotalScore": -1046,
            "oppTotalScore": 518,
            "waitTime": 5282.306128241512,
            "responseTime": 1682372036795,
            "catchQuestion": "How many <b class=\"r\">red<\/b> marbles did your opponent report drawing? ",
            "catchKey": -1,
            "catchResponse": -1,
            "catchTime": 1682371945545,
            "trialTime": 0
        },
        {
            "exptPart": "trial",
            "trialNumber": 100,
            "roleCurrent": "receiver",
            "marblesSampled": 100,
            "probRed": 0.5,
            "practiceLambda": 5,
            "trialLambda": 0.3,
            "instructedLambda": "honest",
            "sd": 8.1,
            "drawnRed": 51,
            "reportedRed": 45,
            "inferredRed": 40,
            "playerTrialScore": -11,
            "oppTrialScore": 0,
            "playerTotalScore": -1057,
            "oppTotalScore": 518,
            "waitTime": 6573.2521960568065,
            "responseTime": 1682372046340,
            "catchQuestion": "How many <b class=\"r\">red<\/b> marbles did your opponent report drawing? ",
            "catchKey": -1,
            "catchResponse": -1,
            "catchTime": 1682372046340,
            "trialTime": 0
        }
    ]
}