{
    "client": {
        "type": "sona",
        "experiment_id": 2228,
        "credit_token": "b315147ae43241ea9c65086cb510cfb7",
        "survey_code": "40453",
        "sid": "sona-40453",
        "window": {
            "width": 905,
            "height": 632
        },
        "screen": {
            "width": 1440,
            "height": 900
        },
        "userAgent": "Mozilla\/5.0 (Macintosh; Intel Mac OS X 10_15_7) AppleWebKit\/537.36 (KHTML, like Gecko) Chrome\/112.0.0.0 Safari\/537.36",
        "score": 0,
        "bonus": 0
    },
    "expt": {
        "saveURL": "submit.simple.php",
        "trials": 100,
        "practiceTrials": 2,
        "marblesSampled": 100,
        "probRed": 0.5,
        "practiceLambdaAI": 5,
        "lambdaAI": 21.9,
        "sd": 8.1,
        "roles": [
            "sender",
            "receiver"
        ],
        "cost": "unif",
        "goal": "over",
        "oppDishonesty": "dishonest_big",
        "catchTrials": [
            5,
            34,
            39,
            50,
            54,
            31,
            73,
            96,
            97,
            91
        ],
        "scoreTotal": {
            "player": -2429,
            "opp": 2167
        },
        "sona": {
            "experiment_id": 2228,
            "credit_token": "b315147ae43241ea9c65086cb510cfb7"
        },
        "pilot": false,
        "debug": false
    },
    "trials": [
        {
            "exptPart": "practice",
            "trialNumber": 1,
            "roleCurrent": "sender",
            "marblesSampled": 100,
            "probRed": 0.5,
            "practiceLambda": 5,
            "trialLambda": 21.9,
            "instructedLambda": "dishonest_big",
            "sd": 8.1,
            "drawnRed": 64,
            "reportedRed": 77,
            "inferredRed": 67,
            "playerTrialScore": 3,
            "oppTrialScore": -3,
            "playerTotalScore": 3,
            "oppTotalScore": -3,
            "waitTime": 2244.019369318987,
            "responseTime": 1682039744658,
            "catchQuestion": "How many <b class=\"r\">red<\/b> marbles did you actually draw (before any changes)? ",
            "catchKey": 64,
            "catchResponse": 77,
            "catchTime": 1682039744659,
            "trialTime": 0
        },
        {
            "exptPart": "practice",
            "trialNumber": 2,
            "roleCurrent": "receiver",
            "marblesSampled": 100,
            "probRed": 0.5,
            "practiceLambda": 5,
            "trialLambda": 21.9,
            "instructedLambda": "dishonest_big",
            "sd": 8.1,
            "drawnRed": 57,
            "reportedRed": 58,
            "inferredRed": 53,
            "playerTrialScore": -4,
            "oppTrialScore": 0,
            "playerTotalScore": -1,
            "oppTotalScore": -3,
            "waitTime": 5987.690355917175,
            "responseTime": 1682039868459,
            "catchQuestion": "How many <b class=\"r\">red<\/b> marbles did your opponent report drawing? ",
            "catchKey": 58,
            "catchResponse": 58,
            "catchTime": 1682039868459,
            "trialTime": 0
        },
        {
            "exptPart": "trial",
            "trialNumber": 1,
            "roleCurrent": "receiver",
            "marblesSampled": 100,
            "probRed": 0.5,
            "practiceLambda": 5,
            "trialLambda": 21.9,
            "instructedLambda": "dishonest_big",
            "sd": 8.1,
            "drawnRed": 43,
            "reportedRed": 69,
            "inferredRed": 68,
            "playerTrialScore": -25,
            "oppTrialScore": 25,
            "playerTotalScore": -25,
            "oppTotalScore": 25,
            "waitTime": 5304.284272557078,
            "responseTime": 1682039930559,
            "catchQuestion": "How many <b class=\"r\">red<\/b> marbles did your opponent report drawing? ",
            "catchKey": -1,
            "catchResponse": -1,
            "catchTime": 1682039868459,
            "trialTime": 0
        },
        {
            "exptPart": "trial",
            "trialNumber": 2,
            "roleCurrent": "receiver",
            "marblesSampled": 100,
            "probRed": 0.5,
            "practiceLambda": 5,
            "trialLambda": 21.9,
            "instructedLambda": "dishonest_big",
            "sd": 8.1,
            "drawnRed": 39,
            "reportedRed": 67,
            "inferredRed": 68,
            "playerTrialScore": -29,
            "oppTrialScore": 29,
            "playerTotalScore": -54,
            "oppTotalScore": 54,
            "waitTime": 6685.214413976256,
            "responseTime": 1682039943393,
            "catchQuestion": "How many <b class=\"r\">red<\/b> marbles did your opponent report drawing? ",
            "catchKey": -1,
            "catchResponse": -1,
            "catchTime": 1682039868459,
            "trialTime": 0
        },
        {
            "exptPart": "trial",
            "trialNumber": 3,
            "roleCurrent": "receiver",
            "marblesSampled": 100,
            "probRed": 0.5,
            "practiceLambda": 5,
            "trialLambda": 21.9,
            "instructedLambda": "dishonest_big",
            "sd": 8.1,
            "drawnRed": 30,
            "reportedRed": 49,
            "inferredRed": 50,
            "playerTrialScore": -20,
            "oppTrialScore": 20,
            "playerTotalScore": -74,
            "oppTotalScore": 74,
            "waitTime": 6669.461286346741,
            "responseTime": 1682039957341,
            "catchQuestion": "How many <b class=\"r\">red<\/b> marbles did your opponent report drawing? ",
            "catchKey": -1,
            "catchResponse": -1,
            "catchTime": 1682039868459,
            "trialTime": 0
        },
        {
            "exptPart": "trial",
            "trialNumber": 4,
            "roleCurrent": "receiver",
            "marblesSampled": 100,
            "probRed": 0.5,
            "practiceLambda": 5,
            "trialLambda": 21.9,
            "instructedLambda": "dishonest_big",
            "sd": 8.1,
            "drawnRed": 68,
            "reportedRed": 91,
            "inferredRed": 49,
            "playerTrialScore": -19,
            "oppTrialScore": 0,
            "playerTotalScore": -93,
            "oppTotalScore": 74,
            "waitTime": 5348.684604041048,
            "responseTime": 1682039975242,
            "catchQuestion": "How many <b class=\"r\">red<\/b> marbles did your opponent report drawing? ",
            "catchKey": -1,
            "catchResponse": -1,
            "catchTime": 1682039868459,
            "trialTime": 0
        },
        {
            "exptPart": "trial",
            "trialNumber": 5,
            "roleCurrent": "receiver",
            "marblesSampled": 100,
            "probRed": 0.5,
            "practiceLambda": 5,
            "trialLambda": 21.9,
            "instructedLambda": "dishonest_big",
            "sd": 8.1,
            "drawnRed": 14,
            "reportedRed": 32,
            "inferredRed": 77,
            "playerTrialScore": -63,
            "oppTrialScore": 63,
            "playerTotalScore": -156,
            "oppTotalScore": 137,
            "waitTime": 5598.49260113415,
            "responseTime": 1682039992809,
            "catchQuestion": "How many <b class=\"r\">red<\/b> marbles did your opponent report drawing? ",
            "catchKey": -1,
            "catchResponse": -1,
            "catchTime": 1682039868459,
            "trialTime": 0
        },
        {
            "exptPart": "trial",
            "trialNumber": 6,
            "roleCurrent": "receiver",
            "marblesSampled": 100,
            "probRed": 0.5,
            "practiceLambda": 5,
            "trialLambda": 21.9,
            "instructedLambda": "dishonest_big",
            "sd": 8.1,
            "drawnRed": 53,
            "reportedRed": 82,
            "inferredRed": 92,
            "playerTrialScore": -39,
            "oppTrialScore": 39,
            "playerTotalScore": -195,
            "oppTotalScore": 176,
            "waitTime": 6866.056461989022,
            "responseTime": 1682040022758,
            "catchQuestion": "How many <b class=\"r\">red<\/b> marbles did your opponent report drawing? ",
            "catchKey": 82,
            "catchResponse": 82,
            "catchTime": 1682040022758,
            "trialTime": 0
        },
        {
            "exptPart": "trial",
            "trialNumber": 7,
            "roleCurrent": "receiver",
            "marblesSampled": 100,
            "probRed": 0.5,
            "practiceLambda": 5,
            "trialLambda": 21.9,
            "instructedLambda": "dishonest_big",
            "sd": 8.1,
            "drawnRed": 19,
            "reportedRed": 37,
            "inferredRed": 30,
            "playerTrialScore": -11,
            "oppTrialScore": 11,
            "playerTotalScore": -206,
            "oppTotalScore": 187,
            "waitTime": 5417.561199838496,
            "responseTime": 1682040060426,
            "catchQuestion": "How many <b class=\"r\">red<\/b> marbles did your opponent report drawing? ",
            "catchKey": -1,
            "catchResponse": -1,
            "catchTime": 1682040022758,
            "trialTime": 0
        },
        {
            "exptPart": "trial",
            "trialNumber": 8,
            "roleCurrent": "receiver",
            "marblesSampled": 100,
            "probRed": 0.5,
            "practiceLambda": 5,
            "trialLambda": 21.9,
            "instructedLambda": "dishonest_big",
            "sd": 8.1,
            "drawnRed": 55,
            "reportedRed": 70,
            "inferredRed": 32,
            "playerTrialScore": -23,
            "oppTrialScore": 0,
            "playerTotalScore": -229,
            "oppTotalScore": 187,
            "waitTime": 5905.754230721679,
            "responseTime": 1682040073142,
            "catchQuestion": "How many <b class=\"r\">red<\/b> marbles did your opponent report drawing? ",
            "catchKey": -1,
            "catchResponse": -1,
            "catchTime": 1682040022758,
            "trialTime": 0
        },
        {
            "exptPart": "trial",
            "trialNumber": 9,
            "roleCurrent": "receiver",
            "marblesSampled": 100,
            "probRed": 0.5,
            "practiceLambda": 5,
            "trialLambda": 21.9,
            "instructedLambda": "dishonest_big",
            "sd": 8.1,
            "drawnRed": 18,
            "reportedRed": 36,
            "inferredRed": 70,
            "playerTrialScore": -52,
            "oppTrialScore": 52,
            "playerTotalScore": -281,
            "oppTotalScore": 239,
            "waitTime": 6527.86692290943,
            "responseTime": 1682040084475,
            "catchQuestion": "How many <b class=\"r\">red<\/b> marbles did your opponent report drawing? ",
            "catchKey": -1,
            "catchResponse": -1,
            "catchTime": 1682040022758,
            "trialTime": 0
        },
        {
            "exptPart": "trial",
            "trialNumber": 10,
            "roleCurrent": "receiver",
            "marblesSampled": 100,
            "probRed": 0.5,
            "practiceLambda": 5,
            "trialLambda": 21.9,
            "instructedLambda": "dishonest_big",
            "sd": 8.1,
            "drawnRed": 62,
            "reportedRed": 80,
            "inferredRed": 36,
            "playerTrialScore": -26,
            "oppTrialScore": 0,
            "playerTotalScore": -307,
            "oppTotalScore": 239,
            "waitTime": 6119.39394673284,
            "responseTime": 1682040095758,
            "catchQuestion": "How many <b class=\"r\">red<\/b> marbles did your opponent report drawing? ",
            "catchKey": -1,
            "catchResponse": -1,
            "catchTime": 1682040095758,
            "trialTime": 0
        },
        {
            "exptPart": "trial",
            "trialNumber": 11,
            "roleCurrent": "receiver",
            "marblesSampled": 100,
            "probRed": 0.5,
            "practiceLambda": 5,
            "trialLambda": 21.9,
            "instructedLambda": "dishonest_big",
            "sd": 8.1,
            "drawnRed": 37,
            "reportedRed": 40,
            "inferredRed": 39,
            "playerTrialScore": -2,
            "oppTrialScore": 2,
            "playerTotalScore": -309,
            "oppTotalScore": 241,
            "waitTime": 6138.436361172458,
            "responseTime": 1682040123268,
            "catchQuestion": "How many <b class=\"r\">red<\/b> marbles did your opponent report drawing? ",
            "catchKey": -1,
            "catchResponse": -1,
            "catchTime": 1682040095758,
            "trialTime": 0
        },
        {
            "exptPart": "trial",
            "trialNumber": 12,
            "roleCurrent": "receiver",
            "marblesSampled": 100,
            "probRed": 0.5,
            "practiceLambda": 5,
            "trialLambda": 21.9,
            "instructedLambda": "dishonest_big",
            "sd": 8.1,
            "drawnRed": 30,
            "reportedRed": 50,
            "inferredRed": 40,
            "playerTrialScore": -10,
            "oppTrialScore": 10,
            "playerTotalScore": -319,
            "oppTotalScore": 251,
            "waitTime": 7247.521997021872,
            "responseTime": 1682040146067,
            "catchQuestion": "How many <b class=\"r\">red<\/b> marbles did your opponent report drawing? ",
            "catchKey": -1,
            "catchResponse": -1,
            "catchTime": 1682040095758,
            "trialTime": 0
        },
        {
            "exptPart": "trial",
            "trialNumber": 13,
            "roleCurrent": "receiver",
            "marblesSampled": 100,
            "probRed": 0.5,
            "practiceLambda": 5,
            "trialLambda": 21.9,
            "instructedLambda": "dishonest_big",
            "sd": 8.1,
            "drawnRed": 67,
            "reportedRed": 82,
            "inferredRed": 50,
            "playerTrialScore": -17,
            "oppTrialScore": 0,
            "playerTotalScore": -336,
            "oppTotalScore": 251,
            "waitTime": 6529.027916464767,
            "responseTime": 1682040157248,
            "catchQuestion": "How many <b class=\"r\">red<\/b> marbles did your opponent report drawing? ",
            "catchKey": -1,
            "catchResponse": -1,
            "catchTime": 1682040095758,
            "trialTime": 0
        },
        {
            "exptPart": "trial",
            "trialNumber": 14,
            "roleCurrent": "receiver",
            "marblesSampled": 100,
            "probRed": 0.5,
            "practiceLambda": 5,
            "trialLambda": 21.9,
            "instructedLambda": "dishonest_big",
            "sd": 8.1,
            "drawnRed": 57,
            "reportedRed": 76,
            "inferredRed": 82,
            "playerTrialScore": -25,
            "oppTrialScore": 25,
            "playerTotalScore": -361,
            "oppTotalScore": 276,
            "waitTime": 5646.905051123518,
            "responseTime": 1682040166477,
            "catchQuestion": "How many <b class=\"r\">red<\/b> marbles did your opponent report drawing? ",
            "catchKey": -1,
            "catchResponse": -1,
            "catchTime": 1682040095758,
            "trialTime": 0
        },
        {
            "exptPart": "trial",
            "trialNumber": 15,
            "roleCurrent": "receiver",
            "marblesSampled": 100,
            "probRed": 0.5,
            "practiceLambda": 5,
            "trialLambda": 21.9,
            "instructedLambda": "dishonest_big",
            "sd": 8.1,
            "drawnRed": 32,
            "reportedRed": 58,
            "inferredRed": 82,
            "playerTrialScore": -50,
            "oppTrialScore": 50,
            "playerTotalScore": -411,
            "oppTotalScore": 326,
            "waitTime": 5965.52729390683,
            "responseTime": 1682040177017,
            "catchQuestion": "How many <b class=\"r\">red<\/b> marbles did your opponent report drawing? ",
            "catchKey": -1,
            "catchResponse": -1,
            "catchTime": 1682040095758,
            "trialTime": 0
        },
        {
            "exptPart": "trial",
            "trialNumber": 16,
            "roleCurrent": "receiver",
            "marblesSampled": 100,
            "probRed": 0.5,
            "practiceLambda": 5,
            "trialLambda": 21.9,
            "instructedLambda": "dishonest_big",
            "sd": 8.1,
            "drawnRed": 58,
            "reportedRed": 84,
            "inferredRed": 58,
            "playerTrialScore": 0,
            "oppTrialScore": 0,
            "playerTotalScore": -411,
            "oppTotalScore": 326,
            "waitTime": 7327.123208649462,
            "responseTime": 1682040188177,
            "catchQuestion": "How many <b class=\"r\">red<\/b> marbles did your opponent report drawing? ",
            "catchKey": -1,
            "catchResponse": -1,
            "catchTime": 1682040095758,
            "trialTime": 0
        },
        {
            "exptPart": "trial",
            "trialNumber": 17,
            "roleCurrent": "receiver",
            "marblesSampled": 100,
            "probRed": 0.5,
            "practiceLambda": 5,
            "trialLambda": 21.9,
            "instructedLambda": "dishonest_big",
            "sd": 8.1,
            "drawnRed": 71,
            "reportedRed": 87,
            "inferredRed": 84,
            "playerTrialScore": -13,
            "oppTrialScore": 13,
            "playerTotalScore": -424,
            "oppTotalScore": 339,
            "waitTime": 5961.888712443839,
            "responseTime": 1682040198488,
            "catchQuestion": "How many <b class=\"r\">red<\/b> marbles did your opponent report drawing? ",
            "catchKey": -1,
            "catchResponse": -1,
            "catchTime": 1682040095758,
            "trialTime": 0
        },
        {
            "exptPart": "trial",
            "trialNumber": 18,
            "roleCurrent": "receiver",
            "marblesSampled": 100,
            "probRed": 0.5,
            "practiceLambda": 5,
            "trialLambda": 21.9,
            "instructedLambda": "dishonest_big",
            "sd": 8.1,
            "drawnRed": 34,
            "reportedRed": 56,
            "inferredRed": 87,
            "playerTrialScore": -53,
            "oppTrialScore": 53,
            "playerTotalScore": -477,
            "oppTotalScore": 392,
            "waitTime": 5411.100169322009,
            "responseTime": 1682040207126,
            "catchQuestion": "How many <b class=\"r\">red<\/b> marbles did your opponent report drawing? ",
            "catchKey": -1,
            "catchResponse": -1,
            "catchTime": 1682040095758,
            "trialTime": 0
        },
        {
            "exptPart": "trial",
            "trialNumber": 19,
            "roleCurrent": "receiver",
            "marblesSampled": 100,
            "probRed": 0.5,
            "practiceLambda": 5,
            "trialLambda": 21.9,
            "instructedLambda": "dishonest_big",
            "sd": 8.1,
            "drawnRed": 41,
            "reportedRed": 71,
            "inferredRed": 56,
            "playerTrialScore": -15,
            "oppTrialScore": 15,
            "playerTotalScore": -492,
            "oppTotalScore": 407,
            "waitTime": 7041.34420142318,
            "responseTime": 1682040218375,
            "catchQuestion": "How many <b class=\"r\">red<\/b> marbles did your opponent report drawing? ",
            "catchKey": -1,
            "catchResponse": -1,
            "catchTime": 1682040095758,
            "trialTime": 0
        },
        {
            "exptPart": "trial",
            "trialNumber": 20,
            "roleCurrent": "receiver",
            "marblesSampled": 100,
            "probRed": 0.5,
            "practiceLambda": 5,
            "trialLambda": 21.9,
            "instructedLambda": "dishonest_big",
            "sd": 8.1,
            "drawnRed": 36,
            "reportedRed": 57,
            "inferredRed": 71,
            "playerTrialScore": -35,
            "oppTrialScore": 35,
            "playerTotalScore": -527,
            "oppTotalScore": 442,
            "waitTime": 5606.838839651715,
            "responseTime": 1682040227994,
            "catchQuestion": "How many <b class=\"r\">red<\/b> marbles did your opponent report drawing? ",
            "catchKey": -1,
            "catchResponse": -1,
            "catchTime": 1682040227994,
            "trialTime": 0
        },
        {
            "exptPart": "trial",
            "trialNumber": 21,
            "roleCurrent": "receiver",
            "marblesSampled": 100,
            "probRed": 0.5,
            "practiceLambda": 5,
            "trialLambda": 21.9,
            "instructedLambda": "dishonest_big",
            "sd": 8.1,
            "drawnRed": 58,
            "reportedRed": 74,
            "inferredRed": 54,
            "playerTrialScore": -4,
            "oppTrialScore": 0,
            "playerTotalScore": -531,
            "oppTotalScore": 442,
            "waitTime": 5934.150836974115,
            "responseTime": 1682040380557,
            "catchQuestion": "How many <b class=\"r\">red<\/b> marbles did your opponent report drawing? ",
            "catchKey": -1,
            "catchResponse": -1,
            "catchTime": 1682040227994,
            "trialTime": 0
        },
        {
            "exptPart": "trial",
            "trialNumber": 22,
            "roleCurrent": "receiver",
            "marblesSampled": 100,
            "probRed": 0.5,
            "practiceLambda": 5,
            "trialLambda": 21.9,
            "instructedLambda": "dishonest_big",
            "sd": 8.1,
            "drawnRed": 41,
            "reportedRed": 71,
            "inferredRed": 74,
            "playerTrialScore": -33,
            "oppTrialScore": 33,
            "playerTotalScore": -564,
            "oppTotalScore": 475,
            "waitTime": 5982.098071071738,
            "responseTime": 1682040405156,
            "catchQuestion": "How many <b class=\"r\">red<\/b> marbles did your opponent report drawing? ",
            "catchKey": -1,
            "catchResponse": -1,
            "catchTime": 1682040227994,
            "trialTime": 0
        },
        {
            "exptPart": "trial",
            "trialNumber": 23,
            "roleCurrent": "receiver",
            "marblesSampled": 100,
            "probRed": 0.5,
            "practiceLambda": 5,
            "trialLambda": 21.9,
            "instructedLambda": "dishonest_big",
            "sd": 8.1,
            "drawnRed": 86,
            "reportedRed": 100,
            "inferredRed": 71,
            "playerTrialScore": -15,
            "oppTrialScore": 0,
            "playerTotalScore": -579,
            "oppTotalScore": 475,
            "waitTime": 5825.872889127095,
            "responseTime": 1682040422107,
            "catchQuestion": "How many <b class=\"r\">red<\/b> marbles did your opponent report drawing? ",
            "catchKey": -1,
            "catchResponse": -1,
            "catchTime": 1682040227994,
            "trialTime": 0
        },
        {
            "exptPart": "trial",
            "trialNumber": 24,
            "roleCurrent": "receiver",
            "marblesSampled": 100,
            "probRed": 0.5,
            "practiceLambda": 5,
            "trialLambda": 21.9,
            "instructedLambda": "dishonest_big",
            "sd": 8.1,
            "drawnRed": 61,
            "reportedRed": 74,
            "inferredRed": 100,
            "playerTrialScore": -39,
            "oppTrialScore": 39,
            "playerTotalScore": -618,
            "oppTotalScore": 514,
            "waitTime": 7472.037451755595,
            "responseTime": 1682040438306,
            "catchQuestion": "How many <b class=\"r\">red<\/b> marbles did your opponent report drawing? ",
            "catchKey": -1,
            "catchResponse": -1,
            "catchTime": 1682040227994,
            "trialTime": 0
        },
        {
            "exptPart": "trial",
            "trialNumber": 25,
            "roleCurrent": "receiver",
            "marblesSampled": 100,
            "probRed": 0.5,
            "practiceLambda": 5,
            "trialLambda": 21.9,
            "instructedLambda": "dishonest_big",
            "sd": 8.1,
            "drawnRed": 49,
            "reportedRed": 78,
            "inferredRed": 74,
            "playerTrialScore": -25,
            "oppTrialScore": 25,
            "playerTotalScore": -643,
            "oppTotalScore": 539,
            "waitTime": 5780.866373582352,
            "responseTime": 1682040448939,
            "catchQuestion": "How many <b class=\"r\">red<\/b> marbles did your opponent report drawing? ",
            "catchKey": -1,
            "catchResponse": -1,
            "catchTime": 1682040227994,
            "trialTime": 0
        },
        {
            "exptPart": "trial",
            "trialNumber": 26,
            "roleCurrent": "receiver",
            "marblesSampled": 100,
            "probRed": 0.5,
            "practiceLambda": 5,
            "trialLambda": 21.9,
            "instructedLambda": "dishonest_big",
            "sd": 8.1,
            "drawnRed": 79,
            "reportedRed": 93,
            "inferredRed": 78,
            "playerTrialScore": -1,
            "oppTrialScore": 0,
            "playerTotalScore": -644,
            "oppTotalScore": 539,
            "waitTime": 6552.811067976203,
            "responseTime": 1682040458122,
            "catchQuestion": "How many <b class=\"r\">red<\/b> marbles did your opponent report drawing? ",
            "catchKey": -1,
            "catchResponse": -1,
            "catchTime": 1682040227994,
            "trialTime": 0
        },
        {
            "exptPart": "trial",
            "trialNumber": 27,
            "roleCurrent": "receiver",
            "marblesSampled": 100,
            "probRed": 0.5,
            "practiceLambda": 5,
            "trialLambda": 21.9,
            "instructedLambda": "dishonest_big",
            "sd": 8.1,
            "drawnRed": 31,
            "reportedRed": 62,
            "inferredRed": 93,
            "playerTrialScore": -62,
            "oppTrialScore": 62,
            "playerTotalScore": -706,
            "oppTotalScore": 601,
            "waitTime": 6250.089190102084,
            "responseTime": 1682040467638,
            "catchQuestion": "How many <b class=\"r\">red<\/b> marbles did your opponent report drawing? ",
            "catchKey": -1,
            "catchResponse": -1,
            "catchTime": 1682040227994,
            "trialTime": 0
        },
        {
            "exptPart": "trial",
            "trialNumber": 28,
            "roleCurrent": "receiver",
            "marblesSampled": 100,
            "probRed": 0.5,
            "practiceLambda": 5,
            "trialLambda": 21.9,
            "instructedLambda": "dishonest_big",
            "sd": 8.1,
            "drawnRed": 43,
            "reportedRed": 59,
            "inferredRed": 62,
            "playerTrialScore": -19,
            "oppTrialScore": 19,
            "playerTotalScore": -725,
            "oppTotalScore": 620,
            "waitTime": 6571.788031693739,
            "responseTime": 1682040476989,
            "catchQuestion": "How many <b class=\"r\">red<\/b> marbles did your opponent report drawing? ",
            "catchKey": -1,
            "catchResponse": -1,
            "catchTime": 1682040227994,
            "trialTime": 0
        },
        {
            "exptPart": "trial",
            "trialNumber": 29,
            "roleCurrent": "receiver",
            "marblesSampled": 100,
            "probRed": 0.5,
            "practiceLambda": 5,
            "trialLambda": 21.9,
            "instructedLambda": "dishonest_big",
            "sd": 8.1,
            "drawnRed": 23,
            "reportedRed": 39,
            "inferredRed": 59,
            "playerTrialScore": -36,
            "oppTrialScore": 36,
            "playerTotalScore": -761,
            "oppTotalScore": 656,
            "waitTime": 5488.85790422689,
            "responseTime": 1682040485089,
            "catchQuestion": "How many <b class=\"r\">red<\/b> marbles did your opponent report drawing? ",
            "catchKey": -1,
            "catchResponse": -1,
            "catchTime": 1682040227994,
            "trialTime": 0
        },
        {
            "exptPart": "trial",
            "trialNumber": 30,
            "roleCurrent": "receiver",
            "marblesSampled": 100,
            "probRed": 0.5,
            "practiceLambda": 5,
            "trialLambda": 21.9,
            "instructedLambda": "dishonest_big",
            "sd": 8.1,
            "drawnRed": 54,
            "reportedRed": 86,
            "inferredRed": 59,
            "playerTrialScore": -5,
            "oppTrialScore": 5,
            "playerTotalScore": -766,
            "oppTotalScore": 661,
            "waitTime": 5585.005632266507,
            "responseTime": 1682040509922,
            "catchQuestion": "How many <b class=\"r\">red<\/b> marbles did your opponent report drawing? ",
            "catchKey": -1,
            "catchResponse": -1,
            "catchTime": 1682040509922,
            "trialTime": 0
        },
        {
            "exptPart": "trial",
            "trialNumber": 31,
            "roleCurrent": "receiver",
            "marblesSampled": 100,
            "probRed": 0.5,
            "practiceLambda": 5,
            "trialLambda": 21.9,
            "instructedLambda": "dishonest_big",
            "sd": 8.1,
            "drawnRed": 42,
            "reportedRed": 59,
            "inferredRed": 67,
            "playerTrialScore": -25,
            "oppTrialScore": 25,
            "playerTotalScore": -791,
            "oppTotalScore": 686,
            "waitTime": 6400.8952305358,
            "responseTime": 1682040799621,
            "catchQuestion": "How many <b class=\"r\">red<\/b> marbles did your opponent report drawing? ",
            "catchKey": -1,
            "catchResponse": -1,
            "catchTime": 1682040509922,
            "trialTime": 0
        },
        {
            "exptPart": "trial",
            "trialNumber": 32,
            "roleCurrent": "receiver",
            "marblesSampled": 100,
            "probRed": 0.5,
            "practiceLambda": 5,
            "trialLambda": 21.9,
            "instructedLambda": "dishonest_big",
            "sd": 8.1,
            "drawnRed": 60,
            "reportedRed": 100,
            "inferredRed": 59,
            "playerTrialScore": -1,
            "oppTrialScore": 0,
            "playerTotalScore": -792,
            "oppTotalScore": 686,
            "waitTime": 5253.560766280128,
            "responseTime": 1682040807523,
            "catchQuestion": "How many <b class=\"r\">red<\/b> marbles did your opponent report drawing? ",
            "catchKey": 100,
            "catchResponse": 67,
            "catchTime": 1682040807523,
            "trialTime": 0
        },
        {
            "exptPart": "trial",
            "trialNumber": 33,
            "roleCurrent": "receiver",
            "marblesSampled": 100,
            "probRed": 0.5,
            "practiceLambda": 5,
            "trialLambda": 21.9,
            "instructedLambda": "dishonest_big",
            "sd": 8.1,
            "drawnRed": 55,
            "reportedRed": 80,
            "inferredRed": 57,
            "playerTrialScore": -2,
            "oppTrialScore": 2,
            "playerTotalScore": -794,
            "oppTotalScore": 688,
            "waitTime": 6704.372022922045,
            "responseTime": 1682040832086,
            "catchQuestion": "How many <b class=\"r\">red<\/b> marbles did your opponent report drawing? ",
            "catchKey": -1,
            "catchResponse": -1,
            "catchTime": 1682040807523,
            "trialTime": 0
        },
        {
            "exptPart": "trial",
            "trialNumber": 34,
            "roleCurrent": "receiver",
            "marblesSampled": 100,
            "probRed": 0.5,
            "practiceLambda": 5,
            "trialLambda": 21.9,
            "instructedLambda": "dishonest_big",
            "sd": 8.1,
            "drawnRed": 76,
            "reportedRed": 87,
            "inferredRed": 80,
            "playerTrialScore": -4,
            "oppTrialScore": 4,
            "playerTotalScore": -798,
            "oppTotalScore": 692,
            "waitTime": 5202.174738987172,
            "responseTime": 1682040841169,
            "catchQuestion": "How many <b class=\"r\">red<\/b> marbles did your opponent report drawing? ",
            "catchKey": -1,
            "catchResponse": -1,
            "catchTime": 1682040807523,
            "trialTime": 0
        },
        {
            "exptPart": "trial",
            "trialNumber": 35,
            "roleCurrent": "receiver",
            "marblesSampled": 100,
            "probRed": 0.5,
            "practiceLambda": 5,
            "trialLambda": 21.9,
            "instructedLambda": "dishonest_big",
            "sd": 8.1,
            "drawnRed": 39,
            "reportedRed": 75,
            "inferredRed": 87,
            "playerTrialScore": -48,
            "oppTrialScore": 48,
            "playerTotalScore": -846,
            "oppTotalScore": 740,
            "waitTime": 5894.055664881822,
            "responseTime": 1682040849570,
            "catchQuestion": "How many <b class=\"r\">red<\/b> marbles did your opponent report drawing? ",
            "catchKey": 75,
            "catchResponse": 75,
            "catchTime": 1682040849570,
            "trialTime": 0
        },
        {
            "exptPart": "trial",
            "trialNumber": 36,
            "roleCurrent": "receiver",
            "marblesSampled": 100,
            "probRed": 0.5,
            "practiceLambda": 5,
            "trialLambda": 21.9,
            "instructedLambda": "dishonest_big",
            "sd": 8.1,
            "drawnRed": 75,
            "reportedRed": 93,
            "inferredRed": 75,
            "playerTrialScore": 0,
            "oppTrialScore": 0,
            "playerTotalScore": -846,
            "oppTotalScore": 740,
            "waitTime": 5502.344385323935,
            "responseTime": 1682040868918,
            "catchQuestion": "How many <b class=\"r\">red<\/b> marbles did your opponent report drawing? ",
            "catchKey": -1,
            "catchResponse": -1,
            "catchTime": 1682040849570,
            "trialTime": 0
        },
        {
            "exptPart": "trial",
            "trialNumber": 37,
            "roleCurrent": "receiver",
            "marblesSampled": 100,
            "probRed": 0.5,
            "practiceLambda": 5,
            "trialLambda": 21.9,
            "instructedLambda": "dishonest_big",
            "sd": 8.1,
            "drawnRed": 54,
            "reportedRed": 67,
            "inferredRed": 93,
            "playerTrialScore": -39,
            "oppTrialScore": 39,
            "playerTotalScore": -885,
            "oppTotalScore": 779,
            "waitTime": 6822.8652197511965,
            "responseTime": 1682040878987,
            "catchQuestion": "How many <b class=\"r\">red<\/b> marbles did your opponent report drawing? ",
            "catchKey": -1,
            "catchResponse": -1,
            "catchTime": 1682040849570,
            "trialTime": 0
        },
        {
            "exptPart": "trial",
            "trialNumber": 38,
            "roleCurrent": "receiver",
            "marblesSampled": 100,
            "probRed": 0.5,
            "practiceLambda": 5,
            "trialLambda": 21.9,
            "instructedLambda": "dishonest_big",
            "sd": 8.1,
            "drawnRed": 57,
            "reportedRed": 82,
            "inferredRed": 67,
            "playerTrialScore": -10,
            "oppTrialScore": 10,
            "playerTotalScore": -895,
            "oppTotalScore": 789,
            "waitTime": 5206.064792068126,
            "responseTime": 1682040886867,
            "catchQuestion": "How many <b class=\"r\">red<\/b> marbles did your opponent report drawing? ",
            "catchKey": -1,
            "catchResponse": -1,
            "catchTime": 1682040849570,
            "trialTime": 0
        },
        {
            "exptPart": "trial",
            "trialNumber": 39,
            "roleCurrent": "receiver",
            "marblesSampled": 100,
            "probRed": 0.5,
            "practiceLambda": 5,
            "trialLambda": 21.9,
            "instructedLambda": "dishonest_big",
            "sd": 8.1,
            "drawnRed": 7,
            "reportedRed": 20,
            "inferredRed": 82,
            "playerTrialScore": -75,
            "oppTrialScore": 75,
            "playerTotalScore": -970,
            "oppTotalScore": 864,
            "waitTime": 6694.876050446725,
            "responseTime": 1682040896419,
            "catchQuestion": "How many <b class=\"r\">red<\/b> marbles did your opponent report drawing? ",
            "catchKey": -1,
            "catchResponse": -1,
            "catchTime": 1682040849570,
            "trialTime": 0
        },
        {
            "exptPart": "trial",
            "trialNumber": 40,
            "roleCurrent": "receiver",
            "marblesSampled": 100,
            "probRed": 0.5,
            "practiceLambda": 5,
            "trialLambda": 21.9,
            "instructedLambda": "dishonest_big",
            "sd": 8.1,
            "drawnRed": 43,
            "reportedRed": 60,
            "inferredRed": 20,
            "playerTrialScore": -23,
            "oppTrialScore": 0,
            "playerTotalScore": -993,
            "oppTotalScore": 864,
            "waitTime": 6284.498483832849,
            "responseTime": 1682040905751,
            "catchQuestion": "How many <b class=\"r\">red<\/b> marbles did your opponent report drawing? ",
            "catchKey": 60,
            "catchResponse": 60,
            "catchTime": 1682040905751,
            "trialTime": 0
        },
        {
            "exptPart": "trial",
            "trialNumber": 41,
            "roleCurrent": "receiver",
            "marblesSampled": 100,
            "probRed": 0.5,
            "practiceLambda": 5,
            "trialLambda": 21.9,
            "instructedLambda": "dishonest_big",
            "sd": 8.1,
            "drawnRed": 73,
            "reportedRed": 88,
            "inferredRed": 97,
            "playerTrialScore": -24,
            "oppTrialScore": 24,
            "playerTotalScore": -1017,
            "oppTotalScore": 888,
            "waitTime": 5371.861656492857,
            "responseTime": 1682041009250,
            "catchQuestion": "How many <b class=\"r\">red<\/b> marbles did your opponent report drawing? ",
            "catchKey": -1,
            "catchResponse": -1,
            "catchTime": 1682040905751,
            "trialTime": 0
        },
        {
            "exptPart": "trial",
            "trialNumber": 42,
            "roleCurrent": "receiver",
            "marblesSampled": 100,
            "probRed": 0.5,
            "practiceLambda": 5,
            "trialLambda": 21.9,
            "instructedLambda": "dishonest_big",
            "sd": 8.1,
            "drawnRed": 57,
            "reportedRed": 67,
            "inferredRed": 88,
            "playerTrialScore": -31,
            "oppTrialScore": 31,
            "playerTotalScore": -1048,
            "oppTotalScore": 919,
            "waitTime": 6309.875611245414,
            "responseTime": 1682041018900,
            "catchQuestion": "How many <b class=\"r\">red<\/b> marbles did your opponent report drawing? ",
            "catchKey": -1,
            "catchResponse": -1,
            "catchTime": 1682040905751,
            "trialTime": 0
        },
        {
            "exptPart": "trial",
            "trialNumber": 43,
            "roleCurrent": "receiver",
            "marblesSampled": 100,
            "probRed": 0.5,
            "practiceLambda": 5,
            "trialLambda": 21.9,
            "instructedLambda": "dishonest_big",
            "sd": 8.1,
            "drawnRed": 14,
            "reportedRed": 38,
            "inferredRed": 67,
            "playerTrialScore": -53,
            "oppTrialScore": 53,
            "playerTotalScore": -1101,
            "oppTotalScore": 972,
            "waitTime": 7181.052015110817,
            "responseTime": 1682041029366,
            "catchQuestion": "How many <b class=\"r\">red<\/b> marbles did your opponent report drawing? ",
            "catchKey": -1,
            "catchResponse": -1,
            "catchTime": 1682040905751,
            "trialTime": 0
        },
        {
            "exptPart": "trial",
            "trialNumber": 44,
            "roleCurrent": "receiver",
            "marblesSampled": 100,
            "probRed": 0.5,
            "practiceLambda": 5,
            "trialLambda": 21.9,
            "instructedLambda": "dishonest_big",
            "sd": 8.1,
            "drawnRed": 36,
            "reportedRed": 58,
            "inferredRed": 38,
            "playerTrialScore": -2,
            "oppTrialScore": 2,
            "playerTotalScore": -1103,
            "oppTotalScore": 974,
            "waitTime": 5327.450866941376,
            "responseTime": 1682041037233,
            "catchQuestion": "How many <b class=\"r\">red<\/b> marbles did your opponent report drawing? ",
            "catchKey": -1,
            "catchResponse": -1,
            "catchTime": 1682040905751,
            "trialTime": 0
        },
        {
            "exptPart": "trial",
            "trialNumber": 45,
            "roleCurrent": "receiver",
            "marblesSampled": 100,
            "probRed": 0.5,
            "practiceLambda": 5,
            "trialLambda": 21.9,
            "instructedLambda": "dishonest_big",
            "sd": 8.1,
            "drawnRed": 52,
            "reportedRed": 71,
            "inferredRed": 58,
            "playerTrialScore": -6,
            "oppTrialScore": 6,
            "playerTotalScore": -1109,
            "oppTotalScore": 980,
            "waitTime": 7141.8409146427775,
            "responseTime": 1682041046833,
            "catchQuestion": "How many <b class=\"r\">red<\/b> marbles did your opponent report drawing? ",
            "catchKey": -1,
            "catchResponse": -1,
            "catchTime": 1682040905751,
            "trialTime": 0
        },
        {
            "exptPart": "trial",
            "trialNumber": 46,
            "roleCurrent": "receiver",
            "marblesSampled": 100,
            "probRed": 0.5,
            "practiceLambda": 5,
            "trialLambda": 21.9,
            "instructedLambda": "dishonest_big",
            "sd": 8.1,
            "drawnRed": 42,
            "reportedRed": 77,
            "inferredRed": 71,
            "playerTrialScore": -29,
            "oppTrialScore": 29,
            "playerTotalScore": -1138,
            "oppTotalScore": 1009,
            "waitTime": 5219.923371276576,
            "responseTime": 1682041055933,
            "catchQuestion": "How many <b class=\"r\">red<\/b> marbles did your opponent report drawing? ",
            "catchKey": -1,
            "catchResponse": -1,
            "catchTime": 1682040905751,
            "trialTime": 0
        },
        {
            "exptPart": "trial",
            "trialNumber": 47,
            "roleCurrent": "receiver",
            "marblesSampled": 100,
            "probRed": 0.5,
            "practiceLambda": 5,
            "trialLambda": 21.9,
            "instructedLambda": "dishonest_big",
            "sd": 8.1,
            "drawnRed": 54,
            "reportedRed": 77,
            "inferredRed": 77,
            "playerTrialScore": -23,
            "oppTrialScore": 23,
            "playerTotalScore": -1161,
            "oppTotalScore": 1032,
            "waitTime": 5596.914545538164,
            "responseTime": 1682041065800,
            "catchQuestion": "How many <b class=\"r\">red<\/b> marbles did your opponent report drawing? ",
            "catchKey": -1,
            "catchResponse": -1,
            "catchTime": 1682040905751,
            "trialTime": 0
        },
        {
            "exptPart": "trial",
            "trialNumber": 48,
            "roleCurrent": "receiver",
            "marblesSampled": 100,
            "probRed": 0.5,
            "practiceLambda": 5,
            "trialLambda": 21.9,
            "instructedLambda": "dishonest_big",
            "sd": 8.1,
            "drawnRed": 56,
            "reportedRed": 83,
            "inferredRed": 77,
            "playerTrialScore": -21,
            "oppTrialScore": 21,
            "playerTotalScore": -1182,
            "oppTotalScore": 1053,
            "waitTime": 6388.593231124905,
            "responseTime": 1682041090600,
            "catchQuestion": "How many <b class=\"r\">red<\/b> marbles did your opponent report drawing? ",
            "catchKey": -1,
            "catchResponse": -1,
            "catchTime": 1682040905751,
            "trialTime": 0
        },
        {
            "exptPart": "trial",
            "trialNumber": 49,
            "roleCurrent": "receiver",
            "marblesSampled": 100,
            "probRed": 0.5,
            "practiceLambda": 5,
            "trialLambda": 21.9,
            "instructedLambda": "dishonest_big",
            "sd": 8.1,
            "drawnRed": 11,
            "reportedRed": 39,
            "inferredRed": 83,
            "playerTrialScore": -72,
            "oppTrialScore": 72,
            "playerTotalScore": -1254,
            "oppTotalScore": 1125,
            "waitTime": 5394.454459840958,
            "responseTime": 1682041101566,
            "catchQuestion": "How many <b class=\"r\">red<\/b> marbles did your opponent report drawing? ",
            "catchKey": -1,
            "catchResponse": -1,
            "catchTime": 1682040905751,
            "trialTime": 0
        },
        {
            "exptPart": "trial",
            "trialNumber": 50,
            "roleCurrent": "receiver",
            "marblesSampled": 100,
            "probRed": 0.5,
            "practiceLambda": 5,
            "trialLambda": 21.9,
            "instructedLambda": "dishonest_big",
            "sd": 8.1,
            "drawnRed": 2,
            "reportedRed": 10,
            "inferredRed": 39,
            "playerTrialScore": -37,
            "oppTrialScore": 37,
            "playerTotalScore": -1291,
            "oppTotalScore": 1162,
            "waitTime": 6815.1921244393625,
            "responseTime": 1682041114932,
            "catchQuestion": "How many <b class=\"r\">red<\/b> marbles did your opponent report drawing? ",
            "catchKey": -1,
            "catchResponse": -1,
            "catchTime": 1682041114932,
            "trialTime": 0
        },
        {
            "exptPart": "trial",
            "trialNumber": 51,
            "roleCurrent": "receiver",
            "marblesSampled": 100,
            "probRed": 0.5,
            "practiceLambda": 5,
            "trialLambda": 21.9,
            "instructedLambda": "dishonest_big",
            "sd": 8.1,
            "drawnRed": 27,
            "reportedRed": 49,
            "inferredRed": 10,
            "playerTrialScore": -17,
            "oppTrialScore": 0,
            "playerTotalScore": -1308,
            "oppTotalScore": 1162,
            "waitTime": 6326.143019269277,
            "responseTime": 1682041159148,
            "catchQuestion": "How many <b class=\"r\">red<\/b> marbles did your opponent report drawing? ",
            "catchKey": 49,
            "catchResponse": 49,
            "catchTime": 1682041159148,
            "trialTime": 0
        },
        {
            "exptPart": "trial",
            "trialNumber": 52,
            "roleCurrent": "receiver",
            "marblesSampled": 100,
            "probRed": 0.5,
            "practiceLambda": 5,
            "trialLambda": 21.9,
            "instructedLambda": "dishonest_big",
            "sd": 8.1,
            "drawnRed": 25,
            "reportedRed": 37,
            "inferredRed": 49,
            "playerTrialScore": -24,
            "oppTrialScore": 24,
            "playerTotalScore": -1332,
            "oppTotalScore": 1186,
            "waitTime": 5497.787164085623,
            "responseTime": 1682041175349,
            "catchQuestion": "How many <b class=\"r\">red<\/b> marbles did your opponent report drawing? ",
            "catchKey": -1,
            "catchResponse": -1,
            "catchTime": 1682041159148,
            "trialTime": 0
        },
        {
            "exptPart": "trial",
            "trialNumber": 53,
            "roleCurrent": "receiver",
            "marblesSampled": 100,
            "probRed": 0.5,
            "practiceLambda": 5,
            "trialLambda": 21.9,
            "instructedLambda": "dishonest_big",
            "sd": 8.1,
            "drawnRed": 66,
            "reportedRed": 81,
            "inferredRed": 37,
            "playerTrialScore": -29,
            "oppTrialScore": 0,
            "playerTotalScore": -1361,
            "oppTotalScore": 1186,
            "waitTime": 5996.9230937982875,
            "responseTime": 1682041184931,
            "catchQuestion": "How many <b class=\"r\">red<\/b> marbles did your opponent report drawing? ",
            "catchKey": -1,
            "catchResponse": -1,
            "catchTime": 1682041159148,
            "trialTime": 0
        },
        {
            "exptPart": "trial",
            "trialNumber": 54,
            "roleCurrent": "receiver",
            "marblesSampled": 100,
            "probRed": 0.5,
            "practiceLambda": 5,
            "trialLambda": 21.9,
            "instructedLambda": "dishonest_big",
            "sd": 8.1,
            "drawnRed": 58,
            "reportedRed": 69,
            "inferredRed": 81,
            "playerTrialScore": -23,
            "oppTrialScore": 23,
            "playerTotalScore": -1384,
            "oppTotalScore": 1209,
            "waitTime": 6377.036208642061,
            "responseTime": 1682041193633,
            "catchQuestion": "How many <b class=\"r\">red<\/b> marbles did your opponent report drawing? ",
            "catchKey": -1,
            "catchResponse": -1,
            "catchTime": 1682041159148,
            "trialTime": 0
        },
        {
            "exptPart": "trial",
            "trialNumber": 55,
            "roleCurrent": "receiver",
            "marblesSampled": 100,
            "probRed": 0.5,
            "practiceLambda": 5,
            "trialLambda": 21.9,
            "instructedLambda": "dishonest_big",
            "sd": 8.1,
            "drawnRed": 34,
            "reportedRed": 41,
            "inferredRed": 69,
            "playerTrialScore": -35,
            "oppTrialScore": 35,
            "playerTotalScore": -1419,
            "oppTotalScore": 1244,
            "waitTime": 6164.238234479686,
            "responseTime": 1682041202498,
            "catchQuestion": "How many <b class=\"r\">red<\/b> marbles did your opponent report drawing? ",
            "catchKey": 41,
            "catchResponse": 41,
            "catchTime": 1682041202498,
            "trialTime": 0
        },
        {
            "exptPart": "trial",
            "trialNumber": 56,
            "roleCurrent": "receiver",
            "marblesSampled": 100,
            "probRed": 0.5,
            "practiceLambda": 5,
            "trialLambda": 21.9,
            "instructedLambda": "dishonest_big",
            "sd": 8.1,
            "drawnRed": 34,
            "reportedRed": 51,
            "inferredRed": 49,
            "playerTrialScore": -15,
            "oppTrialScore": 15,
            "playerTotalScore": -1434,
            "oppTotalScore": 1259,
            "waitTime": 6081.32159385824,
            "responseTime": 1682041228232,
            "catchQuestion": "How many <b class=\"r\">red<\/b> marbles did your opponent report drawing? ",
            "catchKey": -1,
            "catchResponse": -1,
            "catchTime": 1682041202498,
            "trialTime": 0
        },
        {
            "exptPart": "trial",
            "trialNumber": 57,
            "roleCurrent": "receiver",
            "marblesSampled": 100,
            "probRed": 0.5,
            "practiceLambda": 5,
            "trialLambda": 21.9,
            "instructedLambda": "dishonest_big",
            "sd": 8.1,
            "drawnRed": 69,
            "reportedRed": 95,
            "inferredRed": 87,
            "playerTrialScore": -18,
            "oppTrialScore": 18,
            "playerTotalScore": -1452,
            "oppTotalScore": 1277,
            "waitTime": 5549.148843118538,
            "responseTime": 1682041238347,
            "catchQuestion": "How many <b class=\"r\">red<\/b> marbles did your opponent report drawing? ",
            "catchKey": -1,
            "catchResponse": -1,
            "catchTime": 1682041202498,
            "trialTime": 0
        },
        {
            "exptPart": "trial",
            "trialNumber": 58,
            "roleCurrent": "receiver",
            "marblesSampled": 100,
            "probRed": 0.5,
            "practiceLambda": 5,
            "trialLambda": 21.9,
            "instructedLambda": "dishonest_big",
            "sd": 8.1,
            "drawnRed": 72,
            "reportedRed": 93,
            "inferredRed": 89,
            "playerTrialScore": -17,
            "oppTrialScore": 17,
            "playerTotalScore": -1469,
            "oppTotalScore": 1294,
            "waitTime": 5748.040068706732,
            "responseTime": 1682041248098,
            "catchQuestion": "How many <b class=\"r\">red<\/b> marbles did your opponent report drawing? ",
            "catchKey": -1,
            "catchResponse": -1,
            "catchTime": 1682041202498,
            "trialTime": 0
        },
        {
            "exptPart": "trial",
            "trialNumber": 59,
            "roleCurrent": "receiver",
            "marblesSampled": 100,
            "probRed": 0.5,
            "practiceLambda": 5,
            "trialLambda": 21.9,
            "instructedLambda": "dishonest_big",
            "sd": 8.1,
            "drawnRed": 15,
            "reportedRed": 29,
            "inferredRed": 23,
            "playerTrialScore": -8,
            "oppTrialScore": 8,
            "playerTotalScore": -1477,
            "oppTotalScore": 1302,
            "waitTime": 6949.319769562288,
            "responseTime": 1682041265132,
            "catchQuestion": "How many <b class=\"r\">red<\/b> marbles did your opponent report drawing? ",
            "catchKey": -1,
            "catchResponse": -1,
            "catchTime": 1682041202498,
            "trialTime": 0
        },
        {
            "exptPart": "trial",
            "trialNumber": 60,
            "roleCurrent": "receiver",
            "marblesSampled": 100,
            "probRed": 0.5,
            "practiceLambda": 5,
            "trialLambda": 21.9,
            "instructedLambda": "dishonest_big",
            "sd": 8.1,
            "drawnRed": 38,
            "reportedRed": 67,
            "inferredRed": 60,
            "playerTrialScore": -22,
            "oppTrialScore": 22,
            "playerTotalScore": -1499,
            "oppTotalScore": 1324,
            "waitTime": 6649.979409827898,
            "responseTime": 1682041275714,
            "catchQuestion": "How many <b class=\"r\">red<\/b> marbles did your opponent report drawing? ",
            "catchKey": -1,
            "catchResponse": -1,
            "catchTime": 1682041275715,
            "trialTime": 0
        },
        {
            "exptPart": "trial",
            "trialNumber": 61,
            "roleCurrent": "receiver",
            "marblesSampled": 100,
            "probRed": 0.5,
            "practiceLambda": 5,
            "trialLambda": 21.9,
            "instructedLambda": "dishonest_big",
            "sd": 8.1,
            "drawnRed": 47,
            "reportedRed": 83,
            "inferredRed": 80,
            "playerTrialScore": -33,
            "oppTrialScore": 33,
            "playerTotalScore": -1532,
            "oppTotalScore": 1357,
            "waitTime": 5714.43884683463,
            "responseTime": 1682041293314,
            "catchQuestion": "How many <b class=\"r\">red<\/b> marbles did your opponent report drawing? ",
            "catchKey": -1,
            "catchResponse": -1,
            "catchTime": 1682041275715,
            "trialTime": 0
        },
        {
            "exptPart": "trial",
            "trialNumber": 62,
            "roleCurrent": "receiver",
            "marblesSampled": 100,
            "probRed": 0.5,
            "practiceLambda": 5,
            "trialLambda": 21.9,
            "instructedLambda": "dishonest_big",
            "sd": 8.1,
            "drawnRed": 47,
            "reportedRed": 65,
            "inferredRed": 64,
            "playerTrialScore": -17,
            "oppTrialScore": 17,
            "playerTotalScore": -1549,
            "oppTotalScore": 1374,
            "waitTime": 7312.129047669904,
            "responseTime": 1682041303798,
            "catchQuestion": "How many <b class=\"r\">red<\/b> marbles did your opponent report drawing? ",
            "catchKey": -1,
            "catchResponse": -1,
            "catchTime": 1682041275715,
            "trialTime": 0
        },
        {
            "exptPart": "trial",
            "trialNumber": 63,
            "roleCurrent": "receiver",
            "marblesSampled": 100,
            "probRed": 0.5,
            "practiceLambda": 5,
            "trialLambda": 21.9,
            "instructedLambda": "dishonest_big",
            "sd": 8.1,
            "drawnRed": 20,
            "reportedRed": 33,
            "inferredRed": 45,
            "playerTrialScore": -25,
            "oppTrialScore": 25,
            "playerTotalScore": -1574,
            "oppTotalScore": 1399,
            "waitTime": 6522.420871439938,
            "responseTime": 1682041315114,
            "catchQuestion": "How many <b class=\"r\">red<\/b> marbles did your opponent report drawing? ",
            "catchKey": -1,
            "catchResponse": -1,
            "catchTime": 1682041275715,
            "trialTime": 0
        },
        {
            "exptPart": "trial",
            "trialNumber": 64,
            "roleCurrent": "receiver",
            "marblesSampled": 100,
            "probRed": 0.5,
            "practiceLambda": 5,
            "trialLambda": 21.9,
            "instructedLambda": "dishonest_big",
            "sd": 8.1,
            "drawnRed": 16,
            "reportedRed": 50,
            "inferredRed": 57,
            "playerTrialScore": -41,
            "oppTrialScore": 41,
            "playerTotalScore": -1615,
            "oppTotalScore": 1440,
            "waitTime": 5529.8588083562045,
            "responseTime": 1682041325497,
            "catchQuestion": "How many <b class=\"r\">red<\/b> marbles did your opponent report drawing? ",
            "catchKey": -1,
            "catchResponse": -1,
            "catchTime": 1682041275715,
            "trialTime": 0
        },
        {
            "exptPart": "trial",
            "trialNumber": 65,
            "roleCurrent": "receiver",
            "marblesSampled": 100,
            "probRed": 0.5,
            "practiceLambda": 5,
            "trialLambda": 21.9,
            "instructedLambda": "dishonest_big",
            "sd": 8.1,
            "drawnRed": 64,
            "reportedRed": 98,
            "inferredRed": 90,
            "playerTrialScore": -26,
            "oppTrialScore": 26,
            "playerTotalScore": -1641,
            "oppTotalScore": 1466,
            "waitTime": 5850.448423171301,
            "responseTime": 1682041334197,
            "catchQuestion": "How many <b class=\"r\">red<\/b> marbles did your opponent report drawing? ",
            "catchKey": -1,
            "catchResponse": -1,
            "catchTime": 1682041275715,
            "trialTime": 0
        },
        {
            "exptPart": "trial",
            "trialNumber": 66,
            "roleCurrent": "receiver",
            "marblesSampled": 100,
            "probRed": 0.5,
            "practiceLambda": 5,
            "trialLambda": 21.9,
            "instructedLambda": "dishonest_big",
            "sd": 8.1,
            "drawnRed": 29,
            "reportedRed": 71,
            "inferredRed": 78,
            "playerTrialScore": -49,
            "oppTrialScore": 49,
            "playerTotalScore": -1690,
            "oppTotalScore": 1515,
            "waitTime": 5798.533160950234,
            "responseTime": 1682041343229,
            "catchQuestion": "How many <b class=\"r\">red<\/b> marbles did your opponent report drawing? ",
            "catchKey": -1,
            "catchResponse": -1,
            "catchTime": 1682041275715,
            "trialTime": 0
        },
        {
            "exptPart": "trial",
            "trialNumber": 67,
            "roleCurrent": "receiver",
            "marblesSampled": 100,
            "probRed": 0.5,
            "practiceLambda": 5,
            "trialLambda": 21.9,
            "instructedLambda": "dishonest_big",
            "sd": 8.1,
            "drawnRed": 63,
            "reportedRed": 79,
            "inferredRed": 71,
            "playerTrialScore": -8,
            "oppTrialScore": 8,
            "playerTotalScore": -1698,
            "oppTotalScore": 1523,
            "waitTime": 6287.448485095945,
            "responseTime": 1682041351580,
            "catchQuestion": "How many <b class=\"r\">red<\/b> marbles did your opponent report drawing? ",
            "catchKey": -1,
            "catchResponse": -1,
            "catchTime": 1682041275715,
            "trialTime": 0
        },
        {
            "exptPart": "trial",
            "trialNumber": 68,
            "roleCurrent": "receiver",
            "marblesSampled": 100,
            "probRed": 0.5,
            "practiceLambda": 5,
            "trialLambda": 21.9,
            "instructedLambda": "dishonest_big",
            "sd": 8.1,
            "drawnRed": 52,
            "reportedRed": 68,
            "inferredRed": 64,
            "playerTrialScore": -12,
            "oppTrialScore": 12,
            "playerTotalScore": -1710,
            "oppTotalScore": 1535,
            "waitTime": 6957.228301405558,
            "responseTime": 1682041362463,
            "catchQuestion": "How many <b class=\"r\">red<\/b> marbles did your opponent report drawing? ",
            "catchKey": -1,
            "catchResponse": -1,
            "catchTime": 1682041275715,
            "trialTime": 0
        },
        {
            "exptPart": "trial",
            "trialNumber": 69,
            "roleCurrent": "receiver",
            "marblesSampled": 100,
            "probRed": 0.5,
            "practiceLambda": 5,
            "trialLambda": 21.9,
            "instructedLambda": "dishonest_big",
            "sd": 8.1,
            "drawnRed": 85,
            "reportedRed": 100,
            "inferredRed": 98,
            "playerTrialScore": -13,
            "oppTrialScore": 13,
            "playerTotalScore": -1723,
            "oppTotalScore": 1548,
            "waitTime": 6955.038263378028,
            "responseTime": 1682041375413,
            "catchQuestion": "How many <b class=\"r\">red<\/b> marbles did your opponent report drawing? ",
            "catchKey": -1,
            "catchResponse": -1,
            "catchTime": 1682041275715,
            "trialTime": 0
        },
        {
            "exptPart": "trial",
            "trialNumber": 70,
            "roleCurrent": "receiver",
            "marblesSampled": 100,
            "probRed": 0.5,
            "practiceLambda": 5,
            "trialLambda": 21.9,
            "instructedLambda": "dishonest_big",
            "sd": 8.1,
            "drawnRed": 45,
            "reportedRed": 64,
            "inferredRed": 68,
            "playerTrialScore": -23,
            "oppTrialScore": 23,
            "playerTotalScore": -1746,
            "oppTotalScore": 1571,
            "waitTime": 5460.1675022351665,
            "responseTime": 1682041385479,
            "catchQuestion": "How many <b class=\"r\">red<\/b> marbles did your opponent report drawing? ",
            "catchKey": -1,
            "catchResponse": -1,
            "catchTime": 1682041385479,
            "trialTime": 0
        },
        {
            "exptPart": "trial",
            "trialNumber": 71,
            "roleCurrent": "receiver",
            "marblesSampled": 100,
            "probRed": 0.5,
            "practiceLambda": 5,
            "trialLambda": 21.9,
            "instructedLambda": "dishonest_big",
            "sd": 8.1,
            "drawnRed": 89,
            "reportedRed": 100,
            "inferredRed": 50,
            "playerTrialScore": -39,
            "oppTrialScore": 0,
            "playerTotalScore": -1785,
            "oppTotalScore": 1571,
            "waitTime": 6543.582869503869,
            "responseTime": 1682041401079,
            "catchQuestion": "How many <b class=\"r\">red<\/b> marbles did your opponent report drawing? ",
            "catchKey": -1,
            "catchResponse": -1,
            "catchTime": 1682041385479,
            "trialTime": 0
        },
        {
            "exptPart": "trial",
            "trialNumber": 72,
            "roleCurrent": "receiver",
            "marblesSampled": 100,
            "probRed": 0.5,
            "practiceLambda": 5,
            "trialLambda": 21.9,
            "instructedLambda": "dishonest_big",
            "sd": 8.1,
            "drawnRed": 94,
            "reportedRed": 100,
            "inferredRed": 54,
            "playerTrialScore": -40,
            "oppTrialScore": 0,
            "playerTotalScore": -1825,
            "oppTotalScore": 1571,
            "waitTime": 6957.792843622783,
            "responseTime": 1682041411595,
            "catchQuestion": "How many <b class=\"r\">red<\/b> marbles did your opponent report drawing? ",
            "catchKey": -1,
            "catchResponse": -1,
            "catchTime": 1682041385479,
            "trialTime": 0
        },
        {
            "exptPart": "trial",
            "trialNumber": 73,
            "roleCurrent": "receiver",
            "marblesSampled": 100,
            "probRed": 0.5,
            "practiceLambda": 5,
            "trialLambda": 21.9,
            "instructedLambda": "dishonest_big",
            "sd": 8.1,
            "drawnRed": 27,
            "reportedRed": 48,
            "inferredRed": 64,
            "playerTrialScore": -37,
            "oppTrialScore": 37,
            "playerTotalScore": -1862,
            "oppTotalScore": 1608,
            "waitTime": 6364.89499886509,
            "responseTime": 1682041421463,
            "catchQuestion": "How many <b class=\"r\">red<\/b> marbles did your opponent report drawing? ",
            "catchKey": -1,
            "catchResponse": -1,
            "catchTime": 1682041385479,
            "trialTime": 0
        },
        {
            "exptPart": "trial",
            "trialNumber": 74,
            "roleCurrent": "receiver",
            "marblesSampled": 100,
            "probRed": 0.5,
            "practiceLambda": 5,
            "trialLambda": 21.9,
            "instructedLambda": "dishonest_big",
            "sd": 8.1,
            "drawnRed": 61,
            "reportedRed": 81,
            "inferredRed": 78,
            "playerTrialScore": -17,
            "oppTrialScore": 17,
            "playerTotalScore": -1879,
            "oppTotalScore": 1625,
            "waitTime": 5572.954201839235,
            "responseTime": 1682041430963,
            "catchQuestion": "How many <b class=\"r\">red<\/b> marbles did your opponent report drawing? ",
            "catchKey": 81,
            "catchResponse": 81,
            "catchTime": 1682041430963,
            "trialTime": 0
        },
        {
            "exptPart": "trial",
            "trialNumber": 75,
            "roleCurrent": "receiver",
            "marblesSampled": 100,
            "probRed": 0.5,
            "practiceLambda": 5,
            "trialLambda": 21.9,
            "instructedLambda": "dishonest_big",
            "sd": 8.1,
            "drawnRed": 95,
            "reportedRed": 100,
            "inferredRed": 98,
            "playerTrialScore": -3,
            "oppTrialScore": 3,
            "playerTotalScore": -1882,
            "oppTotalScore": 1628,
            "waitTime": 6310.139408862849,
            "responseTime": 1682041447228,
            "catchQuestion": "How many <b class=\"r\">red<\/b> marbles did your opponent report drawing? ",
            "catchKey": -1,
            "catchResponse": -1,
            "catchTime": 1682041430963,
            "trialTime": 0
        },
        {
            "exptPart": "trial",
            "trialNumber": 76,
            "roleCurrent": "receiver",
            "marblesSampled": 100,
            "probRed": 0.5,
            "practiceLambda": 5,
            "trialLambda": 21.9,
            "instructedLambda": "dishonest_big",
            "sd": 8.1,
            "drawnRed": 65,
            "reportedRed": 75,
            "inferredRed": 67,
            "playerTrialScore": -2,
            "oppTrialScore": 2,
            "playerTotalScore": -1884,
            "oppTotalScore": 1630,
            "waitTime": 7149.122255243053,
            "responseTime": 1682041457396,
            "catchQuestion": "How many <b class=\"r\">red<\/b> marbles did your opponent report drawing? ",
            "catchKey": -1,
            "catchResponse": -1,
            "catchTime": 1682041430963,
            "trialTime": 0
        },
        {
            "exptPart": "trial",
            "trialNumber": 77,
            "roleCurrent": "receiver",
            "marblesSampled": 100,
            "probRed": 0.5,
            "practiceLambda": 5,
            "trialLambda": 21.9,
            "instructedLambda": "dishonest_big",
            "sd": 8.1,
            "drawnRed": 59,
            "reportedRed": 68,
            "inferredRed": 76,
            "playerTrialScore": -17,
            "oppTrialScore": 17,
            "playerTotalScore": -1901,
            "oppTotalScore": 1647,
            "waitTime": 7107.247992924241,
            "responseTime": 1682041467979,
            "catchQuestion": "How many <b class=\"r\">red<\/b> marbles did your opponent report drawing? ",
            "catchKey": -1,
            "catchResponse": -1,
            "catchTime": 1682041430963,
            "trialTime": 0
        },
        {
            "exptPart": "trial",
            "trialNumber": 78,
            "roleCurrent": "receiver",
            "marblesSampled": 100,
            "probRed": 0.5,
            "practiceLambda": 5,
            "trialLambda": 21.9,
            "instructedLambda": "dishonest_big",
            "sd": 8.1,
            "drawnRed": 68,
            "reportedRed": 88,
            "inferredRed": 76,
            "playerTrialScore": -8,
            "oppTrialScore": 8,
            "playerTotalScore": -1909,
            "oppTotalScore": 1655,
            "waitTime": 5983.474600122216,
            "responseTime": 1682041476746,
            "catchQuestion": "How many <b class=\"r\">red<\/b> marbles did your opponent report drawing? ",
            "catchKey": -1,
            "catchResponse": -1,
            "catchTime": 1682041430963,
            "trialTime": 0
        },
        {
            "exptPart": "trial",
            "trialNumber": 79,
            "roleCurrent": "receiver",
            "marblesSampled": 100,
            "probRed": 0.5,
            "practiceLambda": 5,
            "trialLambda": 21.9,
            "instructedLambda": "dishonest_big",
            "sd": 8.1,
            "drawnRed": 36,
            "reportedRed": 54,
            "inferredRed": 45,
            "playerTrialScore": -9,
            "oppTrialScore": 9,
            "playerTotalScore": -1918,
            "oppTotalScore": 1664,
            "waitTime": 6150.0279249381865,
            "responseTime": 1682041486412,
            "catchQuestion": "How many <b class=\"r\">red<\/b> marbles did your opponent report drawing? ",
            "catchKey": -1,
            "catchResponse": -1,
            "catchTime": 1682041430963,
            "trialTime": 0
        },
        {
            "exptPart": "trial",
            "trialNumber": 80,
            "roleCurrent": "receiver",
            "marblesSampled": 100,
            "probRed": 0.5,
            "practiceLambda": 5,
            "trialLambda": 21.9,
            "instructedLambda": "dishonest_big",
            "sd": 8.1,
            "drawnRed": 39,
            "reportedRed": 64,
            "inferredRed": 56,
            "playerTrialScore": -17,
            "oppTrialScore": 17,
            "playerTotalScore": -1935,
            "oppTotalScore": 1681,
            "waitTime": 5613.746753369958,
            "responseTime": 1682041494662,
            "catchQuestion": "How many <b class=\"r\">red<\/b> marbles did your opponent report drawing? ",
            "catchKey": -1,
            "catchResponse": -1,
            "catchTime": 1682041494663,
            "trialTime": 0
        },
        {
            "exptPart": "trial",
            "trialNumber": 81,
            "roleCurrent": "receiver",
            "marblesSampled": 100,
            "probRed": 0.5,
            "practiceLambda": 5,
            "trialLambda": 21.9,
            "instructedLambda": "dishonest_big",
            "sd": 8.1,
            "drawnRed": 40,
            "reportedRed": 69,
            "inferredRed": 76,
            "playerTrialScore": -36,
            "oppTrialScore": 36,
            "playerTotalScore": -1971,
            "oppTotalScore": 1717,
            "waitTime": 7089.115806765393,
            "responseTime": 1682041507461,
            "catchQuestion": "How many <b class=\"r\">red<\/b> marbles did your opponent report drawing? ",
            "catchKey": -1,
            "catchResponse": -1,
            "catchTime": 1682041494663,
            "trialTime": 0
        },
        {
            "exptPart": "trial",
            "trialNumber": 82,
            "roleCurrent": "receiver",
            "marblesSampled": 100,
            "probRed": 0.5,
            "practiceLambda": 5,
            "trialLambda": 21.9,
            "instructedLambda": "dishonest_big",
            "sd": 8.1,
            "drawnRed": 77,
            "reportedRed": 96,
            "inferredRed": 98,
            "playerTrialScore": -21,
            "oppTrialScore": 21,
            "playerTotalScore": -1992,
            "oppTotalScore": 1738,
            "waitTime": 5178.793871584816,
            "responseTime": 1682041515845,
            "catchQuestion": "How many <b class=\"r\">red<\/b> marbles did your opponent report drawing? ",
            "catchKey": -1,
            "catchResponse": -1,
            "catchTime": 1682041494663,
            "trialTime": 0
        },
        {
            "exptPart": "trial",
            "trialNumber": 83,
            "roleCurrent": "receiver",
            "marblesSampled": 100,
            "probRed": 0.5,
            "practiceLambda": 5,
            "trialLambda": 21.9,
            "instructedLambda": "dishonest_big",
            "sd": 8.1,
            "drawnRed": 51,
            "reportedRed": 63,
            "inferredRed": 55,
            "playerTrialScore": -4,
            "oppTrialScore": 4,
            "playerTotalScore": -1996,
            "oppTotalScore": 1742,
            "waitTime": 6514.131146236725,
            "responseTime": 1682041524977,
            "catchQuestion": "How many <b class=\"r\">red<\/b> marbles did your opponent report drawing? ",
            "catchKey": -1,
            "catchResponse": -1,
            "catchTime": 1682041494663,
            "trialTime": 0
        },
        {
            "exptPart": "trial",
            "trialNumber": 84,
            "roleCurrent": "receiver",
            "marblesSampled": 100,
            "probRed": 0.5,
            "practiceLambda": 5,
            "trialLambda": 21.9,
            "instructedLambda": "dishonest_big",
            "sd": 8.1,
            "drawnRed": 21,
            "reportedRed": 43,
            "inferredRed": 54,
            "playerTrialScore": -33,
            "oppTrialScore": 33,
            "playerTotalScore": -2029,
            "oppTotalScore": 1775,
            "waitTime": 6675.198384799391,
            "responseTime": 1682041534962,
            "catchQuestion": "How many <b class=\"r\">red<\/b> marbles did your opponent report drawing? ",
            "catchKey": -1,
            "catchResponse": -1,
            "catchTime": 1682041494663,
            "trialTime": 0
        },
        {
            "exptPart": "trial",
            "trialNumber": 85,
            "roleCurrent": "receiver",
            "marblesSampled": 100,
            "probRed": 0.5,
            "practiceLambda": 5,
            "trialLambda": 21.9,
            "instructedLambda": "dishonest_big",
            "sd": 8.1,
            "drawnRed": 46,
            "reportedRed": 79,
            "inferredRed": 76,
            "playerTrialScore": -30,
            "oppTrialScore": 30,
            "playerTotalScore": -2059,
            "oppTotalScore": 1805,
            "waitTime": 6491.125098489145,
            "responseTime": 1682041544961,
            "catchQuestion": "How many <b class=\"r\">red<\/b> marbles did your opponent report drawing? ",
            "catchKey": -1,
            "catchResponse": -1,
            "catchTime": 1682041494663,
            "trialTime": 0
        },
        {
            "exptPart": "trial",
            "trialNumber": 86,
            "roleCurrent": "receiver",
            "marblesSampled": 100,
            "probRed": 0.5,
            "practiceLambda": 5,
            "trialLambda": 21.9,
            "instructedLambda": "dishonest_big",
            "sd": 8.1,
            "drawnRed": 74,
            "reportedRed": 84,
            "inferredRed": 80,
            "playerTrialScore": -6,
            "oppTrialScore": 6,
            "playerTotalScore": -2065,
            "oppTotalScore": 1811,
            "waitTime": 6320.640649683315,
            "responseTime": 1682041555011,
            "catchQuestion": "How many <b class=\"r\">red<\/b> marbles did your opponent report drawing? ",
            "catchKey": -1,
            "catchResponse": -1,
            "catchTime": 1682041494663,
            "trialTime": 0
        },
        {
            "exptPart": "trial",
            "trialNumber": 87,
            "roleCurrent": "receiver",
            "marblesSampled": 100,
            "probRed": 0.5,
            "practiceLambda": 5,
            "trialLambda": 21.9,
            "instructedLambda": "dishonest_big",
            "sd": 8.1,
            "drawnRed": 43,
            "reportedRed": 75,
            "inferredRed": 76,
            "playerTrialScore": -33,
            "oppTrialScore": 33,
            "playerTotalScore": -2098,
            "oppTotalScore": 1844,
            "waitTime": 5244.317402812181,
            "responseTime": 1682041563344,
            "catchQuestion": "How many <b class=\"r\">red<\/b> marbles did your opponent report drawing? ",
            "catchKey": -1,
            "catchResponse": -1,
            "catchTime": 1682041494663,
            "trialTime": 0
        },
        {
            "exptPart": "trial",
            "trialNumber": 88,
            "roleCurrent": "receiver",
            "marblesSampled": 100,
            "probRed": 0.5,
            "practiceLambda": 5,
            "trialLambda": 21.9,
            "instructedLambda": "dishonest_big",
            "sd": 8.1,
            "drawnRed": 66,
            "reportedRed": 82,
            "inferredRed": 76,
            "playerTrialScore": -10,
            "oppTrialScore": 10,
            "playerTotalScore": -2108,
            "oppTotalScore": 1854,
            "waitTime": 6458.129288337437,
            "responseTime": 1682041573210,
            "catchQuestion": "How many <b class=\"r\">red<\/b> marbles did your opponent report drawing? ",
            "catchKey": -1,
            "catchResponse": -1,
            "catchTime": 1682041494663,
            "trialTime": 0
        },
        {
            "exptPart": "trial",
            "trialNumber": 89,
            "roleCurrent": "receiver",
            "marblesSampled": 100,
            "probRed": 0.5,
            "practiceLambda": 5,
            "trialLambda": 21.9,
            "instructedLambda": "dishonest_big",
            "sd": 8.1,
            "drawnRed": 56,
            "reportedRed": 74,
            "inferredRed": 76,
            "playerTrialScore": -20,
            "oppTrialScore": 20,
            "playerTotalScore": -2128,
            "oppTotalScore": 1874,
            "waitTime": 5871.294533057491,
            "responseTime": 1682041581778,
            "catchQuestion": "How many <b class=\"r\">red<\/b> marbles did your opponent report drawing? ",
            "catchKey": -1,
            "catchResponse": -1,
            "catchTime": 1682041494663,
            "trialTime": 0
        },
        {
            "exptPart": "trial",
            "trialNumber": 90,
            "roleCurrent": "receiver",
            "marblesSampled": 100,
            "probRed": 0.5,
            "practiceLambda": 5,
            "trialLambda": 21.9,
            "instructedLambda": "dishonest_big",
            "sd": 8.1,
            "drawnRed": 16,
            "reportedRed": 45,
            "inferredRed": 40,
            "playerTrialScore": -24,
            "oppTrialScore": 24,
            "playerTotalScore": -2152,
            "oppTotalScore": 1898,
            "waitTime": 5820.963081436838,
            "responseTime": 1682041591194,
            "catchQuestion": "How many <b class=\"r\">red<\/b> marbles did your opponent report drawing? ",
            "catchKey": -1,
            "catchResponse": -1,
            "catchTime": 1682041591194,
            "trialTime": 0
        },
        {
            "exptPart": "trial",
            "trialNumber": 91,
            "roleCurrent": "receiver",
            "marblesSampled": 100,
            "probRed": 0.5,
            "practiceLambda": 5,
            "trialLambda": 21.9,
            "instructedLambda": "dishonest_big",
            "sd": 8.1,
            "drawnRed": 57,
            "reportedRed": 93,
            "inferredRed": 56,
            "playerTrialScore": -1,
            "oppTrialScore": 0,
            "playerTotalScore": -2153,
            "oppTotalScore": 1898,
            "waitTime": 6646.484408175813,
            "responseTime": 1682041603594,
            "catchQuestion": "How many <b class=\"r\">red<\/b> marbles did your opponent report drawing? ",
            "catchKey": -1,
            "catchResponse": -1,
            "catchTime": 1682041591194,
            "trialTime": 0
        },
        {
            "exptPart": "trial",
            "trialNumber": 92,
            "roleCurrent": "receiver",
            "marblesSampled": 100,
            "probRed": 0.5,
            "practiceLambda": 5,
            "trialLambda": 21.9,
            "instructedLambda": "dishonest_big",
            "sd": 8.1,
            "drawnRed": 88,
            "reportedRed": 100,
            "inferredRed": 93,
            "playerTrialScore": -5,
            "oppTrialScore": 5,
            "playerTotalScore": -2158,
            "oppTotalScore": 1903,
            "waitTime": 6245.679144450147,
            "responseTime": 1682041614577,
            "catchQuestion": "How many <b class=\"r\">red<\/b> marbles did your opponent report drawing? ",
            "catchKey": 100,
            "catchResponse": 100,
            "catchTime": 1682041614577,
            "trialTime": 0
        },
        {
            "exptPart": "trial",
            "trialNumber": 93,
            "roleCurrent": "receiver",
            "marblesSampled": 100,
            "probRed": 0.5,
            "practiceLambda": 5,
            "trialLambda": 21.9,
            "instructedLambda": "dishonest_big",
            "sd": 8.1,
            "drawnRed": 54,
            "reportedRed": 87,
            "inferredRed": 93,
            "playerTrialScore": -39,
            "oppTrialScore": 39,
            "playerTotalScore": -2197,
            "oppTotalScore": 1942,
            "waitTime": 7015.629804593693,
            "responseTime": 1682041630510,
            "catchQuestion": "How many <b class=\"r\">red<\/b> marbles did your opponent report drawing? ",
            "catchKey": -1,
            "catchResponse": -1,
            "catchTime": 1682041614577,
            "trialTime": 0
        },
        {
            "exptPart": "trial",
            "trialNumber": 94,
            "roleCurrent": "receiver",
            "marblesSampled": 100,
            "probRed": 0.5,
            "practiceLambda": 5,
            "trialLambda": 21.9,
            "instructedLambda": "dishonest_big",
            "sd": 8.1,
            "drawnRed": 34,
            "reportedRed": 62,
            "inferredRed": 87,
            "playerTrialScore": -53,
            "oppTrialScore": 53,
            "playerTotalScore": -2250,
            "oppTotalScore": 1995,
            "waitTime": 6703.000513280106,
            "responseTime": 1682041640810,
            "catchQuestion": "How many <b class=\"r\">red<\/b> marbles did your opponent report drawing? ",
            "catchKey": -1,
            "catchResponse": -1,
            "catchTime": 1682041614577,
            "trialTime": 0
        },
        {
            "exptPart": "trial",
            "trialNumber": 95,
            "roleCurrent": "receiver",
            "marblesSampled": 100,
            "probRed": 0.5,
            "practiceLambda": 5,
            "trialLambda": 21.9,
            "instructedLambda": "dishonest_big",
            "sd": 8.1,
            "drawnRed": 41,
            "reportedRed": 70,
            "inferredRed": 62,
            "playerTrialScore": -21,
            "oppTrialScore": 21,
            "playerTotalScore": -2271,
            "oppTotalScore": 2016,
            "waitTime": 5224.806961383212,
            "responseTime": 1682041647929,
            "catchQuestion": "How many <b class=\"r\">red<\/b> marbles did your opponent report drawing? ",
            "catchKey": -1,
            "catchResponse": -1,
            "catchTime": 1682041614577,
            "trialTime": 0
        },
        {
            "exptPart": "trial",
            "trialNumber": 96,
            "roleCurrent": "receiver",
            "marblesSampled": 100,
            "probRed": 0.5,
            "practiceLambda": 5,
            "trialLambda": 21.9,
            "instructedLambda": "dishonest_big",
            "sd": 8.1,
            "drawnRed": 77,
            "reportedRed": 100,
            "inferredRed": 70,
            "playerTrialScore": -7,
            "oppTrialScore": 0,
            "playerTotalScore": -2278,
            "oppTotalScore": 2016,
            "waitTime": 5524.742150317124,
            "responseTime": 1682041655393,
            "catchQuestion": "How many <b class=\"r\">red<\/b> marbles did your opponent report drawing? ",
            "catchKey": -1,
            "catchResponse": -1,
            "catchTime": 1682041614577,
            "trialTime": 0
        },
        {
            "exptPart": "trial",
            "trialNumber": 97,
            "roleCurrent": "receiver",
            "marblesSampled": 100,
            "probRed": 0.5,
            "practiceLambda": 5,
            "trialLambda": 21.9,
            "instructedLambda": "dishonest_big",
            "sd": 8.1,
            "drawnRed": 47,
            "reportedRed": 73,
            "inferredRed": 100,
            "playerTrialScore": -53,
            "oppTrialScore": 53,
            "playerTotalScore": -2331,
            "oppTotalScore": 2069,
            "waitTime": 6321.478298183852,
            "responseTime": 1682041664746,
            "catchQuestion": "How many <b class=\"r\">red<\/b> marbles did your opponent report drawing? ",
            "catchKey": 73,
            "catchResponse": 73,
            "catchTime": 1682041664746,
            "trialTime": 0
        },
        {
            "exptPart": "trial",
            "trialNumber": 98,
            "roleCurrent": "receiver",
            "marblesSampled": 100,
            "probRed": 0.5,
            "practiceLambda": 5,
            "trialLambda": 21.9,
            "instructedLambda": "dishonest_big",
            "sd": 8.1,
            "drawnRed": 38,
            "reportedRed": 71,
            "inferredRed": 87,
            "playerTrialScore": -49,
            "oppTrialScore": 49,
            "playerTotalScore": -2380,
            "oppTotalScore": 2118,
            "waitTime": 7151.832601001053,
            "responseTime": 1682041684176,
            "catchQuestion": "How many <b class=\"r\">red<\/b> marbles did your opponent report drawing? ",
            "catchKey": 71,
            "catchResponse": 71,
            "catchTime": 1682041684176,
            "trialTime": 0
        },
        {
            "exptPart": "trial",
            "trialNumber": 99,
            "roleCurrent": "receiver",
            "marblesSampled": 100,
            "probRed": 0.5,
            "practiceLambda": 5,
            "trialLambda": 21.9,
            "instructedLambda": "dishonest_big",
            "sd": 8.1,
            "drawnRed": 66,
            "reportedRed": 97,
            "inferredRed": 71,
            "playerTrialScore": -5,
            "oppTrialScore": 5,
            "playerTotalScore": -2385,
            "oppTotalScore": 2123,
            "waitTime": 6337.219777570752,
            "responseTime": 1682041699576,
            "catchQuestion": "How many <b class=\"r\">red<\/b> marbles did your opponent report drawing? ",
            "catchKey": -1,
            "catchResponse": -1,
            "catchTime": 1682041684176,
            "trialTime": 0
        },
        {
            "exptPart": "trial",
            "trialNumber": 100,
            "roleCurrent": "receiver",
            "marblesSampled": 100,
            "probRed": 0.5,
            "practiceLambda": 5,
            "trialLambda": 21.9,
            "instructedLambda": "dishonest_big",
            "sd": 8.1,
            "drawnRed": 53,
            "reportedRed": 70,
            "inferredRed": 97,
            "playerTrialScore": -44,
            "oppTrialScore": 44,
            "playerTotalScore": -2429,
            "oppTotalScore": 2167,
            "waitTime": 6728.434231269092,
            "responseTime": 1682041709876,
            "catchQuestion": "How many <b class=\"r\">red<\/b> marbles did your opponent report drawing? ",
            "catchKey": -1,
            "catchResponse": -1,
            "catchTime": 1682041709876,
            "trialTime": 0
        }
    ]
}