{
    "client": {
        "type": "sona",
        "experiment_id": 2228,
        "credit_token": "b315147ae43241ea9c65086cb510cfb7",
        "survey_code": "34548",
        "sid": "sona-34548",
        "window": {
            "width": 1431,
            "height": 711
        },
        "screen": {
            "width": 1440,
            "height": 900
        },
        "userAgent": "Mozilla\/5.0 (Macintosh; Intel Mac OS X 10_15_7) AppleWebKit\/537.36 (KHTML, like Gecko) Chrome\/109.0.0.0 Safari\/537.36",
        "score": 0,
        "bonus": 0
    },
    "expt": {
        "saveURL": "submit.simple.php",
        "trials": 100,
        "practiceTrials": 2,
        "marblesSampled": 100,
        "probRed": 0.5,
        "practiceLambdaAI": 5,
        "lambdaAI": 21.9,
        "roles": [
            "sender",
            "receiver"
        ],
        "cost": "unif",
        "goal": "over",
        "oppDishonesty": "dishonest_big",
        "catchTrials": [
            68,
            21,
            82,
            18,
            69,
            8,
            83,
            72,
            94,
            64
        ],
        "scoreTotal": {
            "player": -2034,
            "opp": 1697
        },
        "sona": {
            "experiment_id": 2228,
            "credit_token": "b315147ae43241ea9c65086cb510cfb7"
        },
        "pilot": false,
        "debug": false
    },
    "trials": [
        {
            "exptPart": "practice",
            "trialNumber": 1,
            "roleCurrent": "sender",
            "marblesSampled": 100,
            "probRed": 0.5,
            "practiceLambda": 5,
            "trialLambda": 21.9,
            "instructedLambda": "dishonest_big",
            "drawnRed": 20,
            "reportedRed": 25,
            "inferredRed": 21,
            "playerTrialScore": 1,
            "oppTrialScore": -1,
            "playerTotalScore": 1,
            "oppTotalScore": -1,
            "waitTime": 2754.477761208941,
            "responseTime": 1681184874122,
            "catchQuestion": "How many <b class=\"r\">red<\/b> marbles did you actually draw (before any changes)? ",
            "catchKey": 20,
            "catchResponse": 25,
            "catchTime": 1681184874123,
            "trialTime": 0
        },
        {
            "exptPart": "practice",
            "trialNumber": 2,
            "roleCurrent": "receiver",
            "marblesSampled": 100,
            "probRed": 0.5,
            "practiceLambda": 5,
            "trialLambda": 21.9,
            "instructedLambda": "dishonest_big",
            "drawnRed": 56,
            "reportedRed": 61,
            "inferredRed": 63,
            "playerTrialScore": -7,
            "oppTrialScore": 7,
            "playerTotalScore": -6,
            "oppTotalScore": 6,
            "waitTime": 5463.497750271998,
            "responseTime": 1681184923170,
            "catchQuestion": "How many <b class=\"r\">red<\/b> marbles did your opponent report drawing? ",
            "catchKey": 61,
            "catchResponse": 61,
            "catchTime": 1681184923170,
            "trialTime": 0
        },
        {
            "exptPart": "trial",
            "trialNumber": 1,
            "roleCurrent": "receiver",
            "marblesSampled": 100,
            "probRed": 0.5,
            "practiceLambda": 5,
            "trialLambda": 21.9,
            "instructedLambda": "dishonest_big",
            "drawnRed": 31,
            "reportedRed": 55,
            "inferredRed": 56,
            "playerTrialScore": -25,
            "oppTrialScore": 25,
            "playerTotalScore": -25,
            "oppTotalScore": 25,
            "waitTime": 7317.064818190733,
            "responseTime": 1681185018760,
            "catchQuestion": "How many <b class=\"r\">red<\/b> marbles did your opponent report drawing? ",
            "catchKey": -1,
            "catchResponse": -1,
            "catchTime": 1681184923170,
            "trialTime": 0
        },
        {
            "exptPart": "trial",
            "trialNumber": 2,
            "roleCurrent": "receiver",
            "marblesSampled": 100,
            "probRed": 0.5,
            "practiceLambda": 5,
            "trialLambda": 21.9,
            "instructedLambda": "dishonest_big",
            "drawnRed": 40,
            "reportedRed": 61,
            "inferredRed": 58,
            "playerTrialScore": -18,
            "oppTrialScore": 18,
            "playerTotalScore": -43,
            "oppTotalScore": 43,
            "waitTime": 5657.464670643056,
            "responseTime": 1681185034787,
            "catchQuestion": "How many <b class=\"r\">red<\/b> marbles did your opponent report drawing? ",
            "catchKey": -1,
            "catchResponse": -1,
            "catchTime": 1681184923170,
            "trialTime": 0
        },
        {
            "exptPart": "trial",
            "trialNumber": 3,
            "roleCurrent": "receiver",
            "marblesSampled": 100,
            "probRed": 0.5,
            "practiceLambda": 5,
            "trialLambda": 21.9,
            "instructedLambda": "dishonest_big",
            "drawnRed": 63,
            "reportedRed": 92,
            "inferredRed": 92,
            "playerTrialScore": -29,
            "oppTrialScore": 29,
            "playerTotalScore": -72,
            "oppTotalScore": 72,
            "waitTime": 6678.355238853014,
            "responseTime": 1681185049627,
            "catchQuestion": "How many <b class=\"r\">red<\/b> marbles did your opponent report drawing? ",
            "catchKey": -1,
            "catchResponse": -1,
            "catchTime": 1681184923170,
            "trialTime": 0
        },
        {
            "exptPart": "trial",
            "trialNumber": 4,
            "roleCurrent": "receiver",
            "marblesSampled": 100,
            "probRed": 0.5,
            "practiceLambda": 5,
            "trialLambda": 21.9,
            "instructedLambda": "dishonest_big",
            "drawnRed": 14,
            "reportedRed": 39,
            "inferredRed": 37,
            "playerTrialScore": -23,
            "oppTrialScore": 23,
            "playerTotalScore": -95,
            "oppTotalScore": 95,
            "waitTime": 5129.545516856728,
            "responseTime": 1681185061291,
            "catchQuestion": "How many <b class=\"r\">red<\/b> marbles did your opponent report drawing? ",
            "catchKey": -1,
            "catchResponse": -1,
            "catchTime": 1681184923170,
            "trialTime": 0
        },
        {
            "exptPart": "trial",
            "trialNumber": 5,
            "roleCurrent": "receiver",
            "marblesSampled": 100,
            "probRed": 0.5,
            "practiceLambda": 5,
            "trialLambda": 21.9,
            "instructedLambda": "dishonest_big",
            "drawnRed": 54,
            "reportedRed": 74,
            "inferredRed": 74,
            "playerTrialScore": -20,
            "oppTrialScore": 20,
            "playerTotalScore": -115,
            "oppTotalScore": 115,
            "waitTime": 5827.973867673278,
            "responseTime": 1681185084404,
            "catchQuestion": "How many <b class=\"r\">red<\/b> marbles did your opponent report drawing? ",
            "catchKey": -1,
            "catchResponse": -1,
            "catchTime": 1681184923170,
            "trialTime": 0
        },
        {
            "exptPart": "trial",
            "trialNumber": 6,
            "roleCurrent": "receiver",
            "marblesSampled": 100,
            "probRed": 0.5,
            "practiceLambda": 5,
            "trialLambda": 21.9,
            "instructedLambda": "dishonest_big",
            "drawnRed": 40,
            "reportedRed": 52,
            "inferredRed": 51,
            "playerTrialScore": -11,
            "oppTrialScore": 11,
            "playerTotalScore": -126,
            "oppTotalScore": 126,
            "waitTime": 5253.702793998733,
            "responseTime": 1681185095532,
            "catchQuestion": "How many <b class=\"r\">red<\/b> marbles did your opponent report drawing? ",
            "catchKey": -1,
            "catchResponse": -1,
            "catchTime": 1681184923170,
            "trialTime": 0
        },
        {
            "exptPart": "trial",
            "trialNumber": 7,
            "roleCurrent": "receiver",
            "marblesSampled": 100,
            "probRed": 0.5,
            "practiceLambda": 5,
            "trialLambda": 21.9,
            "instructedLambda": "dishonest_big",
            "drawnRed": 61,
            "reportedRed": 85,
            "inferredRed": 85,
            "playerTrialScore": -24,
            "oppTrialScore": 24,
            "playerTotalScore": -150,
            "oppTotalScore": 150,
            "waitTime": 5737.0684252276005,
            "responseTime": 1681185116171,
            "catchQuestion": "How many <b class=\"r\">red<\/b> marbles did your opponent report drawing? ",
            "catchKey": -1,
            "catchResponse": -1,
            "catchTime": 1681184923170,
            "trialTime": 0
        },
        {
            "exptPart": "trial",
            "trialNumber": 8,
            "roleCurrent": "receiver",
            "marblesSampled": 100,
            "probRed": 0.5,
            "practiceLambda": 5,
            "trialLambda": 21.9,
            "instructedLambda": "dishonest_big",
            "drawnRed": 46,
            "reportedRed": 64,
            "inferredRed": 62,
            "playerTrialScore": -16,
            "oppTrialScore": 16,
            "playerTotalScore": -166,
            "oppTotalScore": 166,
            "waitTime": 5580.4020332470245,
            "responseTime": 1681185128204,
            "catchQuestion": "How many <b class=\"r\">red<\/b> marbles did your opponent report drawing? ",
            "catchKey": -1,
            "catchResponse": -1,
            "catchTime": 1681184923170,
            "trialTime": 0
        },
        {
            "exptPart": "trial",
            "trialNumber": 9,
            "roleCurrent": "receiver",
            "marblesSampled": 100,
            "probRed": 0.5,
            "practiceLambda": 5,
            "trialLambda": 21.9,
            "instructedLambda": "dishonest_big",
            "drawnRed": 37,
            "reportedRed": 62,
            "inferredRed": 61,
            "playerTrialScore": -24,
            "oppTrialScore": 24,
            "playerTotalScore": -190,
            "oppTotalScore": 190,
            "waitTime": 6510.890663601282,
            "responseTime": 1681185143546,
            "catchQuestion": "How many <b class=\"r\">red<\/b> marbles did your opponent report drawing? ",
            "catchKey": 62,
            "catchResponse": 62,
            "catchTime": 1681185143546,
            "trialTime": 0
        },
        {
            "exptPart": "trial",
            "trialNumber": 10,
            "roleCurrent": "receiver",
            "marblesSampled": 100,
            "probRed": 0.5,
            "practiceLambda": 5,
            "trialLambda": 21.9,
            "instructedLambda": "dishonest_big",
            "drawnRed": 43,
            "reportedRed": 64,
            "inferredRed": 63,
            "playerTrialScore": -20,
            "oppTrialScore": 20,
            "playerTotalScore": -210,
            "oppTotalScore": 210,
            "waitTime": 6240.853526687531,
            "responseTime": 1681185158887,
            "catchQuestion": "How many <b class=\"r\">red<\/b> marbles did your opponent report drawing? ",
            "catchKey": -1,
            "catchResponse": -1,
            "catchTime": 1681185158887,
            "trialTime": 0
        },
        {
            "exptPart": "trial",
            "trialNumber": 11,
            "roleCurrent": "receiver",
            "marblesSampled": 100,
            "probRed": 0.5,
            "practiceLambda": 5,
            "trialLambda": 21.9,
            "instructedLambda": "dishonest_big",
            "drawnRed": 62,
            "reportedRed": 91,
            "inferredRed": 88,
            "playerTrialScore": -26,
            "oppTrialScore": 26,
            "playerTotalScore": -236,
            "oppTotalScore": 236,
            "waitTime": 5601.046992735777,
            "responseTime": 1681185175633,
            "catchQuestion": "How many <b class=\"r\">red<\/b> marbles did your opponent report drawing? ",
            "catchKey": -1,
            "catchResponse": -1,
            "catchTime": 1681185158887,
            "trialTime": 0
        },
        {
            "exptPart": "trial",
            "trialNumber": 12,
            "roleCurrent": "receiver",
            "marblesSampled": 100,
            "probRed": 0.5,
            "practiceLambda": 5,
            "trialLambda": 21.9,
            "instructedLambda": "dishonest_big",
            "drawnRed": 69,
            "reportedRed": 94,
            "inferredRed": 94,
            "playerTrialScore": -25,
            "oppTrialScore": 25,
            "playerTotalScore": -261,
            "oppTotalScore": 261,
            "waitTime": 5353.588433178582,
            "responseTime": 1681185188768,
            "catchQuestion": "How many <b class=\"r\">red<\/b> marbles did your opponent report drawing? ",
            "catchKey": -1,
            "catchResponse": -1,
            "catchTime": 1681185158887,
            "trialTime": 0
        },
        {
            "exptPart": "trial",
            "trialNumber": 13,
            "roleCurrent": "receiver",
            "marblesSampled": 100,
            "probRed": 0.5,
            "practiceLambda": 5,
            "trialLambda": 21.9,
            "instructedLambda": "dishonest_big",
            "drawnRed": 44,
            "reportedRed": 65,
            "inferredRed": 64,
            "playerTrialScore": -20,
            "oppTrialScore": 20,
            "playerTotalScore": -281,
            "oppTotalScore": 281,
            "waitTime": 6365.598080647418,
            "responseTime": 1681185204593,
            "catchQuestion": "How many <b class=\"r\">red<\/b> marbles did your opponent report drawing? ",
            "catchKey": -1,
            "catchResponse": -1,
            "catchTime": 1681185158887,
            "trialTime": 0
        },
        {
            "exptPart": "trial",
            "trialNumber": 14,
            "roleCurrent": "receiver",
            "marblesSampled": 100,
            "probRed": 0.5,
            "practiceLambda": 5,
            "trialLambda": 21.9,
            "instructedLambda": "dishonest_big",
            "drawnRed": 31,
            "reportedRed": 52,
            "inferredRed": 54,
            "playerTrialScore": -23,
            "oppTrialScore": 23,
            "playerTotalScore": -304,
            "oppTotalScore": 304,
            "waitTime": 5423.592967495202,
            "responseTime": 1681185218949,
            "catchQuestion": "How many <b class=\"r\">red<\/b> marbles did your opponent report drawing? ",
            "catchKey": -1,
            "catchResponse": -1,
            "catchTime": 1681185158887,
            "trialTime": 0
        },
        {
            "exptPart": "trial",
            "trialNumber": 15,
            "roleCurrent": "receiver",
            "marblesSampled": 100,
            "probRed": 0.5,
            "practiceLambda": 5,
            "trialLambda": 21.9,
            "instructedLambda": "dishonest_big",
            "drawnRed": 33,
            "reportedRed": 57,
            "inferredRed": 56,
            "playerTrialScore": -23,
            "oppTrialScore": 23,
            "playerTotalScore": -327,
            "oppTotalScore": 327,
            "waitTime": 6490.400686735906,
            "responseTime": 1681185229276,
            "catchQuestion": "How many <b class=\"r\">red<\/b> marbles did your opponent report drawing? ",
            "catchKey": -1,
            "catchResponse": -1,
            "catchTime": 1681185158887,
            "trialTime": 0
        },
        {
            "exptPart": "trial",
            "trialNumber": 16,
            "roleCurrent": "receiver",
            "marblesSampled": 100,
            "probRed": 0.5,
            "practiceLambda": 5,
            "trialLambda": 21.9,
            "instructedLambda": "dishonest_big",
            "drawnRed": 65,
            "reportedRed": 83,
            "inferredRed": 79,
            "playerTrialScore": -14,
            "oppTrialScore": 14,
            "playerTotalScore": -341,
            "oppTotalScore": 341,
            "waitTime": 5559.54265057968,
            "responseTime": 1681185242947,
            "catchQuestion": "How many <b class=\"r\">red<\/b> marbles did your opponent report drawing? ",
            "catchKey": -1,
            "catchResponse": -1,
            "catchTime": 1681185158887,
            "trialTime": 0
        },
        {
            "exptPart": "trial",
            "trialNumber": 17,
            "roleCurrent": "receiver",
            "marblesSampled": 100,
            "probRed": 0.5,
            "practiceLambda": 5,
            "trialLambda": 21.9,
            "instructedLambda": "dishonest_big",
            "drawnRed": 78,
            "reportedRed": 100,
            "inferredRed": 92,
            "playerTrialScore": -14,
            "oppTrialScore": 14,
            "playerTotalScore": -355,
            "oppTotalScore": 355,
            "waitTime": 5248.120015743523,
            "responseTime": 1681185263034,
            "catchQuestion": "How many <b class=\"r\">red<\/b> marbles did your opponent report drawing? ",
            "catchKey": -1,
            "catchResponse": -1,
            "catchTime": 1681185158887,
            "trialTime": 0
        },
        {
            "exptPart": "trial",
            "trialNumber": 18,
            "roleCurrent": "receiver",
            "marblesSampled": 100,
            "probRed": 0.5,
            "practiceLambda": 5,
            "trialLambda": 21.9,
            "instructedLambda": "dishonest_big",
            "drawnRed": 90,
            "reportedRed": 100,
            "inferredRed": 100,
            "playerTrialScore": -10,
            "oppTrialScore": 10,
            "playerTotalScore": -365,
            "oppTotalScore": 365,
            "waitTime": 5164.69081235329,
            "responseTime": 1681185272541,
            "catchQuestion": "How many <b class=\"r\">red<\/b> marbles did your opponent report drawing? ",
            "catchKey": -1,
            "catchResponse": -1,
            "catchTime": 1681185158887,
            "trialTime": 0
        },
        {
            "exptPart": "trial",
            "trialNumber": 19,
            "roleCurrent": "receiver",
            "marblesSampled": 100,
            "probRed": 0.5,
            "practiceLambda": 5,
            "trialLambda": 21.9,
            "instructedLambda": "dishonest_big",
            "drawnRed": 55,
            "reportedRed": 76,
            "inferredRed": 75,
            "playerTrialScore": -20,
            "oppTrialScore": 20,
            "playerTotalScore": -385,
            "oppTotalScore": 385,
            "waitTime": 6408.3182218945,
            "responseTime": 1681185282737,
            "catchQuestion": "How many <b class=\"r\">red<\/b> marbles did your opponent report drawing? ",
            "catchKey": 76,
            "catchResponse": 74,
            "catchTime": 1681185282737,
            "trialTime": 0
        },
        {
            "exptPart": "trial",
            "trialNumber": 20,
            "roleCurrent": "receiver",
            "marblesSampled": 100,
            "probRed": 0.5,
            "practiceLambda": 5,
            "trialLambda": 21.9,
            "instructedLambda": "dishonest_big",
            "drawnRed": 76,
            "reportedRed": 97,
            "inferredRed": 95,
            "playerTrialScore": -19,
            "oppTrialScore": 19,
            "playerTotalScore": -404,
            "oppTotalScore": 404,
            "waitTime": 6052.990851720796,
            "responseTime": 1681185309792,
            "catchQuestion": "How many <b class=\"r\">red<\/b> marbles did your opponent report drawing? ",
            "catchKey": -1,
            "catchResponse": -1,
            "catchTime": 1681185309792,
            "trialTime": 0
        },
        {
            "exptPart": "trial",
            "trialNumber": 21,
            "roleCurrent": "receiver",
            "marblesSampled": 100,
            "probRed": 0.5,
            "practiceLambda": 5,
            "trialLambda": 21.9,
            "instructedLambda": "dishonest_big",
            "drawnRed": 60,
            "reportedRed": 86,
            "inferredRed": 84,
            "playerTrialScore": -24,
            "oppTrialScore": 24,
            "playerTotalScore": -428,
            "oppTotalScore": 428,
            "waitTime": 6079.634381646323,
            "responseTime": 1681185323179,
            "catchQuestion": "How many <b class=\"r\">red<\/b> marbles did your opponent report drawing? ",
            "catchKey": -1,
            "catchResponse": -1,
            "catchTime": 1681185309792,
            "trialTime": 0
        },
        {
            "exptPart": "trial",
            "trialNumber": 22,
            "roleCurrent": "receiver",
            "marblesSampled": 100,
            "probRed": 0.5,
            "practiceLambda": 5,
            "trialLambda": 21.9,
            "instructedLambda": "dishonest_big",
            "drawnRed": 46,
            "reportedRed": 62,
            "inferredRed": 68,
            "playerTrialScore": -22,
            "oppTrialScore": 22,
            "playerTotalScore": -450,
            "oppTotalScore": 450,
            "waitTime": 6182.558398119175,
            "responseTime": 1681185334943,
            "catchQuestion": "How many <b class=\"r\">red<\/b> marbles did your opponent report drawing? ",
            "catchKey": 62,
            "catchResponse": 62,
            "catchTime": 1681185334943,
            "trialTime": 0
        },
        {
            "exptPart": "trial",
            "trialNumber": 23,
            "roleCurrent": "receiver",
            "marblesSampled": 100,
            "probRed": 0.5,
            "practiceLambda": 5,
            "trialLambda": 21.9,
            "instructedLambda": "dishonest_big",
            "drawnRed": 27,
            "reportedRed": 39,
            "inferredRed": 42,
            "playerTrialScore": -15,
            "oppTrialScore": 15,
            "playerTotalScore": -465,
            "oppTotalScore": 465,
            "waitTime": 6407.641021839332,
            "responseTime": 1681185350119,
            "catchQuestion": "How many <b class=\"r\">red<\/b> marbles did your opponent report drawing? ",
            "catchKey": -1,
            "catchResponse": -1,
            "catchTime": 1681185334943,
            "trialTime": 0
        },
        {
            "exptPart": "trial",
            "trialNumber": 24,
            "roleCurrent": "receiver",
            "marblesSampled": 100,
            "probRed": 0.5,
            "practiceLambda": 5,
            "trialLambda": 21.9,
            "instructedLambda": "dishonest_big",
            "drawnRed": 56,
            "reportedRed": 87,
            "inferredRed": 84,
            "playerTrialScore": -28,
            "oppTrialScore": 28,
            "playerTotalScore": -493,
            "oppTotalScore": 493,
            "waitTime": 6932.089267929374,
            "responseTime": 1681185366111,
            "catchQuestion": "How many <b class=\"r\">red<\/b> marbles did your opponent report drawing? ",
            "catchKey": -1,
            "catchResponse": -1,
            "catchTime": 1681185334943,
            "trialTime": 0
        },
        {
            "exptPart": "trial",
            "trialNumber": 25,
            "roleCurrent": "receiver",
            "marblesSampled": 100,
            "probRed": 0.5,
            "practiceLambda": 5,
            "trialLambda": 21.9,
            "instructedLambda": "dishonest_big",
            "drawnRed": 37,
            "reportedRed": 58,
            "inferredRed": 59,
            "playerTrialScore": -22,
            "oppTrialScore": 22,
            "playerTotalScore": -515,
            "oppTotalScore": 515,
            "waitTime": 6715.526349515629,
            "responseTime": 1681185378477,
            "catchQuestion": "How many <b class=\"r\">red<\/b> marbles did your opponent report drawing? ",
            "catchKey": -1,
            "catchResponse": -1,
            "catchTime": 1681185334943,
            "trialTime": 0
        },
        {
            "exptPart": "trial",
            "trialNumber": 26,
            "roleCurrent": "receiver",
            "marblesSampled": 100,
            "probRed": 0.5,
            "practiceLambda": 5,
            "trialLambda": 21.9,
            "instructedLambda": "dishonest_big",
            "drawnRed": 30,
            "reportedRed": 47,
            "inferredRed": 44,
            "playerTrialScore": -14,
            "oppTrialScore": 14,
            "playerTotalScore": -529,
            "oppTotalScore": 529,
            "waitTime": 5368.377871519556,
            "responseTime": 1681185386984,
            "catchQuestion": "How many <b class=\"r\">red<\/b> marbles did your opponent report drawing? ",
            "catchKey": -1,
            "catchResponse": -1,
            "catchTime": 1681185334943,
            "trialTime": 0
        },
        {
            "exptPart": "trial",
            "trialNumber": 27,
            "roleCurrent": "receiver",
            "marblesSampled": 100,
            "probRed": 0.5,
            "practiceLambda": 5,
            "trialLambda": 21.9,
            "instructedLambda": "dishonest_big",
            "drawnRed": 48,
            "reportedRed": 74,
            "inferredRed": 37,
            "playerTrialScore": -11,
            "oppTrialScore": 0,
            "playerTotalScore": -540,
            "oppTotalScore": 529,
            "waitTime": 6487.260247653386,
            "responseTime": 1681185399283,
            "catchQuestion": "How many <b class=\"r\">red<\/b> marbles did your opponent report drawing? ",
            "catchKey": -1,
            "catchResponse": -1,
            "catchTime": 1681185334943,
            "trialTime": 0
        },
        {
            "exptPart": "trial",
            "trialNumber": 28,
            "roleCurrent": "receiver",
            "marblesSampled": 100,
            "probRed": 0.5,
            "practiceLambda": 5,
            "trialLambda": 21.9,
            "instructedLambda": "dishonest_big",
            "drawnRed": 21,
            "reportedRed": 37,
            "inferredRed": 36,
            "playerTrialScore": -15,
            "oppTrialScore": 15,
            "playerTotalScore": -555,
            "oppTotalScore": 544,
            "waitTime": 6358.137717032274,
            "responseTime": 1681185414775,
            "catchQuestion": "How many <b class=\"r\">red<\/b> marbles did your opponent report drawing? ",
            "catchKey": -1,
            "catchResponse": -1,
            "catchTime": 1681185334943,
            "trialTime": 0
        },
        {
            "exptPart": "trial",
            "trialNumber": 29,
            "roleCurrent": "receiver",
            "marblesSampled": 100,
            "probRed": 0.5,
            "practiceLambda": 5,
            "trialLambda": 21.9,
            "instructedLambda": "dishonest_big",
            "drawnRed": 53,
            "reportedRed": 66,
            "inferredRed": 69,
            "playerTrialScore": -16,
            "oppTrialScore": 16,
            "playerTotalScore": -571,
            "oppTotalScore": 560,
            "waitTime": 5943.694068476223,
            "responseTime": 1681185426891,
            "catchQuestion": "How many <b class=\"r\">red<\/b> marbles did your opponent report drawing? ",
            "catchKey": -1,
            "catchResponse": -1,
            "catchTime": 1681185334943,
            "trialTime": 0
        },
        {
            "exptPart": "trial",
            "trialNumber": 30,
            "roleCurrent": "receiver",
            "marblesSampled": 100,
            "probRed": 0.5,
            "practiceLambda": 5,
            "trialLambda": 21.9,
            "instructedLambda": "dishonest_big",
            "drawnRed": 57,
            "reportedRed": 76,
            "inferredRed": 68,
            "playerTrialScore": -11,
            "oppTrialScore": 11,
            "playerTotalScore": -582,
            "oppTotalScore": 571,
            "waitTime": 6420.8560253814685,
            "responseTime": 1681185438205,
            "catchQuestion": "How many <b class=\"r\">red<\/b> marbles did your opponent report drawing? ",
            "catchKey": -1,
            "catchResponse": -1,
            "catchTime": 1681185438205,
            "trialTime": 0
        },
        {
            "exptPart": "trial",
            "trialNumber": 31,
            "roleCurrent": "receiver",
            "marblesSampled": 100,
            "probRed": 0.5,
            "practiceLambda": 5,
            "trialLambda": 21.9,
            "instructedLambda": "dishonest_big",
            "drawnRed": 91,
            "reportedRed": 100,
            "inferredRed": 78,
            "playerTrialScore": -13,
            "oppTrialScore": 0,
            "playerTotalScore": -595,
            "oppTotalScore": 571,
            "waitTime": 7458.130245544615,
            "responseTime": 1681185459077,
            "catchQuestion": "How many <b class=\"r\">red<\/b> marbles did your opponent report drawing? ",
            "catchKey": -1,
            "catchResponse": -1,
            "catchTime": 1681185438205,
            "trialTime": 0
        },
        {
            "exptPart": "trial",
            "trialNumber": 32,
            "roleCurrent": "receiver",
            "marblesSampled": 100,
            "probRed": 0.5,
            "practiceLambda": 5,
            "trialLambda": 21.9,
            "instructedLambda": "dishonest_big",
            "drawnRed": 73,
            "reportedRed": 97,
            "inferredRed": 95,
            "playerTrialScore": -22,
            "oppTrialScore": 22,
            "playerTotalScore": -617,
            "oppTotalScore": 593,
            "waitTime": 5470.353311786879,
            "responseTime": 1681185470707,
            "catchQuestion": "How many <b class=\"r\">red<\/b> marbles did your opponent report drawing? ",
            "catchKey": -1,
            "catchResponse": -1,
            "catchTime": 1681185438205,
            "trialTime": 0
        },
        {
            "exptPart": "trial",
            "trialNumber": 33,
            "roleCurrent": "receiver",
            "marblesSampled": 100,
            "probRed": 0.5,
            "practiceLambda": 5,
            "trialLambda": 21.9,
            "instructedLambda": "dishonest_big",
            "drawnRed": 67,
            "reportedRed": 89,
            "inferredRed": 89,
            "playerTrialScore": -22,
            "oppTrialScore": 22,
            "playerTotalScore": -639,
            "oppTotalScore": 615,
            "waitTime": 5248.980474915699,
            "responseTime": 1681185480702,
            "catchQuestion": "How many <b class=\"r\">red<\/b> marbles did your opponent report drawing? ",
            "catchKey": -1,
            "catchResponse": -1,
            "catchTime": 1681185438205,
            "trialTime": 0
        },
        {
            "exptPart": "trial",
            "trialNumber": 34,
            "roleCurrent": "receiver",
            "marblesSampled": 100,
            "probRed": 0.5,
            "practiceLambda": 5,
            "trialLambda": 21.9,
            "instructedLambda": "dishonest_big",
            "drawnRed": 23,
            "reportedRed": 51,
            "inferredRed": 51,
            "playerTrialScore": -28,
            "oppTrialScore": 28,
            "playerTotalScore": -667,
            "oppTotalScore": 643,
            "waitTime": 5132.569447356276,
            "responseTime": 1681185488891,
            "catchQuestion": "How many <b class=\"r\">red<\/b> marbles did your opponent report drawing? ",
            "catchKey": -1,
            "catchResponse": -1,
            "catchTime": 1681185438205,
            "trialTime": 0
        },
        {
            "exptPart": "trial",
            "trialNumber": 35,
            "roleCurrent": "receiver",
            "marblesSampled": 100,
            "probRed": 0.5,
            "practiceLambda": 5,
            "trialLambda": 21.9,
            "instructedLambda": "dishonest_big",
            "drawnRed": 54,
            "reportedRed": 78,
            "inferredRed": 77,
            "playerTrialScore": -23,
            "oppTrialScore": 23,
            "playerTotalScore": -690,
            "oppTotalScore": 666,
            "waitTime": 6419.817821315151,
            "responseTime": 1681185498500,
            "catchQuestion": "How many <b class=\"r\">red<\/b> marbles did your opponent report drawing? ",
            "catchKey": -1,
            "catchResponse": -1,
            "catchTime": 1681185438205,
            "trialTime": 0
        },
        {
            "exptPart": "trial",
            "trialNumber": 36,
            "roleCurrent": "receiver",
            "marblesSampled": 100,
            "probRed": 0.5,
            "practiceLambda": 5,
            "trialLambda": 21.9,
            "instructedLambda": "dishonest_big",
            "drawnRed": 15,
            "reportedRed": 37,
            "inferredRed": 34,
            "playerTrialScore": -19,
            "oppTrialScore": 19,
            "playerTotalScore": -709,
            "oppTotalScore": 685,
            "waitTime": 6070.046666312967,
            "responseTime": 1681185508895,
            "catchQuestion": "How many <b class=\"r\">red<\/b> marbles did your opponent report drawing? ",
            "catchKey": -1,
            "catchResponse": -1,
            "catchTime": 1681185438205,
            "trialTime": 0
        },
        {
            "exptPart": "trial",
            "trialNumber": 37,
            "roleCurrent": "receiver",
            "marblesSampled": 100,
            "probRed": 0.5,
            "practiceLambda": 5,
            "trialLambda": 21.9,
            "instructedLambda": "dishonest_big",
            "drawnRed": 49,
            "reportedRed": 70,
            "inferredRed": 70,
            "playerTrialScore": -21,
            "oppTrialScore": 21,
            "playerTotalScore": -730,
            "oppTotalScore": 706,
            "waitTime": 5572.313752057285,
            "responseTime": 1681185518505,
            "catchQuestion": "How many <b class=\"r\">red<\/b> marbles did your opponent report drawing? ",
            "catchKey": -1,
            "catchResponse": -1,
            "catchTime": 1681185438205,
            "trialTime": 0
        },
        {
            "exptPart": "trial",
            "trialNumber": 38,
            "roleCurrent": "receiver",
            "marblesSampled": 100,
            "probRed": 0.5,
            "practiceLambda": 5,
            "trialLambda": 21.9,
            "instructedLambda": "dishonest_big",
            "drawnRed": 84,
            "reportedRed": 100,
            "inferredRed": 84,
            "playerTrialScore": 0,
            "oppTrialScore": 0,
            "playerTotalScore": -730,
            "oppTotalScore": 706,
            "waitTime": 5782.429157299224,
            "responseTime": 1681185529149,
            "catchQuestion": "How many <b class=\"r\">red<\/b> marbles did your opponent report drawing? ",
            "catchKey": -1,
            "catchResponse": -1,
            "catchTime": 1681185438205,
            "trialTime": 0
        },
        {
            "exptPart": "trial",
            "trialNumber": 39,
            "roleCurrent": "receiver",
            "marblesSampled": 100,
            "probRed": 0.5,
            "practiceLambda": 5,
            "trialLambda": 21.9,
            "instructedLambda": "dishonest_big",
            "drawnRed": 21,
            "reportedRed": 38,
            "inferredRed": 36,
            "playerTrialScore": -15,
            "oppTrialScore": 15,
            "playerTotalScore": -745,
            "oppTotalScore": 721,
            "waitTime": 5600.134707461677,
            "responseTime": 1681185541063,
            "catchQuestion": "How many <b class=\"r\">red<\/b> marbles did your opponent report drawing? ",
            "catchKey": -1,
            "catchResponse": -1,
            "catchTime": 1681185438205,
            "trialTime": 0
        },
        {
            "exptPart": "trial",
            "trialNumber": 40,
            "roleCurrent": "receiver",
            "marblesSampled": 100,
            "probRed": 0.5,
            "practiceLambda": 5,
            "trialLambda": 21.9,
            "instructedLambda": "dishonest_big",
            "drawnRed": 39,
            "reportedRed": 55,
            "inferredRed": 53,
            "playerTrialScore": -14,
            "oppTrialScore": 14,
            "playerTotalScore": -759,
            "oppTotalScore": 735,
            "waitTime": 6369.431092769801,
            "responseTime": 1681185550556,
            "catchQuestion": "How many <b class=\"r\">red<\/b> marbles did your opponent report drawing? ",
            "catchKey": -1,
            "catchResponse": -1,
            "catchTime": 1681185550556,
            "trialTime": 0
        },
        {
            "exptPart": "trial",
            "trialNumber": 41,
            "roleCurrent": "receiver",
            "marblesSampled": 100,
            "probRed": 0.5,
            "practiceLambda": 5,
            "trialLambda": 21.9,
            "instructedLambda": "dishonest_big",
            "drawnRed": 72,
            "reportedRed": 98,
            "inferredRed": 24,
            "playerTrialScore": -48,
            "oppTrialScore": 0,
            "playerTotalScore": -807,
            "oppTotalScore": 735,
            "waitTime": 5828.859116928436,
            "responseTime": 1681185563008,
            "catchQuestion": "How many <b class=\"r\">red<\/b> marbles did your opponent report drawing? ",
            "catchKey": -1,
            "catchResponse": -1,
            "catchTime": 1681185550556,
            "trialTime": 0
        },
        {
            "exptPart": "trial",
            "trialNumber": 42,
            "roleCurrent": "receiver",
            "marblesSampled": 100,
            "probRed": 0.5,
            "practiceLambda": 5,
            "trialLambda": 21.9,
            "instructedLambda": "dishonest_big",
            "drawnRed": 60,
            "reportedRed": 81,
            "inferredRed": 57,
            "playerTrialScore": -3,
            "oppTrialScore": 0,
            "playerTotalScore": -810,
            "oppTotalScore": 735,
            "waitTime": 5562.371429835779,
            "responseTime": 1681185573784,
            "catchQuestion": "How many <b class=\"r\">red<\/b> marbles did your opponent report drawing? ",
            "catchKey": -1,
            "catchResponse": -1,
            "catchTime": 1681185550556,
            "trialTime": 0
        },
        {
            "exptPart": "trial",
            "trialNumber": 43,
            "roleCurrent": "receiver",
            "marblesSampled": 100,
            "probRed": 0.5,
            "practiceLambda": 5,
            "trialLambda": 21.9,
            "instructedLambda": "dishonest_big",
            "drawnRed": 45,
            "reportedRed": 72,
            "inferredRed": 72,
            "playerTrialScore": -27,
            "oppTrialScore": 27,
            "playerTotalScore": -837,
            "oppTotalScore": 762,
            "waitTime": 5448.289124290627,
            "responseTime": 1681185582843,
            "catchQuestion": "How many <b class=\"r\">red<\/b> marbles did your opponent report drawing? ",
            "catchKey": -1,
            "catchResponse": -1,
            "catchTime": 1681185550556,
            "trialTime": 0
        },
        {
            "exptPart": "trial",
            "trialNumber": 44,
            "roleCurrent": "receiver",
            "marblesSampled": 100,
            "probRed": 0.5,
            "practiceLambda": 5,
            "trialLambda": 21.9,
            "instructedLambda": "dishonest_big",
            "drawnRed": 77,
            "reportedRed": 100,
            "inferredRed": 52,
            "playerTrialScore": -25,
            "oppTrialScore": 0,
            "playerTotalScore": -862,
            "oppTotalScore": 762,
            "waitTime": 6733.117269813408,
            "responseTime": 1681185594408,
            "catchQuestion": "How many <b class=\"r\">red<\/b> marbles did your opponent report drawing? ",
            "catchKey": -1,
            "catchResponse": -1,
            "catchTime": 1681185550556,
            "trialTime": 0
        },
        {
            "exptPart": "trial",
            "trialNumber": 45,
            "roleCurrent": "receiver",
            "marblesSampled": 100,
            "probRed": 0.5,
            "practiceLambda": 5,
            "trialLambda": 21.9,
            "instructedLambda": "dishonest_big",
            "drawnRed": 87,
            "reportedRed": 100,
            "inferredRed": 61,
            "playerTrialScore": -26,
            "oppTrialScore": 0,
            "playerTotalScore": -888,
            "oppTotalScore": 762,
            "waitTime": 5703.226296195723,
            "responseTime": 1681185605237,
            "catchQuestion": "How many <b class=\"r\">red<\/b> marbles did your opponent report drawing? ",
            "catchKey": -1,
            "catchResponse": -1,
            "catchTime": 1681185550556,
            "trialTime": 0
        },
        {
            "exptPart": "trial",
            "trialNumber": 46,
            "roleCurrent": "receiver",
            "marblesSampled": 100,
            "probRed": 0.5,
            "practiceLambda": 5,
            "trialLambda": 21.9,
            "instructedLambda": "dishonest_big",
            "drawnRed": 55,
            "reportedRed": 80,
            "inferredRed": 24,
            "playerTrialScore": -31,
            "oppTrialScore": 0,
            "playerTotalScore": -919,
            "oppTotalScore": 762,
            "waitTime": 7223.785682341137,
            "responseTime": 1681185616217,
            "catchQuestion": "How many <b class=\"r\">red<\/b> marbles did your opponent report drawing? ",
            "catchKey": -1,
            "catchResponse": -1,
            "catchTime": 1681185550556,
            "trialTime": 0
        },
        {
            "exptPart": "trial",
            "trialNumber": 47,
            "roleCurrent": "receiver",
            "marblesSampled": 100,
            "probRed": 0.5,
            "practiceLambda": 5,
            "trialLambda": 21.9,
            "instructedLambda": "dishonest_big",
            "drawnRed": 31,
            "reportedRed": 50,
            "inferredRed": 36,
            "playerTrialScore": -5,
            "oppTrialScore": 5,
            "playerTotalScore": -924,
            "oppTotalScore": 767,
            "waitTime": 7077.218283385435,
            "responseTime": 1681185628098,
            "catchQuestion": "How many <b class=\"r\">red<\/b> marbles did your opponent report drawing? ",
            "catchKey": -1,
            "catchResponse": -1,
            "catchTime": 1681185550556,
            "trialTime": 0
        },
        {
            "exptPart": "trial",
            "trialNumber": 48,
            "roleCurrent": "receiver",
            "marblesSampled": 100,
            "probRed": 0.5,
            "practiceLambda": 5,
            "trialLambda": 21.9,
            "instructedLambda": "dishonest_big",
            "drawnRed": 90,
            "reportedRed": 100,
            "inferredRed": 22,
            "playerTrialScore": -68,
            "oppTrialScore": 0,
            "playerTotalScore": -992,
            "oppTotalScore": 767,
            "waitTime": 5382.624687751322,
            "responseTime": 1681185638761,
            "catchQuestion": "How many <b class=\"r\">red<\/b> marbles did your opponent report drawing? ",
            "catchKey": -1,
            "catchResponse": -1,
            "catchTime": 1681185550556,
            "trialTime": 0
        },
        {
            "exptPart": "trial",
            "trialNumber": 49,
            "roleCurrent": "receiver",
            "marblesSampled": 100,
            "probRed": 0.5,
            "practiceLambda": 5,
            "trialLambda": 21.9,
            "instructedLambda": "dishonest_big",
            "drawnRed": 59,
            "reportedRed": 79,
            "inferredRed": 82,
            "playerTrialScore": -23,
            "oppTrialScore": 23,
            "playerTotalScore": -1015,
            "oppTotalScore": 790,
            "waitTime": 5974.662815091261,
            "responseTime": 1681185661689,
            "catchQuestion": "How many <b class=\"r\">red<\/b> marbles did your opponent report drawing? ",
            "catchKey": -1,
            "catchResponse": -1,
            "catchTime": 1681185550556,
            "trialTime": 0
        },
        {
            "exptPart": "trial",
            "trialNumber": 50,
            "roleCurrent": "receiver",
            "marblesSampled": 100,
            "probRed": 0.5,
            "practiceLambda": 5,
            "trialLambda": 21.9,
            "instructedLambda": "dishonest_big",
            "drawnRed": 48,
            "reportedRed": 75,
            "inferredRed": 64,
            "playerTrialScore": -16,
            "oppTrialScore": 16,
            "playerTotalScore": -1031,
            "oppTotalScore": 806,
            "waitTime": 6007.082962148377,
            "responseTime": 1681185671548,
            "catchQuestion": "How many <b class=\"r\">red<\/b> marbles did your opponent report drawing? ",
            "catchKey": -1,
            "catchResponse": -1,
            "catchTime": 1681185671549,
            "trialTime": 0
        },
        {
            "exptPart": "trial",
            "trialNumber": 51,
            "roleCurrent": "receiver",
            "marblesSampled": 100,
            "probRed": 0.5,
            "practiceLambda": 5,
            "trialLambda": 21.9,
            "instructedLambda": "dishonest_big",
            "drawnRed": 86,
            "reportedRed": 100,
            "inferredRed": 100,
            "playerTrialScore": -14,
            "oppTrialScore": 14,
            "playerTotalScore": -1045,
            "oppTotalScore": 820,
            "waitTime": 6543.204678975529,
            "responseTime": 1681185683982,
            "catchQuestion": "How many <b class=\"r\">red<\/b> marbles did your opponent report drawing? ",
            "catchKey": -1,
            "catchResponse": -1,
            "catchTime": 1681185671549,
            "trialTime": 0
        },
        {
            "exptPart": "trial",
            "trialNumber": 52,
            "roleCurrent": "receiver",
            "marblesSampled": 100,
            "probRed": 0.5,
            "practiceLambda": 5,
            "trialLambda": 21.9,
            "instructedLambda": "dishonest_big",
            "drawnRed": 42,
            "reportedRed": 62,
            "inferredRed": 62,
            "playerTrialScore": -20,
            "oppTrialScore": 20,
            "playerTotalScore": -1065,
            "oppTotalScore": 840,
            "waitTime": 5637.099509682852,
            "responseTime": 1681185693456,
            "catchQuestion": "How many <b class=\"r\">red<\/b> marbles did your opponent report drawing? ",
            "catchKey": -1,
            "catchResponse": -1,
            "catchTime": 1681185671549,
            "trialTime": 0
        },
        {
            "exptPart": "trial",
            "trialNumber": 53,
            "roleCurrent": "receiver",
            "marblesSampled": 100,
            "probRed": 0.5,
            "practiceLambda": 5,
            "trialLambda": 21.9,
            "instructedLambda": "dishonest_big",
            "drawnRed": 43,
            "reportedRed": 59,
            "inferredRed": 59,
            "playerTrialScore": -16,
            "oppTrialScore": 16,
            "playerTotalScore": -1081,
            "oppTotalScore": 856,
            "waitTime": 5447.387579303824,
            "responseTime": 1681185703318,
            "catchQuestion": "How many <b class=\"r\">red<\/b> marbles did your opponent report drawing? ",
            "catchKey": -1,
            "catchResponse": -1,
            "catchTime": 1681185671549,
            "trialTime": 0
        },
        {
            "exptPart": "trial",
            "trialNumber": 54,
            "roleCurrent": "receiver",
            "marblesSampled": 100,
            "probRed": 0.5,
            "practiceLambda": 5,
            "trialLambda": 21.9,
            "instructedLambda": "dishonest_big",
            "drawnRed": 51,
            "reportedRed": 76,
            "inferredRed": 76,
            "playerTrialScore": -25,
            "oppTrialScore": 25,
            "playerTotalScore": -1106,
            "oppTotalScore": 881,
            "waitTime": 5392.118635821571,
            "responseTime": 1681185711456,
            "catchQuestion": "How many <b class=\"r\">red<\/b> marbles did your opponent report drawing? ",
            "catchKey": -1,
            "catchResponse": -1,
            "catchTime": 1681185671549,
            "trialTime": 0
        },
        {
            "exptPart": "trial",
            "trialNumber": 55,
            "roleCurrent": "receiver",
            "marblesSampled": 100,
            "probRed": 0.5,
            "practiceLambda": 5,
            "trialLambda": 21.9,
            "instructedLambda": "dishonest_big",
            "drawnRed": 37,
            "reportedRed": 53,
            "inferredRed": 53,
            "playerTrialScore": -16,
            "oppTrialScore": 16,
            "playerTotalScore": -1122,
            "oppTotalScore": 897,
            "waitTime": 5171.90691222052,
            "responseTime": 1681185722637,
            "catchQuestion": "How many <b class=\"r\">red<\/b> marbles did your opponent report drawing? ",
            "catchKey": -1,
            "catchResponse": -1,
            "catchTime": 1681185671549,
            "trialTime": 0
        },
        {
            "exptPart": "trial",
            "trialNumber": 56,
            "roleCurrent": "receiver",
            "marblesSampled": 100,
            "probRed": 0.5,
            "practiceLambda": 5,
            "trialLambda": 21.9,
            "instructedLambda": "dishonest_big",
            "drawnRed": 66,
            "reportedRed": 84,
            "inferredRed": 84,
            "playerTrialScore": -18,
            "oppTrialScore": 18,
            "playerTotalScore": -1140,
            "oppTotalScore": 915,
            "waitTime": 5183.077001290312,
            "responseTime": 1681185734533,
            "catchQuestion": "How many <b class=\"r\">red<\/b> marbles did your opponent report drawing? ",
            "catchKey": -1,
            "catchResponse": -1,
            "catchTime": 1681185671549,
            "trialTime": 0
        },
        {
            "exptPart": "trial",
            "trialNumber": 57,
            "roleCurrent": "receiver",
            "marblesSampled": 100,
            "probRed": 0.5,
            "practiceLambda": 5,
            "trialLambda": 21.9,
            "instructedLambda": "dishonest_big",
            "drawnRed": 21,
            "reportedRed": 47,
            "inferredRed": 47,
            "playerTrialScore": -26,
            "oppTrialScore": 26,
            "playerTotalScore": -1166,
            "oppTotalScore": 941,
            "waitTime": 5741.61612745987,
            "responseTime": 1681185742855,
            "catchQuestion": "How many <b class=\"r\">red<\/b> marbles did your opponent report drawing? ",
            "catchKey": -1,
            "catchResponse": -1,
            "catchTime": 1681185671549,
            "trialTime": 0
        },
        {
            "exptPart": "trial",
            "trialNumber": 58,
            "roleCurrent": "receiver",
            "marblesSampled": 100,
            "probRed": 0.5,
            "practiceLambda": 5,
            "trialLambda": 21.9,
            "instructedLambda": "dishonest_big",
            "drawnRed": 25,
            "reportedRed": 46,
            "inferredRed": 46,
            "playerTrialScore": -21,
            "oppTrialScore": 21,
            "playerTotalScore": -1187,
            "oppTotalScore": 962,
            "waitTime": 7046.145328661686,
            "responseTime": 1681185752548,
            "catchQuestion": "How many <b class=\"r\">red<\/b> marbles did your opponent report drawing? ",
            "catchKey": -1,
            "catchResponse": -1,
            "catchTime": 1681185671549,
            "trialTime": 0
        },
        {
            "exptPart": "trial",
            "trialNumber": 59,
            "roleCurrent": "receiver",
            "marblesSampled": 100,
            "probRed": 0.5,
            "practiceLambda": 5,
            "trialLambda": 21.9,
            "instructedLambda": "dishonest_big",
            "drawnRed": 42,
            "reportedRed": 70,
            "inferredRed": 70,
            "playerTrialScore": -28,
            "oppTrialScore": 28,
            "playerTotalScore": -1215,
            "oppTotalScore": 990,
            "waitTime": 5919.801027764307,
            "responseTime": 1681185761842,
            "catchQuestion": "How many <b class=\"r\">red<\/b> marbles did your opponent report drawing? ",
            "catchKey": -1,
            "catchResponse": -1,
            "catchTime": 1681185671549,
            "trialTime": 0
        },
        {
            "exptPart": "trial",
            "trialNumber": 60,
            "roleCurrent": "receiver",
            "marblesSampled": 100,
            "probRed": 0.5,
            "practiceLambda": 5,
            "trialLambda": 21.9,
            "instructedLambda": "dishonest_big",
            "drawnRed": 42,
            "reportedRed": 65,
            "inferredRed": 65,
            "playerTrialScore": -23,
            "oppTrialScore": 23,
            "playerTotalScore": -1238,
            "oppTotalScore": 1013,
            "waitTime": 5423.575798363308,
            "responseTime": 1681185776129,
            "catchQuestion": "How many <b class=\"r\">red<\/b> marbles did your opponent report drawing? ",
            "catchKey": -1,
            "catchResponse": -1,
            "catchTime": 1681185776129,
            "trialTime": 0
        },
        {
            "exptPart": "trial",
            "trialNumber": 61,
            "roleCurrent": "receiver",
            "marblesSampled": 100,
            "probRed": 0.5,
            "practiceLambda": 5,
            "trialLambda": 21.9,
            "instructedLambda": "dishonest_big",
            "drawnRed": 45,
            "reportedRed": 68,
            "inferredRed": 68,
            "playerTrialScore": -23,
            "oppTrialScore": 23,
            "playerTotalScore": -1261,
            "oppTotalScore": 1036,
            "waitTime": 6763.893430088874,
            "responseTime": 1681185800863,
            "catchQuestion": "How many <b class=\"r\">red<\/b> marbles did your opponent report drawing? ",
            "catchKey": -1,
            "catchResponse": -1,
            "catchTime": 1681185776129,
            "trialTime": 0
        },
        {
            "exptPart": "trial",
            "trialNumber": 62,
            "roleCurrent": "receiver",
            "marblesSampled": 100,
            "probRed": 0.5,
            "practiceLambda": 5,
            "trialLambda": 21.9,
            "instructedLambda": "dishonest_big",
            "drawnRed": 64,
            "reportedRed": 82,
            "inferredRed": 44,
            "playerTrialScore": -20,
            "oppTrialScore": 0,
            "playerTotalScore": -1281,
            "oppTotalScore": 1036,
            "waitTime": 5657.005417978652,
            "responseTime": 1681185809286,
            "catchQuestion": "How many <b class=\"r\">red<\/b> marbles did your opponent report drawing? ",
            "catchKey": -1,
            "catchResponse": -1,
            "catchTime": 1681185776129,
            "trialTime": 0
        },
        {
            "exptPart": "trial",
            "trialNumber": 63,
            "roleCurrent": "receiver",
            "marblesSampled": 100,
            "probRed": 0.5,
            "practiceLambda": 5,
            "trialLambda": 21.9,
            "instructedLambda": "dishonest_big",
            "drawnRed": 74,
            "reportedRed": 91,
            "inferredRed": 65,
            "playerTrialScore": -9,
            "oppTrialScore": 0,
            "playerTotalScore": -1290,
            "oppTotalScore": 1036,
            "waitTime": 5219.985284504635,
            "responseTime": 1681185818293,
            "catchQuestion": "How many <b class=\"r\">red<\/b> marbles did your opponent report drawing? ",
            "catchKey": -1,
            "catchResponse": -1,
            "catchTime": 1681185776129,
            "trialTime": 0
        },
        {
            "exptPart": "trial",
            "trialNumber": 64,
            "roleCurrent": "receiver",
            "marblesSampled": 100,
            "probRed": 0.5,
            "practiceLambda": 5,
            "trialLambda": 21.9,
            "instructedLambda": "dishonest_big",
            "drawnRed": 66,
            "reportedRed": 84,
            "inferredRed": 55,
            "playerTrialScore": -11,
            "oppTrialScore": 0,
            "playerTotalScore": -1301,
            "oppTotalScore": 1036,
            "waitTime": 6044.159098938126,
            "responseTime": 1681185828804,
            "catchQuestion": "How many <b class=\"r\">red<\/b> marbles did your opponent report drawing? ",
            "catchKey": -1,
            "catchResponse": -1,
            "catchTime": 1681185776129,
            "trialTime": 0
        },
        {
            "exptPart": "trial",
            "trialNumber": 65,
            "roleCurrent": "receiver",
            "marblesSampled": 100,
            "probRed": 0.5,
            "practiceLambda": 5,
            "trialLambda": 21.9,
            "instructedLambda": "dishonest_big",
            "drawnRed": 51,
            "reportedRed": 78,
            "inferredRed": 72,
            "playerTrialScore": -21,
            "oppTrialScore": 21,
            "playerTotalScore": -1322,
            "oppTotalScore": 1057,
            "waitTime": 5232.795409073267,
            "responseTime": 1681185842174,
            "catchQuestion": "How many <b class=\"r\">red<\/b> marbles did your opponent report drawing? ",
            "catchKey": 78,
            "catchResponse": 56,
            "catchTime": 1681185842174,
            "trialTime": 0
        },
        {
            "exptPart": "trial",
            "trialNumber": 66,
            "roleCurrent": "receiver",
            "marblesSampled": 100,
            "probRed": 0.5,
            "practiceLambda": 5,
            "trialLambda": 21.9,
            "instructedLambda": "dishonest_big",
            "drawnRed": 61,
            "reportedRed": 85,
            "inferredRed": 85,
            "playerTrialScore": -24,
            "oppTrialScore": 24,
            "playerTotalScore": -1346,
            "oppTotalScore": 1081,
            "waitTime": 6746.227950057832,
            "responseTime": 1681185864734,
            "catchQuestion": "How many <b class=\"r\">red<\/b> marbles did your opponent report drawing? ",
            "catchKey": -1,
            "catchResponse": -1,
            "catchTime": 1681185842174,
            "trialTime": 0
        },
        {
            "exptPart": "trial",
            "trialNumber": 67,
            "roleCurrent": "receiver",
            "marblesSampled": 100,
            "probRed": 0.5,
            "practiceLambda": 5,
            "trialLambda": 21.9,
            "instructedLambda": "dishonest_big",
            "drawnRed": 80,
            "reportedRed": 97,
            "inferredRed": 74,
            "playerTrialScore": -6,
            "oppTrialScore": 0,
            "playerTotalScore": -1352,
            "oppTotalScore": 1081,
            "waitTime": 5487.80607563396,
            "responseTime": 1681185874660,
            "catchQuestion": "How many <b class=\"r\">red<\/b> marbles did your opponent report drawing? ",
            "catchKey": -1,
            "catchResponse": -1,
            "catchTime": 1681185842174,
            "trialTime": 0
        },
        {
            "exptPart": "trial",
            "trialNumber": 68,
            "roleCurrent": "receiver",
            "marblesSampled": 100,
            "probRed": 0.5,
            "practiceLambda": 5,
            "trialLambda": 21.9,
            "instructedLambda": "dishonest_big",
            "drawnRed": 28,
            "reportedRed": 52,
            "inferredRed": 52,
            "playerTrialScore": -24,
            "oppTrialScore": 24,
            "playerTotalScore": -1376,
            "oppTotalScore": 1105,
            "waitTime": 7226.085986069835,
            "responseTime": 1681185885560,
            "catchQuestion": "How many <b class=\"r\">red<\/b> marbles did your opponent report drawing? ",
            "catchKey": -1,
            "catchResponse": -1,
            "catchTime": 1681185842174,
            "trialTime": 0
        },
        {
            "exptPart": "trial",
            "trialNumber": 69,
            "roleCurrent": "receiver",
            "marblesSampled": 100,
            "probRed": 0.5,
            "practiceLambda": 5,
            "trialLambda": 21.9,
            "instructedLambda": "dishonest_big",
            "drawnRed": 50,
            "reportedRed": 77,
            "inferredRed": 77,
            "playerTrialScore": -27,
            "oppTrialScore": 27,
            "playerTotalScore": -1403,
            "oppTotalScore": 1132,
            "waitTime": 5448.1878562634665,
            "responseTime": 1681185893678,
            "catchQuestion": "How many <b class=\"r\">red<\/b> marbles did your opponent report drawing? ",
            "catchKey": 77,
            "catchResponse": 77,
            "catchTime": 1681185893679,
            "trialTime": 0
        },
        {
            "exptPart": "trial",
            "trialNumber": 70,
            "roleCurrent": "receiver",
            "marblesSampled": 100,
            "probRed": 0.5,
            "practiceLambda": 5,
            "trialLambda": 21.9,
            "instructedLambda": "dishonest_big",
            "drawnRed": 39,
            "reportedRed": 59,
            "inferredRed": 59,
            "playerTrialScore": -20,
            "oppTrialScore": 20,
            "playerTotalScore": -1423,
            "oppTotalScore": 1152,
            "waitTime": 5442.963228952844,
            "responseTime": 1681185906229,
            "catchQuestion": "How many <b class=\"r\">red<\/b> marbles did your opponent report drawing? ",
            "catchKey": 59,
            "catchResponse": 59,
            "catchTime": 1681185906229,
            "trialTime": 0
        },
        {
            "exptPart": "trial",
            "trialNumber": 71,
            "roleCurrent": "receiver",
            "marblesSampled": 100,
            "probRed": 0.5,
            "practiceLambda": 5,
            "trialLambda": 21.9,
            "instructedLambda": "dishonest_big",
            "drawnRed": 34,
            "reportedRed": 53,
            "inferredRed": 51,
            "playerTrialScore": -17,
            "oppTrialScore": 17,
            "playerTotalScore": -1440,
            "oppTotalScore": 1169,
            "waitTime": 5812.008677185671,
            "responseTime": 1681185921253,
            "catchQuestion": "How many <b class=\"r\">red<\/b> marbles did your opponent report drawing? ",
            "catchKey": -1,
            "catchResponse": -1,
            "catchTime": 1681185906229,
            "trialTime": 0
        },
        {
            "exptPart": "trial",
            "trialNumber": 72,
            "roleCurrent": "receiver",
            "marblesSampled": 100,
            "probRed": 0.5,
            "practiceLambda": 5,
            "trialLambda": 21.9,
            "instructedLambda": "dishonest_big",
            "drawnRed": 10,
            "reportedRed": 28,
            "inferredRed": 22,
            "playerTrialScore": -12,
            "oppTrialScore": 12,
            "playerTotalScore": -1452,
            "oppTotalScore": 1181,
            "waitTime": 5710.204540447106,
            "responseTime": 1681185930460,
            "catchQuestion": "How many <b class=\"r\">red<\/b> marbles did your opponent report drawing? ",
            "catchKey": -1,
            "catchResponse": -1,
            "catchTime": 1681185906229,
            "trialTime": 0
        },
        {
            "exptPart": "trial",
            "trialNumber": 73,
            "roleCurrent": "receiver",
            "marblesSampled": 100,
            "probRed": 0.5,
            "practiceLambda": 5,
            "trialLambda": 21.9,
            "instructedLambda": "dishonest_big",
            "drawnRed": 21,
            "reportedRed": 49,
            "inferredRed": 44,
            "playerTrialScore": -23,
            "oppTrialScore": 23,
            "playerTotalScore": -1475,
            "oppTotalScore": 1204,
            "waitTime": 7396.6929832556325,
            "responseTime": 1681185940386,
            "catchQuestion": "How many <b class=\"r\">red<\/b> marbles did your opponent report drawing? ",
            "catchKey": 49,
            "catchResponse": 49,
            "catchTime": 1681185940386,
            "trialTime": 0
        },
        {
            "exptPart": "trial",
            "trialNumber": 74,
            "roleCurrent": "receiver",
            "marblesSampled": 100,
            "probRed": 0.5,
            "practiceLambda": 5,
            "trialLambda": 21.9,
            "instructedLambda": "dishonest_big",
            "drawnRed": 39,
            "reportedRed": 63,
            "inferredRed": 62,
            "playerTrialScore": -23,
            "oppTrialScore": 23,
            "playerTotalScore": -1498,
            "oppTotalScore": 1227,
            "waitTime": 6250.62255024634,
            "responseTime": 1681185955244,
            "catchQuestion": "How many <b class=\"r\">red<\/b> marbles did your opponent report drawing? ",
            "catchKey": -1,
            "catchResponse": -1,
            "catchTime": 1681185940386,
            "trialTime": 0
        },
        {
            "exptPart": "trial",
            "trialNumber": 75,
            "roleCurrent": "receiver",
            "marblesSampled": 100,
            "probRed": 0.5,
            "practiceLambda": 5,
            "trialLambda": 21.9,
            "instructedLambda": "dishonest_big",
            "drawnRed": 40,
            "reportedRed": 62,
            "inferredRed": 77,
            "playerTrialScore": -37,
            "oppTrialScore": 37,
            "playerTotalScore": -1535,
            "oppTotalScore": 1264,
            "waitTime": 7457.109151097777,
            "responseTime": 1681185966074,
            "catchQuestion": "How many <b class=\"r\">red<\/b> marbles did your opponent report drawing? ",
            "catchKey": -1,
            "catchResponse": -1,
            "catchTime": 1681185940386,
            "trialTime": 0
        },
        {
            "exptPart": "trial",
            "trialNumber": 76,
            "roleCurrent": "receiver",
            "marblesSampled": 100,
            "probRed": 0.5,
            "practiceLambda": 5,
            "trialLambda": 21.9,
            "instructedLambda": "dishonest_big",
            "drawnRed": 77,
            "reportedRed": 94,
            "inferredRed": 88,
            "playerTrialScore": -11,
            "oppTrialScore": 11,
            "playerTotalScore": -1546,
            "oppTotalScore": 1275,
            "waitTime": 6098.833742489437,
            "responseTime": 1681185975699,
            "catchQuestion": "How many <b class=\"r\">red<\/b> marbles did your opponent report drawing? ",
            "catchKey": -1,
            "catchResponse": -1,
            "catchTime": 1681185940386,
            "trialTime": 0
        },
        {
            "exptPart": "trial",
            "trialNumber": 77,
            "roleCurrent": "receiver",
            "marblesSampled": 100,
            "probRed": 0.5,
            "practiceLambda": 5,
            "trialLambda": 21.9,
            "instructedLambda": "dishonest_big",
            "drawnRed": 37,
            "reportedRed": 55,
            "inferredRed": 53,
            "playerTrialScore": -16,
            "oppTrialScore": 16,
            "playerTotalScore": -1562,
            "oppTotalScore": 1291,
            "waitTime": 5978.5816900673235,
            "responseTime": 1681185985743,
            "catchQuestion": "How many <b class=\"r\">red<\/b> marbles did your opponent report drawing? ",
            "catchKey": -1,
            "catchResponse": -1,
            "catchTime": 1681185940386,
            "trialTime": 0
        },
        {
            "exptPart": "trial",
            "trialNumber": 78,
            "roleCurrent": "receiver",
            "marblesSampled": 100,
            "probRed": 0.5,
            "practiceLambda": 5,
            "trialLambda": 21.9,
            "instructedLambda": "dishonest_big",
            "drawnRed": 36,
            "reportedRed": 64,
            "inferredRed": 59,
            "playerTrialScore": -23,
            "oppTrialScore": 23,
            "playerTotalScore": -1585,
            "oppTotalScore": 1314,
            "waitTime": 5150.829945588683,
            "responseTime": 1681185998744,
            "catchQuestion": "How many <b class=\"r\">red<\/b> marbles did your opponent report drawing? ",
            "catchKey": -1,
            "catchResponse": -1,
            "catchTime": 1681185940386,
            "trialTime": 0
        },
        {
            "exptPart": "trial",
            "trialNumber": 79,
            "roleCurrent": "receiver",
            "marblesSampled": 100,
            "probRed": 0.5,
            "practiceLambda": 5,
            "trialLambda": 21.9,
            "instructedLambda": "dishonest_big",
            "drawnRed": 64,
            "reportedRed": 89,
            "inferredRed": 83,
            "playerTrialScore": -19,
            "oppTrialScore": 19,
            "playerTotalScore": -1604,
            "oppTotalScore": 1333,
            "waitTime": 7310.529682857213,
            "responseTime": 1681186013034,
            "catchQuestion": "How many <b class=\"r\">red<\/b> marbles did your opponent report drawing? ",
            "catchKey": -1,
            "catchResponse": -1,
            "catchTime": 1681185940386,
            "trialTime": 0
        },
        {
            "exptPart": "trial",
            "trialNumber": 80,
            "roleCurrent": "receiver",
            "marblesSampled": 100,
            "probRed": 0.5,
            "practiceLambda": 5,
            "trialLambda": 21.9,
            "instructedLambda": "dishonest_big",
            "drawnRed": 46,
            "reportedRed": 72,
            "inferredRed": 67,
            "playerTrialScore": -21,
            "oppTrialScore": 21,
            "playerTotalScore": -1625,
            "oppTotalScore": 1354,
            "waitTime": 6754.445258459533,
            "responseTime": 1681186022771,
            "catchQuestion": "How many <b class=\"r\">red<\/b> marbles did your opponent report drawing? ",
            "catchKey": -1,
            "catchResponse": -1,
            "catchTime": 1681186022771,
            "trialTime": 0
        },
        {
            "exptPart": "trial",
            "trialNumber": 81,
            "roleCurrent": "receiver",
            "marblesSampled": 100,
            "probRed": 0.5,
            "practiceLambda": 5,
            "trialLambda": 21.9,
            "instructedLambda": "dishonest_big",
            "drawnRed": 42,
            "reportedRed": 63,
            "inferredRed": 63,
            "playerTrialScore": -21,
            "oppTrialScore": 21,
            "playerTotalScore": -1646,
            "oppTotalScore": 1375,
            "waitTime": 5877.628994620796,
            "responseTime": 1681186033471,
            "catchQuestion": "How many <b class=\"r\">red<\/b> marbles did your opponent report drawing? ",
            "catchKey": -1,
            "catchResponse": -1,
            "catchTime": 1681186022771,
            "trialTime": 0
        },
        {
            "exptPart": "trial",
            "trialNumber": 82,
            "roleCurrent": "receiver",
            "marblesSampled": 100,
            "probRed": 0.5,
            "practiceLambda": 5,
            "trialLambda": 21.9,
            "instructedLambda": "dishonest_big",
            "drawnRed": 62,
            "reportedRed": 80,
            "inferredRed": 75,
            "playerTrialScore": -13,
            "oppTrialScore": 13,
            "playerTotalScore": -1659,
            "oppTotalScore": 1388,
            "waitTime": 5140.345489020058,
            "responseTime": 1681186045537,
            "catchQuestion": "How many <b class=\"r\">red<\/b> marbles did your opponent report drawing? ",
            "catchKey": -1,
            "catchResponse": -1,
            "catchTime": 1681186022771,
            "trialTime": 0
        },
        {
            "exptPart": "trial",
            "trialNumber": 83,
            "roleCurrent": "receiver",
            "marblesSampled": 100,
            "probRed": 0.5,
            "practiceLambda": 5,
            "trialLambda": 21.9,
            "instructedLambda": "dishonest_big",
            "drawnRed": 32,
            "reportedRed": 46,
            "inferredRed": 51,
            "playerTrialScore": -19,
            "oppTrialScore": 19,
            "playerTotalScore": -1678,
            "oppTotalScore": 1407,
            "waitTime": 7425.276627668275,
            "responseTime": 1681186055831,
            "catchQuestion": "How many <b class=\"r\">red<\/b> marbles did your opponent report drawing? ",
            "catchKey": 46,
            "catchResponse": 46,
            "catchTime": 1681186055831,
            "trialTime": 0
        },
        {
            "exptPart": "trial",
            "trialNumber": 84,
            "roleCurrent": "receiver",
            "marblesSampled": 100,
            "probRed": 0.5,
            "practiceLambda": 5,
            "trialLambda": 21.9,
            "instructedLambda": "dishonest_big",
            "drawnRed": 31,
            "reportedRed": 52,
            "inferredRed": 47,
            "playerTrialScore": -16,
            "oppTrialScore": 16,
            "playerTotalScore": -1694,
            "oppTotalScore": 1423,
            "waitTime": 5246.372900380277,
            "responseTime": 1681186069000,
            "catchQuestion": "How many <b class=\"r\">red<\/b> marbles did your opponent report drawing? ",
            "catchKey": 52,
            "catchResponse": 52,
            "catchTime": 1681186069000,
            "trialTime": 0
        },
        {
            "exptPart": "trial",
            "trialNumber": 85,
            "roleCurrent": "receiver",
            "marblesSampled": 100,
            "probRed": 0.5,
            "practiceLambda": 5,
            "trialLambda": 21.9,
            "instructedLambda": "dishonest_big",
            "drawnRed": 51,
            "reportedRed": 79,
            "inferredRed": 73,
            "playerTrialScore": -22,
            "oppTrialScore": 22,
            "playerTotalScore": -1716,
            "oppTotalScore": 1445,
            "waitTime": 6640.937847037442,
            "responseTime": 1681186083322,
            "catchQuestion": "How many <b class=\"r\">red<\/b> marbles did your opponent report drawing? ",
            "catchKey": -1,
            "catchResponse": -1,
            "catchTime": 1681186069000,
            "trialTime": 0
        },
        {
            "exptPart": "trial",
            "trialNumber": 86,
            "roleCurrent": "receiver",
            "marblesSampled": 100,
            "probRed": 0.5,
            "practiceLambda": 5,
            "trialLambda": 21.9,
            "instructedLambda": "dishonest_big",
            "drawnRed": 79,
            "reportedRed": 100,
            "inferredRed": 66,
            "playerTrialScore": -13,
            "oppTrialScore": 0,
            "playerTotalScore": -1729,
            "oppTotalScore": 1445,
            "waitTime": 5982.152032953595,
            "responseTime": 1681186093733,
            "catchQuestion": "How many <b class=\"r\">red<\/b> marbles did your opponent report drawing? ",
            "catchKey": -1,
            "catchResponse": -1,
            "catchTime": 1681186069000,
            "trialTime": 0
        },
        {
            "exptPart": "trial",
            "trialNumber": 87,
            "roleCurrent": "receiver",
            "marblesSampled": 100,
            "probRed": 0.5,
            "practiceLambda": 5,
            "trialLambda": 21.9,
            "instructedLambda": "dishonest_big",
            "drawnRed": 75,
            "reportedRed": 100,
            "inferredRed": 22,
            "playerTrialScore": -53,
            "oppTrialScore": 0,
            "playerTotalScore": -1782,
            "oppTotalScore": 1445,
            "waitTime": 5332.739640480475,
            "responseTime": 1681186101888,
            "catchQuestion": "How many <b class=\"r\">red<\/b> marbles did your opponent report drawing? ",
            "catchKey": -1,
            "catchResponse": -1,
            "catchTime": 1681186069000,
            "trialTime": 0
        },
        {
            "exptPart": "trial",
            "trialNumber": 88,
            "roleCurrent": "receiver",
            "marblesSampled": 100,
            "probRed": 0.5,
            "practiceLambda": 5,
            "trialLambda": 21.9,
            "instructedLambda": "dishonest_big",
            "drawnRed": 40,
            "reportedRed": 55,
            "inferredRed": 59,
            "playerTrialScore": -19,
            "oppTrialScore": 19,
            "playerTotalScore": -1801,
            "oppTotalScore": 1464,
            "waitTime": 6540.066618388118,
            "responseTime": 1681186113118,
            "catchQuestion": "How many <b class=\"r\">red<\/b> marbles did your opponent report drawing? ",
            "catchKey": -1,
            "catchResponse": -1,
            "catchTime": 1681186069000,
            "trialTime": 0
        },
        {
            "exptPart": "trial",
            "trialNumber": 89,
            "roleCurrent": "receiver",
            "marblesSampled": 100,
            "probRed": 0.5,
            "practiceLambda": 5,
            "trialLambda": 21.9,
            "instructedLambda": "dishonest_big",
            "drawnRed": 46,
            "reportedRed": 65,
            "inferredRed": 61,
            "playerTrialScore": -15,
            "oppTrialScore": 15,
            "playerTotalScore": -1816,
            "oppTotalScore": 1479,
            "waitTime": 5243.286820596591,
            "responseTime": 1681186121575,
            "catchQuestion": "How many <b class=\"r\">red<\/b> marbles did your opponent report drawing? ",
            "catchKey": -1,
            "catchResponse": -1,
            "catchTime": 1681186069000,
            "trialTime": 0
        },
        {
            "exptPart": "trial",
            "trialNumber": 90,
            "roleCurrent": "receiver",
            "marblesSampled": 100,
            "probRed": 0.5,
            "practiceLambda": 5,
            "trialLambda": 21.9,
            "instructedLambda": "dishonest_big",
            "drawnRed": 72,
            "reportedRed": 98,
            "inferredRed": 96,
            "playerTrialScore": -24,
            "oppTrialScore": 24,
            "playerTotalScore": -1840,
            "oppTotalScore": 1503,
            "waitTime": 6829.463818789698,
            "responseTime": 1681186138704,
            "catchQuestion": "How many <b class=\"r\">red<\/b> marbles did your opponent report drawing? ",
            "catchKey": -1,
            "catchResponse": -1,
            "catchTime": 1681186138704,
            "trialTime": 0
        },
        {
            "exptPart": "trial",
            "trialNumber": 91,
            "roleCurrent": "receiver",
            "marblesSampled": 100,
            "probRed": 0.5,
            "practiceLambda": 5,
            "trialLambda": 21.9,
            "instructedLambda": "dishonest_big",
            "drawnRed": 80,
            "reportedRed": 99,
            "inferredRed": 94,
            "playerTrialScore": -14,
            "oppTrialScore": 14,
            "playerTotalScore": -1854,
            "oppTotalScore": 1517,
            "waitTime": 6107.011557883607,
            "responseTime": 1681186151505,
            "catchQuestion": "How many <b class=\"r\">red<\/b> marbles did your opponent report drawing? ",
            "catchKey": -1,
            "catchResponse": -1,
            "catchTime": 1681186138704,
            "trialTime": 0
        },
        {
            "exptPart": "trial",
            "trialNumber": 92,
            "roleCurrent": "receiver",
            "marblesSampled": 100,
            "probRed": 0.5,
            "practiceLambda": 5,
            "trialLambda": 21.9,
            "instructedLambda": "dishonest_big",
            "drawnRed": 34,
            "reportedRed": 52,
            "inferredRed": 52,
            "playerTrialScore": -18,
            "oppTrialScore": 18,
            "playerTotalScore": -1872,
            "oppTotalScore": 1535,
            "waitTime": 6726.572366475308,
            "responseTime": 1681186161599,
            "catchQuestion": "How many <b class=\"r\">red<\/b> marbles did your opponent report drawing? ",
            "catchKey": -1,
            "catchResponse": -1,
            "catchTime": 1681186138704,
            "trialTime": 0
        },
        {
            "exptPart": "trial",
            "trialNumber": 93,
            "roleCurrent": "receiver",
            "marblesSampled": 100,
            "probRed": 0.5,
            "practiceLambda": 5,
            "trialLambda": 21.9,
            "instructedLambda": "dishonest_big",
            "drawnRed": 58,
            "reportedRed": 81,
            "inferredRed": 77,
            "playerTrialScore": -19,
            "oppTrialScore": 19,
            "playerTotalScore": -1891,
            "oppTotalScore": 1554,
            "waitTime": 5712.52853123368,
            "responseTime": 1681186170372,
            "catchQuestion": "How many <b class=\"r\">red<\/b> marbles did your opponent report drawing? ",
            "catchKey": -1,
            "catchResponse": -1,
            "catchTime": 1681186138704,
            "trialTime": 0
        },
        {
            "exptPart": "trial",
            "trialNumber": 94,
            "roleCurrent": "receiver",
            "marblesSampled": 100,
            "probRed": 0.5,
            "practiceLambda": 5,
            "trialLambda": 21.9,
            "instructedLambda": "dishonest_big",
            "drawnRed": 66,
            "reportedRed": 86,
            "inferredRed": 85,
            "playerTrialScore": -19,
            "oppTrialScore": 19,
            "playerTotalScore": -1910,
            "oppTotalScore": 1573,
            "waitTime": 6588.021845256581,
            "responseTime": 1681186183124,
            "catchQuestion": "How many <b class=\"r\">red<\/b> marbles did your opponent report drawing? ",
            "catchKey": -1,
            "catchResponse": -1,
            "catchTime": 1681186138704,
            "trialTime": 0
        },
        {
            "exptPart": "trial",
            "trialNumber": 95,
            "roleCurrent": "receiver",
            "marblesSampled": 100,
            "probRed": 0.5,
            "practiceLambda": 5,
            "trialLambda": 21.9,
            "instructedLambda": "dishonest_big",
            "drawnRed": 75,
            "reportedRed": 98,
            "inferredRed": 95,
            "playerTrialScore": -20,
            "oppTrialScore": 20,
            "playerTotalScore": -1930,
            "oppTotalScore": 1593,
            "waitTime": 6310.984490944096,
            "responseTime": 1681186196810,
            "catchQuestion": "How many <b class=\"r\">red<\/b> marbles did your opponent report drawing? ",
            "catchKey": 98,
            "catchResponse": 98,
            "catchTime": 1681186196810,
            "trialTime": 0
        },
        {
            "exptPart": "trial",
            "trialNumber": 96,
            "roleCurrent": "receiver",
            "marblesSampled": 100,
            "probRed": 0.5,
            "practiceLambda": 5,
            "trialLambda": 21.9,
            "instructedLambda": "dishonest_big",
            "drawnRed": 74,
            "reportedRed": 100,
            "inferredRed": 100,
            "playerTrialScore": -26,
            "oppTrialScore": 26,
            "playerTotalScore": -1956,
            "oppTotalScore": 1619,
            "waitTime": 7325.333783667781,
            "responseTime": 1681186213287,
            "catchQuestion": "How many <b class=\"r\">red<\/b> marbles did your opponent report drawing? ",
            "catchKey": -1,
            "catchResponse": -1,
            "catchTime": 1681186196810,
            "trialTime": 0
        },
        {
            "exptPart": "trial",
            "trialNumber": 97,
            "roleCurrent": "receiver",
            "marblesSampled": 100,
            "probRed": 0.5,
            "practiceLambda": 5,
            "trialLambda": 21.9,
            "instructedLambda": "dishonest_big",
            "drawnRed": 63,
            "reportedRed": 82,
            "inferredRed": 77,
            "playerTrialScore": -14,
            "oppTrialScore": 14,
            "playerTotalScore": -1970,
            "oppTotalScore": 1633,
            "waitTime": 5212.440612796901,
            "responseTime": 1681186221609,
            "catchQuestion": "How many <b class=\"r\">red<\/b> marbles did your opponent report drawing? ",
            "catchKey": -1,
            "catchResponse": -1,
            "catchTime": 1681186196810,
            "trialTime": 0
        },
        {
            "exptPart": "trial",
            "trialNumber": 98,
            "roleCurrent": "receiver",
            "marblesSampled": 100,
            "probRed": 0.5,
            "practiceLambda": 5,
            "trialLambda": 21.9,
            "instructedLambda": "dishonest_big",
            "drawnRed": 39,
            "reportedRed": 62,
            "inferredRed": 64,
            "playerTrialScore": -25,
            "oppTrialScore": 25,
            "playerTotalScore": -1995,
            "oppTotalScore": 1658,
            "waitTime": 5710.418201002944,
            "responseTime": 1681186229832,
            "catchQuestion": "How many <b class=\"r\">red<\/b> marbles did your opponent report drawing? ",
            "catchKey": -1,
            "catchResponse": -1,
            "catchTime": 1681186196810,
            "trialTime": 0
        },
        {
            "exptPart": "trial",
            "trialNumber": 99,
            "roleCurrent": "receiver",
            "marblesSampled": 100,
            "probRed": 0.5,
            "practiceLambda": 5,
            "trialLambda": 21.9,
            "instructedLambda": "dishonest_big",
            "drawnRed": 65,
            "reportedRed": 82,
            "inferredRed": 78,
            "playerTrialScore": -13,
            "oppTrialScore": 13,
            "playerTotalScore": -2008,
            "oppTotalScore": 1671,
            "waitTime": 6403.924333018419,
            "responseTime": 1681186239526,
            "catchQuestion": "How many <b class=\"r\">red<\/b> marbles did your opponent report drawing? ",
            "catchKey": -1,
            "catchResponse": -1,
            "catchTime": 1681186196810,
            "trialTime": 0
        },
        {
            "exptPart": "trial",
            "trialNumber": 100,
            "roleCurrent": "receiver",
            "marblesSampled": 100,
            "probRed": 0.5,
            "practiceLambda": 5,
            "trialLambda": 21.9,
            "instructedLambda": "dishonest_big",
            "drawnRed": 38,
            "reportedRed": 64,
            "inferredRed": 64,
            "playerTrialScore": -26,
            "oppTrialScore": 26,
            "playerTotalScore": -2034,
            "oppTotalScore": 1697,
            "waitTime": 6526.882989161531,
            "responseTime": 1681186249185,
            "catchQuestion": "How many <b class=\"r\">red<\/b> marbles did your opponent report drawing? ",
            "catchKey": -1,
            "catchResponse": -1,
            "catchTime": 1681186249185,
            "trialTime": 0
        }
    ]
}