{
    "client": {
        "type": "sona",
        "experiment_id": 2488,
        "credit_token": "79d15902e9034cb6b65a542be205401c",
        "survey_code": "44945",
        "sid": "sona-44945",
        "window": {
            "width": 1792,
            "height": 1007
        },
        "screen": {
            "width": 1792,
            "height": 1120
        },
        "userAgent": "Mozilla\/5.0 (Macintosh; Intel Mac OS X 10.15; rv:109.0) Gecko\/20100101 Firefox\/109.0",
        "score": 0,
        "bonus": 0
    },
    "expt": {
        "saveURL": "submit.simple.php",
        "trials": 100,
        "practiceTrials": 2,
        "marblesSampled": 100,
        "probRed": 0.5,
        "practiceLambdaAI": 5,
        "lambdaAI": 0.3,
        "roles": [
            "sender",
            "receiver"
        ],
        "cost": "unif",
        "goal": "over",
        "oppDishonesty": "dishonest_big",
        "catchTrials": [
            33,
            11,
            23,
            67,
            87,
            92,
            25,
            96,
            17,
            0
        ],
        "scoreTotal": {
            "player": -926,
            "opp": 363
        },
        "sona": {
            "experiment_id": 2488,
            "credit_token": "79d15902e9034cb6b65a542be205401c"
        },
        "pilot": false,
        "debug": false
    },
    "trials": [
        {
            "exptPart": "practice",
            "trialNumber": 1,
            "roleCurrent": "sender",
            "marblesSampled": 100,
            "probRed": 0.5,
            "practiceLambda": 5,
            "trialLambda": 0.3,
            "instructedLambda": "dishonest_big",
            "drawnRed": 38,
            "reportedRed": 31,
            "inferredRed": 25,
            "playerTrialScore": 0,
            "oppTrialScore": -13,
            "playerTotalScore": 0,
            "oppTotalScore": -13,
            "waitTime": 2685.078236639212,
            "responseTime": 1678910463318,
            "catchQuestion": "How many <b class=\"r\">red<\/b> marbles did you actually draw (before any changes)? ",
            "catchKey": 38,
            "catchResponse": 31,
            "catchTime": 1678910463318,
            "trialTime": 0
        },
        {
            "exptPart": "practice",
            "trialNumber": 2,
            "roleCurrent": "receiver",
            "marblesSampled": 100,
            "probRed": 0.5,
            "practiceLambda": 5,
            "trialLambda": 0.3,
            "instructedLambda": "dishonest_big",
            "drawnRed": 36,
            "reportedRed": 41,
            "inferredRed": 41,
            "playerTrialScore": -5,
            "oppTrialScore": 5,
            "playerTotalScore": -5,
            "oppTotalScore": -8,
            "waitTime": 7282.74039158271,
            "responseTime": 1678910517024,
            "catchQuestion": "How many <b class=\"r\">red<\/b> marbles did your opponent report drawing? ",
            "catchKey": 41,
            "catchResponse": 41,
            "catchTime": 1678910517024,
            "trialTime": 0
        },
        {
            "exptPart": "trial",
            "trialNumber": 1,
            "roleCurrent": "receiver",
            "marblesSampled": 100,
            "probRed": 0.5,
            "practiceLambda": 5,
            "trialLambda": 0.3,
            "instructedLambda": "dishonest_big",
            "drawnRed": 72,
            "reportedRed": 72,
            "inferredRed": 78,
            "playerTrialScore": -6,
            "oppTrialScore": 6,
            "playerTotalScore": -6,
            "oppTotalScore": 6,
            "waitTime": 7493.813793921587,
            "responseTime": 1678910572073,
            "catchQuestion": "How many <b class=\"r\">red<\/b> marbles did your opponent report drawing? ",
            "catchKey": 72,
            "catchResponse": 72,
            "catchTime": 1678910572073,
            "trialTime": 0
        },
        {
            "exptPart": "trial",
            "trialNumber": 2,
            "roleCurrent": "receiver",
            "marblesSampled": 100,
            "probRed": 0.5,
            "practiceLambda": 5,
            "trialLambda": 0.3,
            "instructedLambda": "dishonest_big",
            "drawnRed": 65,
            "reportedRed": 65,
            "inferredRed": 65,
            "playerTrialScore": 0,
            "oppTrialScore": 0,
            "playerTotalScore": -6,
            "oppTotalScore": 6,
            "waitTime": 5688.219121209458,
            "responseTime": 1678910608673,
            "catchQuestion": "How many <b class=\"r\">red<\/b> marbles did your opponent report drawing? ",
            "catchKey": -1,
            "catchResponse": -1,
            "catchTime": 1678910572073,
            "trialTime": 0
        },
        {
            "exptPart": "trial",
            "trialNumber": 3,
            "roleCurrent": "receiver",
            "marblesSampled": 100,
            "probRed": 0.5,
            "practiceLambda": 5,
            "trialLambda": 0.3,
            "instructedLambda": "dishonest_big",
            "drawnRed": 48,
            "reportedRed": 48,
            "inferredRed": 40,
            "playerTrialScore": -8,
            "oppTrialScore": 0,
            "playerTotalScore": -14,
            "oppTotalScore": 6,
            "waitTime": 6898.011860201303,
            "responseTime": 1678910626348,
            "catchQuestion": "How many <b class=\"r\">red<\/b> marbles did your opponent report drawing? ",
            "catchKey": -1,
            "catchResponse": -1,
            "catchTime": 1678910572073,
            "trialTime": 0
        },
        {
            "exptPart": "trial",
            "trialNumber": 4,
            "roleCurrent": "receiver",
            "marblesSampled": 100,
            "probRed": 0.5,
            "practiceLambda": 5,
            "trialLambda": 0.3,
            "instructedLambda": "dishonest_big",
            "drawnRed": 44,
            "reportedRed": 45,
            "inferredRed": 32,
            "playerTrialScore": -12,
            "oppTrialScore": 0,
            "playerTotalScore": -26,
            "oppTotalScore": 6,
            "waitTime": 5439.951138297394,
            "responseTime": 1678910640516,
            "catchQuestion": "How many <b class=\"r\">red<\/b> marbles did your opponent report drawing? ",
            "catchKey": -1,
            "catchResponse": -1,
            "catchTime": 1678910572073,
            "trialTime": 0
        },
        {
            "exptPart": "trial",
            "trialNumber": 5,
            "roleCurrent": "receiver",
            "marblesSampled": 100,
            "probRed": 0.5,
            "practiceLambda": 5,
            "trialLambda": 0.3,
            "instructedLambda": "dishonest_big",
            "drawnRed": 30,
            "reportedRed": 30,
            "inferredRed": 30,
            "playerTrialScore": 0,
            "oppTrialScore": 0,
            "playerTotalScore": -26,
            "oppTotalScore": 6,
            "waitTime": 5685.058685103229,
            "responseTime": 1678910650019,
            "catchQuestion": "How many <b class=\"r\">red<\/b> marbles did your opponent report drawing? ",
            "catchKey": -1,
            "catchResponse": -1,
            "catchTime": 1678910572073,
            "trialTime": 0
        },
        {
            "exptPart": "trial",
            "trialNumber": 6,
            "roleCurrent": "receiver",
            "marblesSampled": 100,
            "probRed": 0.5,
            "practiceLambda": 5,
            "trialLambda": 0.3,
            "instructedLambda": "dishonest_big",
            "drawnRed": 26,
            "reportedRed": 27,
            "inferredRed": 35,
            "playerTrialScore": -9,
            "oppTrialScore": 9,
            "playerTotalScore": -35,
            "oppTotalScore": 15,
            "waitTime": 5266.090399102341,
            "responseTime": 1678910666232,
            "catchQuestion": "How many <b class=\"r\">red<\/b> marbles did your opponent report drawing? ",
            "catchKey": -1,
            "catchResponse": -1,
            "catchTime": 1678910572073,
            "trialTime": 0
        },
        {
            "exptPart": "trial",
            "trialNumber": 7,
            "roleCurrent": "receiver",
            "marblesSampled": 100,
            "probRed": 0.5,
            "practiceLambda": 5,
            "trialLambda": 0.3,
            "instructedLambda": "dishonest_big",
            "drawnRed": 23,
            "reportedRed": 23,
            "inferredRed": 42,
            "playerTrialScore": -19,
            "oppTrialScore": 19,
            "playerTotalScore": -54,
            "oppTotalScore": 34,
            "waitTime": 5561.585693346529,
            "responseTime": 1678910685706,
            "catchQuestion": "How many <b class=\"r\">red<\/b> marbles did your opponent report drawing? ",
            "catchKey": -1,
            "catchResponse": -1,
            "catchTime": 1678910572073,
            "trialTime": 0
        },
        {
            "exptPart": "trial",
            "trialNumber": 8,
            "roleCurrent": "receiver",
            "marblesSampled": 100,
            "probRed": 0.5,
            "practiceLambda": 5,
            "trialLambda": 0.3,
            "instructedLambda": "dishonest_big",
            "drawnRed": 56,
            "reportedRed": 57,
            "inferredRed": 50,
            "playerTrialScore": -6,
            "oppTrialScore": 0,
            "playerTotalScore": -60,
            "oppTotalScore": 34,
            "waitTime": 6575.3813452632985,
            "responseTime": 1678910700265,
            "catchQuestion": "How many <b class=\"r\">red<\/b> marbles did your opponent report drawing? ",
            "catchKey": -1,
            "catchResponse": -1,
            "catchTime": 1678910572073,
            "trialTime": 0
        },
        {
            "exptPart": "trial",
            "trialNumber": 9,
            "roleCurrent": "receiver",
            "marblesSampled": 100,
            "probRed": 0.5,
            "practiceLambda": 5,
            "trialLambda": 0.3,
            "instructedLambda": "dishonest_big",
            "drawnRed": 38,
            "reportedRed": 38,
            "inferredRed": 38,
            "playerTrialScore": 0,
            "oppTrialScore": 0,
            "playerTotalScore": -60,
            "oppTotalScore": 34,
            "waitTime": 5465.074786426456,
            "responseTime": 1678910712857,
            "catchQuestion": "How many <b class=\"r\">red<\/b> marbles did your opponent report drawing? ",
            "catchKey": -1,
            "catchResponse": -1,
            "catchTime": 1678910572073,
            "trialTime": 0
        },
        {
            "exptPart": "trial",
            "trialNumber": 10,
            "roleCurrent": "receiver",
            "marblesSampled": 100,
            "probRed": 0.5,
            "practiceLambda": 5,
            "trialLambda": 0.3,
            "instructedLambda": "dishonest_big",
            "drawnRed": 57,
            "reportedRed": 57,
            "inferredRed": 53,
            "playerTrialScore": -4,
            "oppTrialScore": 0,
            "playerTotalScore": -64,
            "oppTotalScore": 34,
            "waitTime": 6253.638004726511,
            "responseTime": 1678910729200,
            "catchQuestion": "How many <b class=\"r\">red<\/b> marbles did your opponent report drawing? ",
            "catchKey": -1,
            "catchResponse": -1,
            "catchTime": 1678910729200,
            "trialTime": 0
        },
        {
            "exptPart": "trial",
            "trialNumber": 11,
            "roleCurrent": "receiver",
            "marblesSampled": 100,
            "probRed": 0.5,
            "practiceLambda": 5,
            "trialLambda": 0.3,
            "instructedLambda": "dishonest_big",
            "drawnRed": 85,
            "reportedRed": 85,
            "inferredRed": 60,
            "playerTrialScore": -25,
            "oppTrialScore": 0,
            "playerTotalScore": -89,
            "oppTotalScore": 34,
            "waitTime": 5658.033976273424,
            "responseTime": 1678910753801,
            "catchQuestion": "How many <b class=\"r\">red<\/b> marbles did your opponent report drawing? ",
            "catchKey": -1,
            "catchResponse": -1,
            "catchTime": 1678910729200,
            "trialTime": 0
        },
        {
            "exptPart": "trial",
            "trialNumber": 12,
            "roleCurrent": "receiver",
            "marblesSampled": 100,
            "probRed": 0.5,
            "practiceLambda": 5,
            "trialLambda": 0.3,
            "instructedLambda": "dishonest_big",
            "drawnRed": 15,
            "reportedRed": 15,
            "inferredRed": 34,
            "playerTrialScore": -19,
            "oppTrialScore": 19,
            "playerTotalScore": -108,
            "oppTotalScore": 53,
            "waitTime": 5833.2647764961375,
            "responseTime": 1678910777522,
            "catchQuestion": "How many <b class=\"r\">red<\/b> marbles did your opponent report drawing? ",
            "catchKey": 15,
            "catchResponse": 27,
            "catchTime": 1678910777522,
            "trialTime": 0
        },
        {
            "exptPart": "trial",
            "trialNumber": 13,
            "roleCurrent": "receiver",
            "marblesSampled": 100,
            "probRed": 0.5,
            "practiceLambda": 5,
            "trialLambda": 0.3,
            "instructedLambda": "dishonest_big",
            "drawnRed": 58,
            "reportedRed": 58,
            "inferredRed": 47,
            "playerTrialScore": -11,
            "oppTrialScore": 0,
            "playerTotalScore": -119,
            "oppTotalScore": 53,
            "waitTime": 6292.183533852325,
            "responseTime": 1678910804496,
            "catchQuestion": "How many <b class=\"r\">red<\/b> marbles did your opponent report drawing? ",
            "catchKey": -1,
            "catchResponse": -1,
            "catchTime": 1678910777522,
            "trialTime": 0
        },
        {
            "exptPart": "trial",
            "trialNumber": 14,
            "roleCurrent": "receiver",
            "marblesSampled": 100,
            "probRed": 0.5,
            "practiceLambda": 5,
            "trialLambda": 0.3,
            "instructedLambda": "dishonest_big",
            "drawnRed": 70,
            "reportedRed": 70,
            "inferredRed": 20,
            "playerTrialScore": -50,
            "oppTrialScore": 0,
            "playerTotalScore": -169,
            "oppTotalScore": 53,
            "waitTime": 7057.043531567134,
            "responseTime": 1678910819196,
            "catchQuestion": "How many <b class=\"r\">red<\/b> marbles did your opponent report drawing? ",
            "catchKey": -1,
            "catchResponse": -1,
            "catchTime": 1678910777522,
            "trialTime": 0
        },
        {
            "exptPart": "trial",
            "trialNumber": 15,
            "roleCurrent": "receiver",
            "marblesSampled": 100,
            "probRed": 0.5,
            "practiceLambda": 5,
            "trialLambda": 0.3,
            "instructedLambda": "dishonest_big",
            "drawnRed": 75,
            "reportedRed": 75,
            "inferredRed": 35,
            "playerTrialScore": -40,
            "oppTrialScore": 0,
            "playerTotalScore": -209,
            "oppTotalScore": 53,
            "waitTime": 5671.94643134278,
            "responseTime": 1678910831492,
            "catchQuestion": "How many <b class=\"r\">red<\/b> marbles did your opponent report drawing? ",
            "catchKey": -1,
            "catchResponse": -1,
            "catchTime": 1678910777522,
            "trialTime": 0
        },
        {
            "exptPart": "trial",
            "trialNumber": 16,
            "roleCurrent": "receiver",
            "marblesSampled": 100,
            "probRed": 0.5,
            "practiceLambda": 5,
            "trialLambda": 0.3,
            "instructedLambda": "dishonest_big",
            "drawnRed": 62,
            "reportedRed": 62,
            "inferredRed": 42,
            "playerTrialScore": -20,
            "oppTrialScore": 0,
            "playerTotalScore": -229,
            "oppTotalScore": 53,
            "waitTime": 5546.160525083776,
            "responseTime": 1678910844253,
            "catchQuestion": "How many <b class=\"r\">red<\/b> marbles did your opponent report drawing? ",
            "catchKey": -1,
            "catchResponse": -1,
            "catchTime": 1678910777522,
            "trialTime": 0
        },
        {
            "exptPart": "trial",
            "trialNumber": 17,
            "roleCurrent": "receiver",
            "marblesSampled": 100,
            "probRed": 0.5,
            "practiceLambda": 5,
            "trialLambda": 0.3,
            "instructedLambda": "dishonest_big",
            "drawnRed": 18,
            "reportedRed": 18,
            "inferredRed": 30,
            "playerTrialScore": -12,
            "oppTrialScore": 12,
            "playerTotalScore": -241,
            "oppTotalScore": 65,
            "waitTime": 6874.760182122333,
            "responseTime": 1678910875233,
            "catchQuestion": "How many <b class=\"r\">red<\/b> marbles did your opponent report drawing? ",
            "catchKey": -1,
            "catchResponse": -1,
            "catchTime": 1678910777522,
            "trialTime": 0
        },
        {
            "exptPart": "trial",
            "trialNumber": 18,
            "roleCurrent": "receiver",
            "marblesSampled": 100,
            "probRed": 0.5,
            "practiceLambda": 5,
            "trialLambda": 0.3,
            "instructedLambda": "dishonest_big",
            "drawnRed": 47,
            "reportedRed": 47,
            "inferredRed": 38,
            "playerTrialScore": -9,
            "oppTrialScore": 0,
            "playerTotalScore": -250,
            "oppTotalScore": 65,
            "waitTime": 7485.430993135647,
            "responseTime": 1678910894722,
            "catchQuestion": "How many <b class=\"r\">red<\/b> marbles did your opponent report drawing? ",
            "catchKey": 47,
            "catchResponse": 47,
            "catchTime": 1678910894722,
            "trialTime": 0
        },
        {
            "exptPart": "trial",
            "trialNumber": 19,
            "roleCurrent": "receiver",
            "marblesSampled": 100,
            "probRed": 0.5,
            "practiceLambda": 5,
            "trialLambda": 0.3,
            "instructedLambda": "dishonest_big",
            "drawnRed": 41,
            "reportedRed": 41,
            "inferredRed": 41,
            "playerTrialScore": 0,
            "oppTrialScore": 0,
            "playerTotalScore": -250,
            "oppTotalScore": 65,
            "waitTime": 7426.435984566732,
            "responseTime": 1678910912789,
            "catchQuestion": "How many <b class=\"r\">red<\/b> marbles did your opponent report drawing? ",
            "catchKey": -1,
            "catchResponse": -1,
            "catchTime": 1678910894722,
            "trialTime": 0
        },
        {
            "exptPart": "trial",
            "trialNumber": 20,
            "roleCurrent": "receiver",
            "marblesSampled": 100,
            "probRed": 0.5,
            "practiceLambda": 5,
            "trialLambda": 0.3,
            "instructedLambda": "dishonest_big",
            "drawnRed": 69,
            "reportedRed": 70,
            "inferredRed": 37,
            "playerTrialScore": -32,
            "oppTrialScore": 0,
            "playerTotalScore": -282,
            "oppTotalScore": 65,
            "waitTime": 5661.391175497738,
            "responseTime": 1678910927587,
            "catchQuestion": "How many <b class=\"r\">red<\/b> marbles did your opponent report drawing? ",
            "catchKey": -1,
            "catchResponse": -1,
            "catchTime": 1678910927587,
            "trialTime": 0
        },
        {
            "exptPart": "trial",
            "trialNumber": 21,
            "roleCurrent": "receiver",
            "marblesSampled": 100,
            "probRed": 0.5,
            "practiceLambda": 5,
            "trialLambda": 0.3,
            "instructedLambda": "dishonest_big",
            "drawnRed": 43,
            "reportedRed": 43,
            "inferredRed": 43,
            "playerTrialScore": 0,
            "oppTrialScore": 0,
            "playerTotalScore": -282,
            "oppTotalScore": 65,
            "waitTime": 7009.592571365421,
            "responseTime": 1678910944577,
            "catchQuestion": "How many <b class=\"r\">red<\/b> marbles did your opponent report drawing? ",
            "catchKey": -1,
            "catchResponse": -1,
            "catchTime": 1678910927587,
            "trialTime": 0
        },
        {
            "exptPart": "trial",
            "trialNumber": 22,
            "roleCurrent": "receiver",
            "marblesSampled": 100,
            "probRed": 0.5,
            "practiceLambda": 5,
            "trialLambda": 0.3,
            "instructedLambda": "dishonest_big",
            "drawnRed": 79,
            "reportedRed": 79,
            "inferredRed": 70,
            "playerTrialScore": -9,
            "oppTrialScore": 0,
            "playerTotalScore": -291,
            "oppTotalScore": 65,
            "waitTime": 7401.539593429619,
            "responseTime": 1678910964747,
            "catchQuestion": "How many <b class=\"r\">red<\/b> marbles did your opponent report drawing? ",
            "catchKey": -1,
            "catchResponse": -1,
            "catchTime": 1678910927587,
            "trialTime": 0
        },
        {
            "exptPart": "trial",
            "trialNumber": 23,
            "roleCurrent": "receiver",
            "marblesSampled": 100,
            "probRed": 0.5,
            "practiceLambda": 5,
            "trialLambda": 0.3,
            "instructedLambda": "dishonest_big",
            "drawnRed": 8,
            "reportedRed": 8,
            "inferredRed": 7,
            "playerTrialScore": -1,
            "oppTrialScore": 0,
            "playerTotalScore": -292,
            "oppTotalScore": 65,
            "waitTime": 6339.65832099165,
            "responseTime": 1678910978784,
            "catchQuestion": "How many <b class=\"r\">red<\/b> marbles did your opponent report drawing? ",
            "catchKey": -1,
            "catchResponse": -1,
            "catchTime": 1678910927587,
            "trialTime": 0
        },
        {
            "exptPart": "trial",
            "trialNumber": 24,
            "roleCurrent": "receiver",
            "marblesSampled": 100,
            "probRed": 0.5,
            "practiceLambda": 5,
            "trialLambda": 0.3,
            "instructedLambda": "dishonest_big",
            "drawnRed": 64,
            "reportedRed": 64,
            "inferredRed": 54,
            "playerTrialScore": -10,
            "oppTrialScore": 0,
            "playerTotalScore": -302,
            "oppTotalScore": 65,
            "waitTime": 5779.1431515955355,
            "responseTime": 1678910990243,
            "catchQuestion": "How many <b class=\"r\">red<\/b> marbles did your opponent report drawing? ",
            "catchKey": 64,
            "catchResponse": 64,
            "catchTime": 1678910990243,
            "trialTime": 0
        },
        {
            "exptPart": "trial",
            "trialNumber": 25,
            "roleCurrent": "receiver",
            "marblesSampled": 100,
            "probRed": 0.5,
            "practiceLambda": 5,
            "trialLambda": 0.3,
            "instructedLambda": "dishonest_big",
            "drawnRed": 78,
            "reportedRed": 78,
            "inferredRed": 65,
            "playerTrialScore": -13,
            "oppTrialScore": 0,
            "playerTotalScore": -315,
            "oppTotalScore": 65,
            "waitTime": 5583.120230845907,
            "responseTime": 1678911005326,
            "catchQuestion": "How many <b class=\"r\">red<\/b> marbles did your opponent report drawing? ",
            "catchKey": -1,
            "catchResponse": -1,
            "catchTime": 1678910990243,
            "trialTime": 0
        },
        {
            "exptPart": "trial",
            "trialNumber": 26,
            "roleCurrent": "receiver",
            "marblesSampled": 100,
            "probRed": 0.5,
            "practiceLambda": 5,
            "trialLambda": 0.3,
            "instructedLambda": "dishonest_big",
            "drawnRed": 60,
            "reportedRed": 60,
            "inferredRed": 54,
            "playerTrialScore": -6,
            "oppTrialScore": 0,
            "playerTotalScore": -321,
            "oppTotalScore": 65,
            "waitTime": 6642.59238462546,
            "responseTime": 1678911017312,
            "catchQuestion": "How many <b class=\"r\">red<\/b> marbles did your opponent report drawing? ",
            "catchKey": 60,
            "catchResponse": 60,
            "catchTime": 1678911017312,
            "trialTime": 0
        },
        {
            "exptPart": "trial",
            "trialNumber": 27,
            "roleCurrent": "receiver",
            "marblesSampled": 100,
            "probRed": 0.5,
            "practiceLambda": 5,
            "trialLambda": 0.3,
            "instructedLambda": "dishonest_big",
            "drawnRed": 53,
            "reportedRed": 53,
            "inferredRed": 53,
            "playerTrialScore": 0,
            "oppTrialScore": 0,
            "playerTotalScore": -321,
            "oppTotalScore": 65,
            "waitTime": 5827.673410461517,
            "responseTime": 1678911038236,
            "catchQuestion": "How many <b class=\"r\">red<\/b> marbles did your opponent report drawing? ",
            "catchKey": -1,
            "catchResponse": -1,
            "catchTime": 1678911017312,
            "trialTime": 0
        },
        {
            "exptPart": "trial",
            "trialNumber": 28,
            "roleCurrent": "receiver",
            "marblesSampled": 100,
            "probRed": 0.5,
            "practiceLambda": 5,
            "trialLambda": 0.3,
            "instructedLambda": "dishonest_big",
            "drawnRed": 70,
            "reportedRed": 70,
            "inferredRed": 71,
            "playerTrialScore": -1,
            "oppTrialScore": 1,
            "playerTotalScore": -322,
            "oppTotalScore": 66,
            "waitTime": 7286.374755077653,
            "responseTime": 1678911055088,
            "catchQuestion": "How many <b class=\"r\">red<\/b> marbles did your opponent report drawing? ",
            "catchKey": -1,
            "catchResponse": -1,
            "catchTime": 1678911017312,
            "trialTime": 0
        },
        {
            "exptPart": "trial",
            "trialNumber": 29,
            "roleCurrent": "receiver",
            "marblesSampled": 100,
            "probRed": 0.5,
            "practiceLambda": 5,
            "trialLambda": 0.3,
            "instructedLambda": "dishonest_big",
            "drawnRed": 62,
            "reportedRed": 62,
            "inferredRed": 53,
            "playerTrialScore": -9,
            "oppTrialScore": 0,
            "playerTotalScore": -331,
            "oppTotalScore": 66,
            "waitTime": 5881.261938274911,
            "responseTime": 1678911066037,
            "catchQuestion": "How many <b class=\"r\">red<\/b> marbles did your opponent report drawing? ",
            "catchKey": -1,
            "catchResponse": -1,
            "catchTime": 1678911017312,
            "trialTime": 0
        },
        {
            "exptPart": "trial",
            "trialNumber": 30,
            "roleCurrent": "receiver",
            "marblesSampled": 100,
            "probRed": 0.5,
            "practiceLambda": 5,
            "trialLambda": 0.3,
            "instructedLambda": "dishonest_big",
            "drawnRed": 35,
            "reportedRed": 35,
            "inferredRed": 47,
            "playerTrialScore": -12,
            "oppTrialScore": 12,
            "playerTotalScore": -343,
            "oppTotalScore": 78,
            "waitTime": 6240.999317076114,
            "responseTime": 1678911092201,
            "catchQuestion": "How many <b class=\"r\">red<\/b> marbles did your opponent report drawing? ",
            "catchKey": -1,
            "catchResponse": -1,
            "catchTime": 1678911092201,
            "trialTime": 0
        },
        {
            "exptPart": "trial",
            "trialNumber": 31,
            "roleCurrent": "receiver",
            "marblesSampled": 100,
            "probRed": 0.5,
            "practiceLambda": 5,
            "trialLambda": 0.3,
            "instructedLambda": "dishonest_big",
            "drawnRed": 48,
            "reportedRed": 48,
            "inferredRed": 52,
            "playerTrialScore": -4,
            "oppTrialScore": 4,
            "playerTotalScore": -347,
            "oppTotalScore": 82,
            "waitTime": 5769.919796930025,
            "responseTime": 1678911129555,
            "catchQuestion": "How many <b class=\"r\">red<\/b> marbles did your opponent report drawing? ",
            "catchKey": -1,
            "catchResponse": -1,
            "catchTime": 1678911092201,
            "trialTime": 0
        },
        {
            "exptPart": "trial",
            "trialNumber": 32,
            "roleCurrent": "receiver",
            "marblesSampled": 100,
            "probRed": 0.5,
            "practiceLambda": 5,
            "trialLambda": 0.3,
            "instructedLambda": "dishonest_big",
            "drawnRed": 47,
            "reportedRed": 49,
            "inferredRed": 43,
            "playerTrialScore": -4,
            "oppTrialScore": 0,
            "playerTotalScore": -351,
            "oppTotalScore": 82,
            "waitTime": 6848.212463399774,
            "responseTime": 1678911176364,
            "catchQuestion": "How many <b class=\"r\">red<\/b> marbles did your opponent report drawing? ",
            "catchKey": -1,
            "catchResponse": -1,
            "catchTime": 1678911092201,
            "trialTime": 0
        },
        {
            "exptPart": "trial",
            "trialNumber": 33,
            "roleCurrent": "receiver",
            "marblesSampled": 100,
            "probRed": 0.5,
            "practiceLambda": 5,
            "trialLambda": 0.3,
            "instructedLambda": "dishonest_big",
            "drawnRed": 45,
            "reportedRed": 45,
            "inferredRed": 58,
            "playerTrialScore": -13,
            "oppTrialScore": 13,
            "playerTotalScore": -364,
            "oppTotalScore": 95,
            "waitTime": 7238.821133696458,
            "responseTime": 1678911196998,
            "catchQuestion": "How many <b class=\"r\">red<\/b> marbles did your opponent report drawing? ",
            "catchKey": -1,
            "catchResponse": -1,
            "catchTime": 1678911092201,
            "trialTime": 0
        },
        {
            "exptPart": "trial",
            "trialNumber": 34,
            "roleCurrent": "receiver",
            "marblesSampled": 100,
            "probRed": 0.5,
            "practiceLambda": 5,
            "trialLambda": 0.3,
            "instructedLambda": "dishonest_big",
            "drawnRed": 55,
            "reportedRed": 55,
            "inferredRed": 51,
            "playerTrialScore": -4,
            "oppTrialScore": 0,
            "playerTotalScore": -368,
            "oppTotalScore": 95,
            "waitTime": 5275.987988252124,
            "responseTime": 1678911206772,
            "catchQuestion": "How many <b class=\"r\">red<\/b> marbles did your opponent report drawing? ",
            "catchKey": 55,
            "catchResponse": 55,
            "catchTime": 1678911206772,
            "trialTime": 0
        },
        {
            "exptPart": "trial",
            "trialNumber": 35,
            "roleCurrent": "receiver",
            "marblesSampled": 100,
            "probRed": 0.5,
            "practiceLambda": 5,
            "trialLambda": 0.3,
            "instructedLambda": "dishonest_big",
            "drawnRed": 20,
            "reportedRed": 20,
            "inferredRed": 25,
            "playerTrialScore": -5,
            "oppTrialScore": 5,
            "playerTotalScore": -373,
            "oppTotalScore": 100,
            "waitTime": 5978.5574562565125,
            "responseTime": 1678911224122,
            "catchQuestion": "How many <b class=\"r\">red<\/b> marbles did your opponent report drawing? ",
            "catchKey": -1,
            "catchResponse": -1,
            "catchTime": 1678911206772,
            "trialTime": 0
        },
        {
            "exptPart": "trial",
            "trialNumber": 36,
            "roleCurrent": "receiver",
            "marblesSampled": 100,
            "probRed": 0.5,
            "practiceLambda": 5,
            "trialLambda": 0.3,
            "instructedLambda": "dishonest_big",
            "drawnRed": 50,
            "reportedRed": 50,
            "inferredRed": 47,
            "playerTrialScore": -3,
            "oppTrialScore": 0,
            "playerTotalScore": -376,
            "oppTotalScore": 100,
            "waitTime": 5669.070351060565,
            "responseTime": 1678911245206,
            "catchQuestion": "How many <b class=\"r\">red<\/b> marbles did your opponent report drawing? ",
            "catchKey": -1,
            "catchResponse": -1,
            "catchTime": 1678911206772,
            "trialTime": 0
        },
        {
            "exptPart": "trial",
            "trialNumber": 37,
            "roleCurrent": "receiver",
            "marblesSampled": 100,
            "probRed": 0.5,
            "practiceLambda": 5,
            "trialLambda": 0.3,
            "instructedLambda": "dishonest_big",
            "drawnRed": 65,
            "reportedRed": 65,
            "inferredRed": 57,
            "playerTrialScore": -8,
            "oppTrialScore": 0,
            "playerTotalScore": -384,
            "oppTotalScore": 100,
            "waitTime": 6327.081937117462,
            "responseTime": 1678911258713,
            "catchQuestion": "How many <b class=\"r\">red<\/b> marbles did your opponent report drawing? ",
            "catchKey": -1,
            "catchResponse": -1,
            "catchTime": 1678911206772,
            "trialTime": 0
        },
        {
            "exptPart": "trial",
            "trialNumber": 38,
            "roleCurrent": "receiver",
            "marblesSampled": 100,
            "probRed": 0.5,
            "practiceLambda": 5,
            "trialLambda": 0.3,
            "instructedLambda": "dishonest_big",
            "drawnRed": 33,
            "reportedRed": 34,
            "inferredRed": 43,
            "playerTrialScore": -10,
            "oppTrialScore": 10,
            "playerTotalScore": -394,
            "oppTotalScore": 110,
            "waitTime": 6179.975800730033,
            "responseTime": 1678911279487,
            "catchQuestion": "How many <b class=\"r\">red<\/b> marbles did your opponent report drawing? ",
            "catchKey": -1,
            "catchResponse": -1,
            "catchTime": 1678911206772,
            "trialTime": 0
        },
        {
            "exptPart": "trial",
            "trialNumber": 39,
            "roleCurrent": "receiver",
            "marblesSampled": 100,
            "probRed": 0.5,
            "practiceLambda": 5,
            "trialLambda": 0.3,
            "instructedLambda": "dishonest_big",
            "drawnRed": 35,
            "reportedRed": 35,
            "inferredRed": 41,
            "playerTrialScore": -6,
            "oppTrialScore": 6,
            "playerTotalScore": -400,
            "oppTotalScore": 116,
            "waitTime": 6506.72055974191,
            "responseTime": 1678911289951,
            "catchQuestion": "How many <b class=\"r\">red<\/b> marbles did your opponent report drawing? ",
            "catchKey": -1,
            "catchResponse": -1,
            "catchTime": 1678911206772,
            "trialTime": 0
        },
        {
            "exptPart": "trial",
            "trialNumber": 40,
            "roleCurrent": "receiver",
            "marblesSampled": 100,
            "probRed": 0.5,
            "practiceLambda": 5,
            "trialLambda": 0.3,
            "instructedLambda": "dishonest_big",
            "drawnRed": 47,
            "reportedRed": 48,
            "inferredRed": 48,
            "playerTrialScore": -1,
            "oppTrialScore": 1,
            "playerTotalScore": -401,
            "oppTotalScore": 117,
            "waitTime": 6090.199174474975,
            "responseTime": 1678911303159,
            "catchQuestion": "How many <b class=\"r\">red<\/b> marbles did your opponent report drawing? ",
            "catchKey": -1,
            "catchResponse": -1,
            "catchTime": 1678911303159,
            "trialTime": 0
        },
        {
            "exptPart": "trial",
            "trialNumber": 41,
            "roleCurrent": "receiver",
            "marblesSampled": 100,
            "probRed": 0.5,
            "practiceLambda": 5,
            "trialLambda": 0.3,
            "instructedLambda": "dishonest_big",
            "drawnRed": 86,
            "reportedRed": 86,
            "inferredRed": 73,
            "playerTrialScore": -13,
            "oppTrialScore": 0,
            "playerTotalScore": -414,
            "oppTotalScore": 117,
            "waitTime": 5635.741734432246,
            "responseTime": 1678911321403,
            "catchQuestion": "How many <b class=\"r\">red<\/b> marbles did your opponent report drawing? ",
            "catchKey": -1,
            "catchResponse": -1,
            "catchTime": 1678911303159,
            "trialTime": 0
        },
        {
            "exptPart": "trial",
            "trialNumber": 42,
            "roleCurrent": "receiver",
            "marblesSampled": 100,
            "probRed": 0.5,
            "practiceLambda": 5,
            "trialLambda": 0.3,
            "instructedLambda": "dishonest_big",
            "drawnRed": 57,
            "reportedRed": 58,
            "inferredRed": 58,
            "playerTrialScore": -1,
            "oppTrialScore": 1,
            "playerTotalScore": -415,
            "oppTotalScore": 118,
            "waitTime": 5178.319574215588,
            "responseTime": 1678911330355,
            "catchQuestion": "How many <b class=\"r\">red<\/b> marbles did your opponent report drawing? ",
            "catchKey": -1,
            "catchResponse": -1,
            "catchTime": 1678911303159,
            "trialTime": 0
        },
        {
            "exptPart": "trial",
            "trialNumber": 43,
            "roleCurrent": "receiver",
            "marblesSampled": 100,
            "probRed": 0.5,
            "practiceLambda": 5,
            "trialLambda": 0.3,
            "instructedLambda": "dishonest_big",
            "drawnRed": 67,
            "reportedRed": 67,
            "inferredRed": 52,
            "playerTrialScore": -15,
            "oppTrialScore": 0,
            "playerTotalScore": -430,
            "oppTotalScore": 118,
            "waitTime": 6383.3927349209525,
            "responseTime": 1678911346317,
            "catchQuestion": "How many <b class=\"r\">red<\/b> marbles did your opponent report drawing? ",
            "catchKey": -1,
            "catchResponse": -1,
            "catchTime": 1678911303159,
            "trialTime": 0
        },
        {
            "exptPart": "trial",
            "trialNumber": 44,
            "roleCurrent": "receiver",
            "marblesSampled": 100,
            "probRed": 0.5,
            "practiceLambda": 5,
            "trialLambda": 0.3,
            "instructedLambda": "dishonest_big",
            "drawnRed": 64,
            "reportedRed": 64,
            "inferredRed": 53,
            "playerTrialScore": -11,
            "oppTrialScore": 0,
            "playerTotalScore": -441,
            "oppTotalScore": 118,
            "waitTime": 5258.649081979698,
            "responseTime": 1678911355805,
            "catchQuestion": "How many <b class=\"r\">red<\/b> marbles did your opponent report drawing? ",
            "catchKey": -1,
            "catchResponse": -1,
            "catchTime": 1678911303159,
            "trialTime": 0
        },
        {
            "exptPart": "trial",
            "trialNumber": 45,
            "roleCurrent": "receiver",
            "marblesSampled": 100,
            "probRed": 0.5,
            "practiceLambda": 5,
            "trialLambda": 0.3,
            "instructedLambda": "dishonest_big",
            "drawnRed": 62,
            "reportedRed": 62,
            "inferredRed": 51,
            "playerTrialScore": -11,
            "oppTrialScore": 0,
            "playerTotalScore": -452,
            "oppTotalScore": 118,
            "waitTime": 5457.320234049501,
            "responseTime": 1678911377649,
            "catchQuestion": "How many <b class=\"r\">red<\/b> marbles did your opponent report drawing? ",
            "catchKey": -1,
            "catchResponse": -1,
            "catchTime": 1678911303159,
            "trialTime": 0
        },
        {
            "exptPart": "trial",
            "trialNumber": 46,
            "roleCurrent": "receiver",
            "marblesSampled": 100,
            "probRed": 0.5,
            "practiceLambda": 5,
            "trialLambda": 0.3,
            "instructedLambda": "dishonest_big",
            "drawnRed": 66,
            "reportedRed": 66,
            "inferredRed": 43,
            "playerTrialScore": -23,
            "oppTrialScore": 0,
            "playerTotalScore": -475,
            "oppTotalScore": 118,
            "waitTime": 5567.621759893021,
            "responseTime": 1678911389449,
            "catchQuestion": "How many <b class=\"r\">red<\/b> marbles did your opponent report drawing? ",
            "catchKey": -1,
            "catchResponse": -1,
            "catchTime": 1678911303159,
            "trialTime": 0
        },
        {
            "exptPart": "trial",
            "trialNumber": 47,
            "roleCurrent": "receiver",
            "marblesSampled": 100,
            "probRed": 0.5,
            "practiceLambda": 5,
            "trialLambda": 0.3,
            "instructedLambda": "dishonest_big",
            "drawnRed": 72,
            "reportedRed": 73,
            "inferredRed": 65,
            "playerTrialScore": -7,
            "oppTrialScore": 0,
            "playerTotalScore": -482,
            "oppTotalScore": 118,
            "waitTime": 6850.600318815595,
            "responseTime": 1678911405132,
            "catchQuestion": "How many <b class=\"r\">red<\/b> marbles did your opponent report drawing? ",
            "catchKey": -1,
            "catchResponse": -1,
            "catchTime": 1678911303159,
            "trialTime": 0
        },
        {
            "exptPart": "trial",
            "trialNumber": 48,
            "roleCurrent": "receiver",
            "marblesSampled": 100,
            "probRed": 0.5,
            "practiceLambda": 5,
            "trialLambda": 0.3,
            "instructedLambda": "dishonest_big",
            "drawnRed": 60,
            "reportedRed": 60,
            "inferredRed": 47,
            "playerTrialScore": -13,
            "oppTrialScore": 0,
            "playerTotalScore": -495,
            "oppTotalScore": 118,
            "waitTime": 5794.290869068282,
            "responseTime": 1678911418161,
            "catchQuestion": "How many <b class=\"r\">red<\/b> marbles did your opponent report drawing? ",
            "catchKey": -1,
            "catchResponse": -1,
            "catchTime": 1678911303159,
            "trialTime": 0
        },
        {
            "exptPart": "trial",
            "trialNumber": 49,
            "roleCurrent": "receiver",
            "marblesSampled": 100,
            "probRed": 0.5,
            "practiceLambda": 5,
            "trialLambda": 0.3,
            "instructedLambda": "dishonest_big",
            "drawnRed": 4,
            "reportedRed": 4,
            "inferredRed": 34,
            "playerTrialScore": -30,
            "oppTrialScore": 30,
            "playerTotalScore": -525,
            "oppTotalScore": 148,
            "waitTime": 7309.791421163404,
            "responseTime": 1678911438338,
            "catchQuestion": "How many <b class=\"r\">red<\/b> marbles did your opponent report drawing? ",
            "catchKey": -1,
            "catchResponse": -1,
            "catchTime": 1678911303159,
            "trialTime": 0
        },
        {
            "exptPart": "trial",
            "trialNumber": 50,
            "roleCurrent": "receiver",
            "marblesSampled": 100,
            "probRed": 0.5,
            "practiceLambda": 5,
            "trialLambda": 0.3,
            "instructedLambda": "dishonest_big",
            "drawnRed": 42,
            "reportedRed": 42,
            "inferredRed": 46,
            "playerTrialScore": -4,
            "oppTrialScore": 4,
            "playerTotalScore": -529,
            "oppTotalScore": 152,
            "waitTime": 5748.6954137398225,
            "responseTime": 1678911452343,
            "catchQuestion": "How many <b class=\"r\">red<\/b> marbles did your opponent report drawing? ",
            "catchKey": -1,
            "catchResponse": -1,
            "catchTime": 1678911452343,
            "trialTime": 0
        },
        {
            "exptPart": "trial",
            "trialNumber": 51,
            "roleCurrent": "receiver",
            "marblesSampled": 100,
            "probRed": 0.5,
            "practiceLambda": 5,
            "trialLambda": 0.3,
            "instructedLambda": "dishonest_big",
            "drawnRed": 44,
            "reportedRed": 44,
            "inferredRed": 44,
            "playerTrialScore": 0,
            "oppTrialScore": 0,
            "playerTotalScore": -529,
            "oppTotalScore": 152,
            "waitTime": 6091.9461580056595,
            "responseTime": 1678911484649,
            "catchQuestion": "How many <b class=\"r\">red<\/b> marbles did your opponent report drawing? ",
            "catchKey": -1,
            "catchResponse": -1,
            "catchTime": 1678911452343,
            "trialTime": 0
        },
        {
            "exptPart": "trial",
            "trialNumber": 52,
            "roleCurrent": "receiver",
            "marblesSampled": 100,
            "probRed": 0.5,
            "practiceLambda": 5,
            "trialLambda": 0.3,
            "instructedLambda": "dishonest_big",
            "drawnRed": 33,
            "reportedRed": 33,
            "inferredRed": 38,
            "playerTrialScore": -5,
            "oppTrialScore": 5,
            "playerTotalScore": -534,
            "oppTotalScore": 157,
            "waitTime": 6835.954111193305,
            "responseTime": 1678911499637,
            "catchQuestion": "How many <b class=\"r\">red<\/b> marbles did your opponent report drawing? ",
            "catchKey": -1,
            "catchResponse": -1,
            "catchTime": 1678911452343,
            "trialTime": 0
        },
        {
            "exptPart": "trial",
            "trialNumber": 53,
            "roleCurrent": "receiver",
            "marblesSampled": 100,
            "probRed": 0.5,
            "practiceLambda": 5,
            "trialLambda": 0.3,
            "instructedLambda": "dishonest_big",
            "drawnRed": 30,
            "reportedRed": 31,
            "inferredRed": 31,
            "playerTrialScore": -1,
            "oppTrialScore": 1,
            "playerTotalScore": -535,
            "oppTotalScore": 158,
            "waitTime": 7274.518284267551,
            "responseTime": 1678911511802,
            "catchQuestion": "How many <b class=\"r\">red<\/b> marbles did your opponent report drawing? ",
            "catchKey": -1,
            "catchResponse": -1,
            "catchTime": 1678911452343,
            "trialTime": 0
        },
        {
            "exptPart": "trial",
            "trialNumber": 54,
            "roleCurrent": "receiver",
            "marblesSampled": 100,
            "probRed": 0.5,
            "practiceLambda": 5,
            "trialLambda": 0.3,
            "instructedLambda": "dishonest_big",
            "drawnRed": 45,
            "reportedRed": 45,
            "inferredRed": 56,
            "playerTrialScore": -11,
            "oppTrialScore": 11,
            "playerTotalScore": -546,
            "oppTotalScore": 169,
            "waitTime": 5863.358703086023,
            "responseTime": 1678911523370,
            "catchQuestion": "How many <b class=\"r\">red<\/b> marbles did your opponent report drawing? ",
            "catchKey": -1,
            "catchResponse": -1,
            "catchTime": 1678911452343,
            "trialTime": 0
        },
        {
            "exptPart": "trial",
            "trialNumber": 55,
            "roleCurrent": "receiver",
            "marblesSampled": 100,
            "probRed": 0.5,
            "practiceLambda": 5,
            "trialLambda": 0.3,
            "instructedLambda": "dishonest_big",
            "drawnRed": 33,
            "reportedRed": 34,
            "inferredRed": 39,
            "playerTrialScore": -6,
            "oppTrialScore": 6,
            "playerTotalScore": -552,
            "oppTotalScore": 175,
            "waitTime": 5273.143122636692,
            "responseTime": 1678911534127,
            "catchQuestion": "How many <b class=\"r\">red<\/b> marbles did your opponent report drawing? ",
            "catchKey": -1,
            "catchResponse": -1,
            "catchTime": 1678911452343,
            "trialTime": 0
        },
        {
            "exptPart": "trial",
            "trialNumber": 56,
            "roleCurrent": "receiver",
            "marblesSampled": 100,
            "probRed": 0.5,
            "practiceLambda": 5,
            "trialLambda": 0.3,
            "instructedLambda": "dishonest_big",
            "drawnRed": 68,
            "reportedRed": 69,
            "inferredRed": 47,
            "playerTrialScore": -21,
            "oppTrialScore": 0,
            "playerTotalScore": -573,
            "oppTotalScore": 175,
            "waitTime": 5826.991144401515,
            "responseTime": 1678911544424,
            "catchQuestion": "How many <b class=\"r\">red<\/b> marbles did your opponent report drawing? ",
            "catchKey": -1,
            "catchResponse": -1,
            "catchTime": 1678911452343,
            "trialTime": 0
        },
        {
            "exptPart": "trial",
            "trialNumber": 57,
            "roleCurrent": "receiver",
            "marblesSampled": 100,
            "probRed": 0.5,
            "practiceLambda": 5,
            "trialLambda": 0.3,
            "instructedLambda": "dishonest_big",
            "drawnRed": 19,
            "reportedRed": 19,
            "inferredRed": 21,
            "playerTrialScore": -2,
            "oppTrialScore": 2,
            "playerTotalScore": -575,
            "oppTotalScore": 177,
            "waitTime": 5841.23987202157,
            "responseTime": 1678911558548,
            "catchQuestion": "How many <b class=\"r\">red<\/b> marbles did your opponent report drawing? ",
            "catchKey": -1,
            "catchResponse": -1,
            "catchTime": 1678911452343,
            "trialTime": 0
        },
        {
            "exptPart": "trial",
            "trialNumber": 58,
            "roleCurrent": "receiver",
            "marblesSampled": 100,
            "probRed": 0.5,
            "practiceLambda": 5,
            "trialLambda": 0.3,
            "instructedLambda": "dishonest_big",
            "drawnRed": 60,
            "reportedRed": 60,
            "inferredRed": 53,
            "playerTrialScore": -7,
            "oppTrialScore": 0,
            "playerTotalScore": -582,
            "oppTotalScore": 177,
            "waitTime": 7276.624769981942,
            "responseTime": 1678911573703,
            "catchQuestion": "How many <b class=\"r\">red<\/b> marbles did your opponent report drawing? ",
            "catchKey": -1,
            "catchResponse": -1,
            "catchTime": 1678911452343,
            "trialTime": 0
        },
        {
            "exptPart": "trial",
            "trialNumber": 59,
            "roleCurrent": "receiver",
            "marblesSampled": 100,
            "probRed": 0.5,
            "practiceLambda": 5,
            "trialLambda": 0.3,
            "instructedLambda": "dishonest_big",
            "drawnRed": 27,
            "reportedRed": 28,
            "inferredRed": 45,
            "playerTrialScore": -18,
            "oppTrialScore": 18,
            "playerTotalScore": -600,
            "oppTotalScore": 195,
            "waitTime": 5988.407515350922,
            "responseTime": 1678911585021,
            "catchQuestion": "How many <b class=\"r\">red<\/b> marbles did your opponent report drawing? ",
            "catchKey": -1,
            "catchResponse": -1,
            "catchTime": 1678911452343,
            "trialTime": 0
        },
        {
            "exptPart": "trial",
            "trialNumber": 60,
            "roleCurrent": "receiver",
            "marblesSampled": 100,
            "probRed": 0.5,
            "practiceLambda": 5,
            "trialLambda": 0.3,
            "instructedLambda": "dishonest_big",
            "drawnRed": 16,
            "reportedRed": 16,
            "inferredRed": 25,
            "playerTrialScore": -9,
            "oppTrialScore": 9,
            "playerTotalScore": -609,
            "oppTotalScore": 204,
            "waitTime": 6517.003999015021,
            "responseTime": 1678911599249,
            "catchQuestion": "How many <b class=\"r\">red<\/b> marbles did your opponent report drawing? ",
            "catchKey": -1,
            "catchResponse": -1,
            "catchTime": 1678911599249,
            "trialTime": 0
        },
        {
            "exptPart": "trial",
            "trialNumber": 61,
            "roleCurrent": "receiver",
            "marblesSampled": 100,
            "probRed": 0.5,
            "practiceLambda": 5,
            "trialLambda": 0.3,
            "instructedLambda": "dishonest_big",
            "drawnRed": 31,
            "reportedRed": 31,
            "inferredRed": 54,
            "playerTrialScore": -23,
            "oppTrialScore": 23,
            "playerTotalScore": -632,
            "oppTotalScore": 227,
            "waitTime": 6428.605291537637,
            "responseTime": 1678911648248,
            "catchQuestion": "How many <b class=\"r\">red<\/b> marbles did your opponent report drawing? ",
            "catchKey": -1,
            "catchResponse": -1,
            "catchTime": 1678911599249,
            "trialTime": 0
        },
        {
            "exptPart": "trial",
            "trialNumber": 62,
            "roleCurrent": "receiver",
            "marblesSampled": 100,
            "probRed": 0.5,
            "practiceLambda": 5,
            "trialLambda": 0.3,
            "instructedLambda": "dishonest_big",
            "drawnRed": 59,
            "reportedRed": 59,
            "inferredRed": 51,
            "playerTrialScore": -8,
            "oppTrialScore": 0,
            "playerTotalScore": -640,
            "oppTotalScore": 227,
            "waitTime": 6625.89791293401,
            "responseTime": 1678911662495,
            "catchQuestion": "How many <b class=\"r\">red<\/b> marbles did your opponent report drawing? ",
            "catchKey": -1,
            "catchResponse": -1,
            "catchTime": 1678911599249,
            "trialTime": 0
        },
        {
            "exptPart": "trial",
            "trialNumber": 63,
            "roleCurrent": "receiver",
            "marblesSampled": 100,
            "probRed": 0.5,
            "practiceLambda": 5,
            "trialLambda": 0.3,
            "instructedLambda": "dishonest_big",
            "drawnRed": 36,
            "reportedRed": 36,
            "inferredRed": 39,
            "playerTrialScore": -3,
            "oppTrialScore": 3,
            "playerTotalScore": -643,
            "oppTotalScore": 230,
            "waitTime": 5377.997011209407,
            "responseTime": 1678911684367,
            "catchQuestion": "How many <b class=\"r\">red<\/b> marbles did your opponent report drawing? ",
            "catchKey": -1,
            "catchResponse": -1,
            "catchTime": 1678911599249,
            "trialTime": 0
        },
        {
            "exptPart": "trial",
            "trialNumber": 64,
            "roleCurrent": "receiver",
            "marblesSampled": 100,
            "probRed": 0.5,
            "practiceLambda": 5,
            "trialLambda": 0.3,
            "instructedLambda": "dishonest_big",
            "drawnRed": 64,
            "reportedRed": 65,
            "inferredRed": 60,
            "playerTrialScore": -4,
            "oppTrialScore": 0,
            "playerTotalScore": -647,
            "oppTotalScore": 230,
            "waitTime": 5300.89594436363,
            "responseTime": 1678911703510,
            "catchQuestion": "How many <b class=\"r\">red<\/b> marbles did your opponent report drawing? ",
            "catchKey": -1,
            "catchResponse": -1,
            "catchTime": 1678911599249,
            "trialTime": 0
        },
        {
            "exptPart": "trial",
            "trialNumber": 65,
            "roleCurrent": "receiver",
            "marblesSampled": 100,
            "probRed": 0.5,
            "practiceLambda": 5,
            "trialLambda": 0.3,
            "instructedLambda": "dishonest_big",
            "drawnRed": 44,
            "reportedRed": 44,
            "inferredRed": 49,
            "playerTrialScore": -5,
            "oppTrialScore": 5,
            "playerTotalScore": -652,
            "oppTotalScore": 235,
            "waitTime": 6231.463492238931,
            "responseTime": 1678911715845,
            "catchQuestion": "How many <b class=\"r\">red<\/b> marbles did your opponent report drawing? ",
            "catchKey": -1,
            "catchResponse": -1,
            "catchTime": 1678911599249,
            "trialTime": 0
        },
        {
            "exptPart": "trial",
            "trialNumber": 66,
            "roleCurrent": "receiver",
            "marblesSampled": 100,
            "probRed": 0.5,
            "practiceLambda": 5,
            "trialLambda": 0.3,
            "instructedLambda": "dishonest_big",
            "drawnRed": 77,
            "reportedRed": 79,
            "inferredRed": 64,
            "playerTrialScore": -13,
            "oppTrialScore": 0,
            "playerTotalScore": -665,
            "oppTotalScore": 235,
            "waitTime": 6107.387650276599,
            "responseTime": 1678911729404,
            "catchQuestion": "How many <b class=\"r\">red<\/b> marbles did your opponent report drawing? ",
            "catchKey": -1,
            "catchResponse": -1,
            "catchTime": 1678911599249,
            "trialTime": 0
        },
        {
            "exptPart": "trial",
            "trialNumber": 67,
            "roleCurrent": "receiver",
            "marblesSampled": 100,
            "probRed": 0.5,
            "practiceLambda": 5,
            "trialLambda": 0.3,
            "instructedLambda": "dishonest_big",
            "drawnRed": 61,
            "reportedRed": 61,
            "inferredRed": 57,
            "playerTrialScore": -4,
            "oppTrialScore": 0,
            "playerTotalScore": -669,
            "oppTotalScore": 235,
            "waitTime": 6336.30520807848,
            "responseTime": 1678911740903,
            "catchQuestion": "How many <b class=\"r\">red<\/b> marbles did your opponent report drawing? ",
            "catchKey": -1,
            "catchResponse": -1,
            "catchTime": 1678911599249,
            "trialTime": 0
        },
        {
            "exptPart": "trial",
            "trialNumber": 68,
            "roleCurrent": "receiver",
            "marblesSampled": 100,
            "probRed": 0.5,
            "practiceLambda": 5,
            "trialLambda": 0.3,
            "instructedLambda": "dishonest_big",
            "drawnRed": 11,
            "reportedRed": 11,
            "inferredRed": 16,
            "playerTrialScore": -5,
            "oppTrialScore": 5,
            "playerTotalScore": -674,
            "oppTotalScore": 240,
            "waitTime": 7137.306716077953,
            "responseTime": 1678911754437,
            "catchQuestion": "How many <b class=\"r\">red<\/b> marbles did your opponent report drawing? ",
            "catchKey": 11,
            "catchResponse": 11,
            "catchTime": 1678911754437,
            "trialTime": 0
        },
        {
            "exptPart": "trial",
            "trialNumber": 69,
            "roleCurrent": "receiver",
            "marblesSampled": 100,
            "probRed": 0.5,
            "practiceLambda": 5,
            "trialLambda": 0.3,
            "instructedLambda": "dishonest_big",
            "drawnRed": 46,
            "reportedRed": 46,
            "inferredRed": 51,
            "playerTrialScore": -5,
            "oppTrialScore": 5,
            "playerTotalScore": -679,
            "oppTotalScore": 245,
            "waitTime": 5782.768927735266,
            "responseTime": 1678911769885,
            "catchQuestion": "How many <b class=\"r\">red<\/b> marbles did your opponent report drawing? ",
            "catchKey": -1,
            "catchResponse": -1,
            "catchTime": 1678911754437,
            "trialTime": 0
        },
        {
            "exptPart": "trial",
            "trialNumber": 70,
            "roleCurrent": "receiver",
            "marblesSampled": 100,
            "probRed": 0.5,
            "practiceLambda": 5,
            "trialLambda": 0.3,
            "instructedLambda": "dishonest_big",
            "drawnRed": 42,
            "reportedRed": 42,
            "inferredRed": 43,
            "playerTrialScore": -1,
            "oppTrialScore": 1,
            "playerTotalScore": -680,
            "oppTotalScore": 246,
            "waitTime": 6220.7973834553395,
            "responseTime": 1678911781840,
            "catchQuestion": "How many <b class=\"r\">red<\/b> marbles did your opponent report drawing? ",
            "catchKey": -1,
            "catchResponse": -1,
            "catchTime": 1678911781841,
            "trialTime": 0
        },
        {
            "exptPart": "trial",
            "trialNumber": 71,
            "roleCurrent": "receiver",
            "marblesSampled": 100,
            "probRed": 0.5,
            "practiceLambda": 5,
            "trialLambda": 0.3,
            "instructedLambda": "dishonest_big",
            "drawnRed": 70,
            "reportedRed": 70,
            "inferredRed": 63,
            "playerTrialScore": -7,
            "oppTrialScore": 0,
            "playerTotalScore": -687,
            "oppTotalScore": 246,
            "waitTime": 7150.605336684795,
            "responseTime": 1678911825549,
            "catchQuestion": "How many <b class=\"r\">red<\/b> marbles did your opponent report drawing? ",
            "catchKey": -1,
            "catchResponse": -1,
            "catchTime": 1678911781841,
            "trialTime": 0
        },
        {
            "exptPart": "trial",
            "trialNumber": 72,
            "roleCurrent": "receiver",
            "marblesSampled": 100,
            "probRed": 0.5,
            "practiceLambda": 5,
            "trialLambda": 0.3,
            "instructedLambda": "dishonest_big",
            "drawnRed": 59,
            "reportedRed": 60,
            "inferredRed": 54,
            "playerTrialScore": -5,
            "oppTrialScore": 0,
            "playerTotalScore": -692,
            "oppTotalScore": 246,
            "waitTime": 5576.5176049567035,
            "responseTime": 1678911840583,
            "catchQuestion": "How many <b class=\"r\">red<\/b> marbles did your opponent report drawing? ",
            "catchKey": -1,
            "catchResponse": -1,
            "catchTime": 1678911781841,
            "trialTime": 0
        },
        {
            "exptPart": "trial",
            "trialNumber": 73,
            "roleCurrent": "receiver",
            "marblesSampled": 100,
            "probRed": 0.5,
            "practiceLambda": 5,
            "trialLambda": 0.3,
            "instructedLambda": "dishonest_big",
            "drawnRed": 34,
            "reportedRed": 34,
            "inferredRed": 38,
            "playerTrialScore": -4,
            "oppTrialScore": 4,
            "playerTotalScore": -696,
            "oppTotalScore": 250,
            "waitTime": 6730.656944001028,
            "responseTime": 1678911851272,
            "catchQuestion": "How many <b class=\"r\">red<\/b> marbles did your opponent report drawing? ",
            "catchKey": -1,
            "catchResponse": -1,
            "catchTime": 1678911781841,
            "trialTime": 0
        },
        {
            "exptPart": "trial",
            "trialNumber": 74,
            "roleCurrent": "receiver",
            "marblesSampled": 100,
            "probRed": 0.5,
            "practiceLambda": 5,
            "trialLambda": 0.3,
            "instructedLambda": "dishonest_big",
            "drawnRed": 50,
            "reportedRed": 50,
            "inferredRed": 47,
            "playerTrialScore": -3,
            "oppTrialScore": 0,
            "playerTotalScore": -699,
            "oppTotalScore": 250,
            "waitTime": 6647.157723799635,
            "responseTime": 1678911866559,
            "catchQuestion": "How many <b class=\"r\">red<\/b> marbles did your opponent report drawing? ",
            "catchKey": -1,
            "catchResponse": -1,
            "catchTime": 1678911781841,
            "trialTime": 0
        },
        {
            "exptPart": "trial",
            "trialNumber": 75,
            "roleCurrent": "receiver",
            "marblesSampled": 100,
            "probRed": 0.5,
            "practiceLambda": 5,
            "trialLambda": 0.3,
            "instructedLambda": "dishonest_big",
            "drawnRed": 45,
            "reportedRed": 45,
            "inferredRed": 53,
            "playerTrialScore": -8,
            "oppTrialScore": 8,
            "playerTotalScore": -707,
            "oppTotalScore": 258,
            "waitTime": 5572.483130831079,
            "responseTime": 1678911879170,
            "catchQuestion": "How many <b class=\"r\">red<\/b> marbles did your opponent report drawing? ",
            "catchKey": -1,
            "catchResponse": -1,
            "catchTime": 1678911781841,
            "trialTime": 0
        },
        {
            "exptPart": "trial",
            "trialNumber": 76,
            "roleCurrent": "receiver",
            "marblesSampled": 100,
            "probRed": 0.5,
            "practiceLambda": 5,
            "trialLambda": 0.3,
            "instructedLambda": "dishonest_big",
            "drawnRed": 43,
            "reportedRed": 43,
            "inferredRed": 41,
            "playerTrialScore": -2,
            "oppTrialScore": 0,
            "playerTotalScore": -709,
            "oppTotalScore": 258,
            "waitTime": 5634.078963033793,
            "responseTime": 1678911890320,
            "catchQuestion": "How many <b class=\"r\">red<\/b> marbles did your opponent report drawing? ",
            "catchKey": -1,
            "catchResponse": -1,
            "catchTime": 1678911781841,
            "trialTime": 0
        },
        {
            "exptPart": "trial",
            "trialNumber": 77,
            "roleCurrent": "receiver",
            "marblesSampled": 100,
            "probRed": 0.5,
            "practiceLambda": 5,
            "trialLambda": 0.3,
            "instructedLambda": "dishonest_big",
            "drawnRed": 45,
            "reportedRed": 46,
            "inferredRed": 40,
            "playerTrialScore": -5,
            "oppTrialScore": 0,
            "playerTotalScore": -714,
            "oppTotalScore": 258,
            "waitTime": 7423.5610016553455,
            "responseTime": 1678911901582,
            "catchQuestion": "How many <b class=\"r\">red<\/b> marbles did your opponent report drawing? ",
            "catchKey": -1,
            "catchResponse": -1,
            "catchTime": 1678911781841,
            "trialTime": 0
        },
        {
            "exptPart": "trial",
            "trialNumber": 78,
            "roleCurrent": "receiver",
            "marblesSampled": 100,
            "probRed": 0.5,
            "practiceLambda": 5,
            "trialLambda": 0.3,
            "instructedLambda": "dishonest_big",
            "drawnRed": 33,
            "reportedRed": 33,
            "inferredRed": 41,
            "playerTrialScore": -8,
            "oppTrialScore": 8,
            "playerTotalScore": -722,
            "oppTotalScore": 266,
            "waitTime": 5284.7491337018955,
            "responseTime": 1678911916606,
            "catchQuestion": "How many <b class=\"r\">red<\/b> marbles did your opponent report drawing? ",
            "catchKey": -1,
            "catchResponse": -1,
            "catchTime": 1678911781841,
            "trialTime": 0
        },
        {
            "exptPart": "trial",
            "trialNumber": 79,
            "roleCurrent": "receiver",
            "marblesSampled": 100,
            "probRed": 0.5,
            "practiceLambda": 5,
            "trialLambda": 0.3,
            "instructedLambda": "dishonest_big",
            "drawnRed": 36,
            "reportedRed": 36,
            "inferredRed": 39,
            "playerTrialScore": -3,
            "oppTrialScore": 3,
            "playerTotalScore": -725,
            "oppTotalScore": 269,
            "waitTime": 6440.038418914806,
            "responseTime": 1678911927485,
            "catchQuestion": "How many <b class=\"r\">red<\/b> marbles did your opponent report drawing? ",
            "catchKey": -1,
            "catchResponse": -1,
            "catchTime": 1678911781841,
            "trialTime": 0
        },
        {
            "exptPart": "trial",
            "trialNumber": 80,
            "roleCurrent": "receiver",
            "marblesSampled": 100,
            "probRed": 0.5,
            "practiceLambda": 5,
            "trialLambda": 0.3,
            "instructedLambda": "dishonest_big",
            "drawnRed": 35,
            "reportedRed": 35,
            "inferredRed": 39,
            "playerTrialScore": -4,
            "oppTrialScore": 4,
            "playerTotalScore": -729,
            "oppTotalScore": 273,
            "waitTime": 5182.93830959748,
            "responseTime": 1678911937585,
            "catchQuestion": "How many <b class=\"r\">red<\/b> marbles did your opponent report drawing? ",
            "catchKey": -1,
            "catchResponse": -1,
            "catchTime": 1678911937585,
            "trialTime": 0
        },
        {
            "exptPart": "trial",
            "trialNumber": 81,
            "roleCurrent": "receiver",
            "marblesSampled": 100,
            "probRed": 0.5,
            "practiceLambda": 5,
            "trialLambda": 0.3,
            "instructedLambda": "dishonest_big",
            "drawnRed": 39,
            "reportedRed": 39,
            "inferredRed": 45,
            "playerTrialScore": -6,
            "oppTrialScore": 6,
            "playerTotalScore": -735,
            "oppTotalScore": 279,
            "waitTime": 6160.0289468598185,
            "responseTime": 1678911960148,
            "catchQuestion": "How many <b class=\"r\">red<\/b> marbles did your opponent report drawing? ",
            "catchKey": -1,
            "catchResponse": -1,
            "catchTime": 1678911937585,
            "trialTime": 0
        },
        {
            "exptPart": "trial",
            "trialNumber": 82,
            "roleCurrent": "receiver",
            "marblesSampled": 100,
            "probRed": 0.5,
            "practiceLambda": 5,
            "trialLambda": 0.3,
            "instructedLambda": "dishonest_big",
            "drawnRed": 75,
            "reportedRed": 75,
            "inferredRed": 70,
            "playerTrialScore": -5,
            "oppTrialScore": 0,
            "playerTotalScore": -740,
            "oppTotalScore": 279,
            "waitTime": 7287.463967053502,
            "responseTime": 1678911974179,
            "catchQuestion": "How many <b class=\"r\">red<\/b> marbles did your opponent report drawing? ",
            "catchKey": -1,
            "catchResponse": -1,
            "catchTime": 1678911937585,
            "trialTime": 0
        },
        {
            "exptPart": "trial",
            "trialNumber": 83,
            "roleCurrent": "receiver",
            "marblesSampled": 100,
            "probRed": 0.5,
            "practiceLambda": 5,
            "trialLambda": 0.3,
            "instructedLambda": "dishonest_big",
            "drawnRed": 66,
            "reportedRed": 66,
            "inferredRed": 69,
            "playerTrialScore": -3,
            "oppTrialScore": 3,
            "playerTotalScore": -743,
            "oppTotalScore": 282,
            "waitTime": 5939.731101086823,
            "responseTime": 1678911991322,
            "catchQuestion": "How many <b class=\"r\">red<\/b> marbles did your opponent report drawing? ",
            "catchKey": -1,
            "catchResponse": -1,
            "catchTime": 1678911937585,
            "trialTime": 0
        },
        {
            "exptPart": "trial",
            "trialNumber": 84,
            "roleCurrent": "receiver",
            "marblesSampled": 100,
            "probRed": 0.5,
            "practiceLambda": 5,
            "trialLambda": 0.3,
            "instructedLambda": "dishonest_big",
            "drawnRed": 60,
            "reportedRed": 60,
            "inferredRed": 64,
            "playerTrialScore": -4,
            "oppTrialScore": 4,
            "playerTotalScore": -747,
            "oppTotalScore": 286,
            "waitTime": 6083.311223394483,
            "responseTime": 1678912006031,
            "catchQuestion": "How many <b class=\"r\">red<\/b> marbles did your opponent report drawing? ",
            "catchKey": -1,
            "catchResponse": -1,
            "catchTime": 1678911937585,
            "trialTime": 0
        },
        {
            "exptPart": "trial",
            "trialNumber": 85,
            "roleCurrent": "receiver",
            "marblesSampled": 100,
            "probRed": 0.5,
            "practiceLambda": 5,
            "trialLambda": 0.3,
            "instructedLambda": "dishonest_big",
            "drawnRed": 39,
            "reportedRed": 41,
            "inferredRed": 49,
            "playerTrialScore": -10,
            "oppTrialScore": 10,
            "playerTotalScore": -757,
            "oppTotalScore": 296,
            "waitTime": 5551.107918492363,
            "responseTime": 1678912019031,
            "catchQuestion": "How many <b class=\"r\">red<\/b> marbles did your opponent report drawing? ",
            "catchKey": -1,
            "catchResponse": -1,
            "catchTime": 1678911937585,
            "trialTime": 0
        },
        {
            "exptPart": "trial",
            "trialNumber": 86,
            "roleCurrent": "receiver",
            "marblesSampled": 100,
            "probRed": 0.5,
            "practiceLambda": 5,
            "trialLambda": 0.3,
            "instructedLambda": "dishonest_big",
            "drawnRed": 78,
            "reportedRed": 78,
            "inferredRed": 64,
            "playerTrialScore": -14,
            "oppTrialScore": 0,
            "playerTotalScore": -771,
            "oppTotalScore": 296,
            "waitTime": 5221.433046108015,
            "responseTime": 1678912027973,
            "catchQuestion": "How many <b class=\"r\">red<\/b> marbles did your opponent report drawing? ",
            "catchKey": -1,
            "catchResponse": -1,
            "catchTime": 1678911937585,
            "trialTime": 0
        },
        {
            "exptPart": "trial",
            "trialNumber": 87,
            "roleCurrent": "receiver",
            "marblesSampled": 100,
            "probRed": 0.5,
            "practiceLambda": 5,
            "trialLambda": 0.3,
            "instructedLambda": "dishonest_big",
            "drawnRed": 20,
            "reportedRed": 21,
            "inferredRed": 39,
            "playerTrialScore": -19,
            "oppTrialScore": 19,
            "playerTotalScore": -790,
            "oppTotalScore": 315,
            "waitTime": 6534.290428875906,
            "responseTime": 1678912039493,
            "catchQuestion": "How many <b class=\"r\">red<\/b> marbles did your opponent report drawing? ",
            "catchKey": -1,
            "catchResponse": -1,
            "catchTime": 1678911937585,
            "trialTime": 0
        },
        {
            "exptPart": "trial",
            "trialNumber": 88,
            "roleCurrent": "receiver",
            "marblesSampled": 100,
            "probRed": 0.5,
            "practiceLambda": 5,
            "trialLambda": 0.3,
            "instructedLambda": "dishonest_big",
            "drawnRed": 48,
            "reportedRed": 48,
            "inferredRed": 54,
            "playerTrialScore": -6,
            "oppTrialScore": 6,
            "playerTotalScore": -796,
            "oppTotalScore": 321,
            "waitTime": 5155.312010435508,
            "responseTime": 1678912051107,
            "catchQuestion": "How many <b class=\"r\">red<\/b> marbles did your opponent report drawing? ",
            "catchKey": 48,
            "catchResponse": 48,
            "catchTime": 1678912051107,
            "trialTime": 0
        },
        {
            "exptPart": "trial",
            "trialNumber": 89,
            "roleCurrent": "receiver",
            "marblesSampled": 100,
            "probRed": 0.5,
            "practiceLambda": 5,
            "trialLambda": 0.3,
            "instructedLambda": "dishonest_big",
            "drawnRed": 43,
            "reportedRed": 44,
            "inferredRed": 57,
            "playerTrialScore": -14,
            "oppTrialScore": 14,
            "playerTotalScore": -810,
            "oppTotalScore": 335,
            "waitTime": 6871.085015711821,
            "responseTime": 1678912065803,
            "catchQuestion": "How many <b class=\"r\">red<\/b> marbles did your opponent report drawing? ",
            "catchKey": -1,
            "catchResponse": -1,
            "catchTime": 1678912051107,
            "trialTime": 0
        },
        {
            "exptPart": "trial",
            "trialNumber": 90,
            "roleCurrent": "receiver",
            "marblesSampled": 100,
            "probRed": 0.5,
            "practiceLambda": 5,
            "trialLambda": 0.3,
            "instructedLambda": "dishonest_big",
            "drawnRed": 58,
            "reportedRed": 58,
            "inferredRed": 52,
            "playerTrialScore": -6,
            "oppTrialScore": 0,
            "playerTotalScore": -816,
            "oppTotalScore": 335,
            "waitTime": 5890.300544755266,
            "responseTime": 1678912075942,
            "catchQuestion": "How many <b class=\"r\">red<\/b> marbles did your opponent report drawing? ",
            "catchKey": -1,
            "catchResponse": -1,
            "catchTime": 1678912075942,
            "trialTime": 0
        },
        {
            "exptPart": "trial",
            "trialNumber": 91,
            "roleCurrent": "receiver",
            "marblesSampled": 100,
            "probRed": 0.5,
            "practiceLambda": 5,
            "trialLambda": 0.3,
            "instructedLambda": "dishonest_big",
            "drawnRed": 53,
            "reportedRed": 53,
            "inferredRed": 42,
            "playerTrialScore": -11,
            "oppTrialScore": 0,
            "playerTotalScore": -827,
            "oppTotalScore": 335,
            "waitTime": 7347.676955226973,
            "responseTime": 1678912092118,
            "catchQuestion": "How many <b class=\"r\">red<\/b> marbles did your opponent report drawing? ",
            "catchKey": -1,
            "catchResponse": -1,
            "catchTime": 1678912075942,
            "trialTime": 0
        },
        {
            "exptPart": "trial",
            "trialNumber": 92,
            "roleCurrent": "receiver",
            "marblesSampled": 100,
            "probRed": 0.5,
            "practiceLambda": 5,
            "trialLambda": 0.3,
            "instructedLambda": "dishonest_big",
            "drawnRed": 62,
            "reportedRed": 63,
            "inferredRed": 54,
            "playerTrialScore": -8,
            "oppTrialScore": 0,
            "playerTotalScore": -835,
            "oppTotalScore": 335,
            "waitTime": 5709.137918089664,
            "responseTime": 1678912102950,
            "catchQuestion": "How many <b class=\"r\">red<\/b> marbles did your opponent report drawing? ",
            "catchKey": -1,
            "catchResponse": -1,
            "catchTime": 1678912075942,
            "trialTime": 0
        },
        {
            "exptPart": "trial",
            "trialNumber": 93,
            "roleCurrent": "receiver",
            "marblesSampled": 100,
            "probRed": 0.5,
            "practiceLambda": 5,
            "trialLambda": 0.3,
            "instructedLambda": "dishonest_big",
            "drawnRed": 70,
            "reportedRed": 70,
            "inferredRed": 63,
            "playerTrialScore": -7,
            "oppTrialScore": 0,
            "playerTotalScore": -842,
            "oppTotalScore": 335,
            "waitTime": 6492.95481295756,
            "responseTime": 1678912113953,
            "catchQuestion": "How many <b class=\"r\">red<\/b> marbles did your opponent report drawing? ",
            "catchKey": 70,
            "catchResponse": 70,
            "catchTime": 1678912113953,
            "trialTime": 0
        },
        {
            "exptPart": "trial",
            "trialNumber": 94,
            "roleCurrent": "receiver",
            "marblesSampled": 100,
            "probRed": 0.5,
            "practiceLambda": 5,
            "trialLambda": 0.3,
            "instructedLambda": "dishonest_big",
            "drawnRed": 27,
            "reportedRed": 27,
            "inferredRed": 35,
            "playerTrialScore": -8,
            "oppTrialScore": 8,
            "playerTotalScore": -850,
            "oppTotalScore": 343,
            "waitTime": 6667.784268176407,
            "responseTime": 1678912130222,
            "catchQuestion": "How many <b class=\"r\">red<\/b> marbles did your opponent report drawing? ",
            "catchKey": -1,
            "catchResponse": -1,
            "catchTime": 1678912113953,
            "trialTime": 0
        },
        {
            "exptPart": "trial",
            "trialNumber": 95,
            "roleCurrent": "receiver",
            "marblesSampled": 100,
            "probRed": 0.5,
            "practiceLambda": 5,
            "trialLambda": 0.3,
            "instructedLambda": "dishonest_big",
            "drawnRed": 61,
            "reportedRed": 61,
            "inferredRed": 53,
            "playerTrialScore": -8,
            "oppTrialScore": 0,
            "playerTotalScore": -858,
            "oppTotalScore": 343,
            "waitTime": 5445.022053409735,
            "responseTime": 1678912139076,
            "catchQuestion": "How many <b class=\"r\">red<\/b> marbles did your opponent report drawing? ",
            "catchKey": -1,
            "catchResponse": -1,
            "catchTime": 1678912113953,
            "trialTime": 0
        },
        {
            "exptPart": "trial",
            "trialNumber": 96,
            "roleCurrent": "receiver",
            "marblesSampled": 100,
            "probRed": 0.5,
            "practiceLambda": 5,
            "trialLambda": 0.3,
            "instructedLambda": "dishonest_big",
            "drawnRed": 55,
            "reportedRed": 56,
            "inferredRed": 52,
            "playerTrialScore": -3,
            "oppTrialScore": 0,
            "playerTotalScore": -861,
            "oppTotalScore": 343,
            "waitTime": 5601.464739492743,
            "responseTime": 1678912150737,
            "catchQuestion": "How many <b class=\"r\">red<\/b> marbles did your opponent report drawing? ",
            "catchKey": -1,
            "catchResponse": -1,
            "catchTime": 1678912113953,
            "trialTime": 0
        },
        {
            "exptPart": "trial",
            "trialNumber": 97,
            "roleCurrent": "receiver",
            "marblesSampled": 100,
            "probRed": 0.5,
            "practiceLambda": 5,
            "trialLambda": 0.3,
            "instructedLambda": "dishonest_big",
            "drawnRed": 88,
            "reportedRed": 88,
            "inferredRed": 54,
            "playerTrialScore": -34,
            "oppTrialScore": 0,
            "playerTotalScore": -895,
            "oppTotalScore": 343,
            "waitTime": 5473.9388716320445,
            "responseTime": 1678912161329,
            "catchQuestion": "How many <b class=\"r\">red<\/b> marbles did your opponent report drawing? ",
            "catchKey": 88,
            "catchResponse": 80,
            "catchTime": 1678912161329,
            "trialTime": 0
        },
        {
            "exptPart": "trial",
            "trialNumber": 98,
            "roleCurrent": "receiver",
            "marblesSampled": 100,
            "probRed": 0.5,
            "practiceLambda": 5,
            "trialLambda": 0.3,
            "instructedLambda": "dishonest_big",
            "drawnRed": 64,
            "reportedRed": 64,
            "inferredRed": 53,
            "playerTrialScore": -11,
            "oppTrialScore": 0,
            "playerTotalScore": -906,
            "oppTotalScore": 343,
            "waitTime": 6173.383802302242,
            "responseTime": 1678912179420,
            "catchQuestion": "How many <b class=\"r\">red<\/b> marbles did your opponent report drawing? ",
            "catchKey": -1,
            "catchResponse": -1,
            "catchTime": 1678912161329,
            "trialTime": 0
        },
        {
            "exptPart": "trial",
            "trialNumber": 99,
            "roleCurrent": "receiver",
            "marblesSampled": 100,
            "probRed": 0.5,
            "practiceLambda": 5,
            "trialLambda": 0.3,
            "instructedLambda": "dishonest_big",
            "drawnRed": 39,
            "reportedRed": 39,
            "inferredRed": 43,
            "playerTrialScore": -4,
            "oppTrialScore": 4,
            "playerTotalScore": -910,
            "oppTotalScore": 347,
            "waitTime": 5498.401322074393,
            "responseTime": 1678912190631,
            "catchQuestion": "How many <b class=\"r\">red<\/b> marbles did your opponent report drawing? ",
            "catchKey": -1,
            "catchResponse": -1,
            "catchTime": 1678912161329,
            "trialTime": 0
        },
        {
            "exptPart": "trial",
            "trialNumber": 100,
            "roleCurrent": "receiver",
            "marblesSampled": 100,
            "probRed": 0.5,
            "practiceLambda": 5,
            "trialLambda": 0.3,
            "instructedLambda": "dishonest_big",
            "drawnRed": 20,
            "reportedRed": 21,
            "inferredRed": 36,
            "playerTrialScore": -16,
            "oppTrialScore": 16,
            "playerTotalScore": -926,
            "oppTotalScore": 363,
            "waitTime": 6314.643165381636,
            "responseTime": 1678912200861,
            "catchQuestion": "How many <b class=\"r\">red<\/b> marbles did your opponent report drawing? ",
            "catchKey": -1,
            "catchResponse": -1,
            "catchTime": 1678912200862,
            "trialTime": 0
        }
    ]
}