{
    "client": {
        "type": "sona",
        "experiment_id": 2228,
        "credit_token": "b315147ae43241ea9c65086cb510cfb7",
        "survey_code": "41581",
        "sid": "sona-41581",
        "window": {
            "width": 1440,
            "height": 789
        },
        "screen": {
            "width": 1440,
            "height": 900
        },
        "userAgent": "Mozilla\/5.0 (Macintosh; Intel Mac OS X 10_15_7) AppleWebKit\/537.36 (KHTML, like Gecko) Chrome\/111.0.0.0 Safari\/537.36",
        "score": 0,
        "bonus": 0
    },
    "expt": {
        "saveURL": "submit.simple.php",
        "trials": 100,
        "practiceTrials": 2,
        "marblesSampled": 100,
        "probRed": 0.5,
        "practiceLambdaAI": 5,
        "lambdaAI": 0.3,
        "roles": [
            "sender",
            "receiver"
        ],
        "cost": "unif",
        "goal": "over",
        "oppDishonesty": "dishonest_big",
        "catchTrials": [
            11,
            48,
            99,
            5,
            27,
            35,
            98,
            2,
            15,
            42
        ],
        "scoreTotal": {
            "player": -399,
            "opp": 204
        },
        "sona": {
            "experiment_id": 2228,
            "credit_token": "b315147ae43241ea9c65086cb510cfb7"
        },
        "pilot": false,
        "debug": false
    },
    "trials": [
        {
            "exptPart": "practice",
            "trialNumber": 1,
            "roleCurrent": "sender",
            "marblesSampled": 100,
            "probRed": 0.5,
            "practiceLambda": 5,
            "trialLambda": 0.3,
            "instructedLambda": "dishonest_big",
            "drawnRed": 53,
            "reportedRed": 48,
            "inferredRed": 41,
            "playerTrialScore": 0,
            "oppTrialScore": -12,
            "playerTotalScore": 0,
            "oppTotalScore": -12,
            "waitTime": 2733.661054563622,
            "responseTime": 1680753983840,
            "catchQuestion": "How many <b class=\"r\">red<\/b> marbles did you actually draw (before any changes)? ",
            "catchKey": 53,
            "catchResponse": 53,
            "catchTime": 1680753983840,
            "trialTime": 0
        },
        {
            "exptPart": "practice",
            "trialNumber": 2,
            "roleCurrent": "receiver",
            "marblesSampled": 100,
            "probRed": 0.5,
            "practiceLambda": 5,
            "trialLambda": 0.3,
            "instructedLambda": "dishonest_big",
            "drawnRed": 44,
            "reportedRed": 46,
            "inferredRed": 49,
            "playerTrialScore": -5,
            "oppTrialScore": 5,
            "playerTotalScore": -5,
            "oppTotalScore": -7,
            "waitTime": 5732.5927297394865,
            "responseTime": 1680754011614,
            "catchQuestion": "How many <b class=\"r\">red<\/b> marbles did your opponent report drawing? ",
            "catchKey": 46,
            "catchResponse": 46,
            "catchTime": 1680754011614,
            "trialTime": 0
        },
        {
            "exptPart": "trial",
            "trialNumber": 1,
            "roleCurrent": "receiver",
            "marblesSampled": 100,
            "probRed": 0.5,
            "practiceLambda": 5,
            "trialLambda": 0.3,
            "instructedLambda": "dishonest_big",
            "drawnRed": 70,
            "reportedRed": 70,
            "inferredRed": 56,
            "playerTrialScore": -14,
            "oppTrialScore": 0,
            "playerTotalScore": -14,
            "oppTotalScore": 0,
            "waitTime": 7183.178222967487,
            "responseTime": 1680754042283,
            "catchQuestion": "How many <b class=\"r\">red<\/b> marbles did your opponent report drawing? ",
            "catchKey": -1,
            "catchResponse": -1,
            "catchTime": 1680754011614,
            "trialTime": 0
        },
        {
            "exptPart": "trial",
            "trialNumber": 2,
            "roleCurrent": "receiver",
            "marblesSampled": 100,
            "probRed": 0.5,
            "practiceLambda": 5,
            "trialLambda": 0.3,
            "instructedLambda": "dishonest_big",
            "drawnRed": 34,
            "reportedRed": 34,
            "inferredRed": 45,
            "playerTrialScore": -11,
            "oppTrialScore": 11,
            "playerTotalScore": -25,
            "oppTotalScore": 11,
            "waitTime": 6407.984104054702,
            "responseTime": 1680754052788,
            "catchQuestion": "How many <b class=\"r\">red<\/b> marbles did your opponent report drawing? ",
            "catchKey": -1,
            "catchResponse": -1,
            "catchTime": 1680754011614,
            "trialTime": 0
        },
        {
            "exptPart": "trial",
            "trialNumber": 3,
            "roleCurrent": "receiver",
            "marblesSampled": 100,
            "probRed": 0.5,
            "practiceLambda": 5,
            "trialLambda": 0.3,
            "instructedLambda": "dishonest_big",
            "drawnRed": 42,
            "reportedRed": 43,
            "inferredRed": 48,
            "playerTrialScore": -6,
            "oppTrialScore": 6,
            "playerTotalScore": -31,
            "oppTotalScore": 17,
            "waitTime": 7460.45602434692,
            "responseTime": 1680754064149,
            "catchQuestion": "How many <b class=\"r\">red<\/b> marbles did your opponent report drawing? ",
            "catchKey": 43,
            "catchResponse": 43,
            "catchTime": 1680754064149,
            "trialTime": 0
        },
        {
            "exptPart": "trial",
            "trialNumber": 4,
            "roleCurrent": "receiver",
            "marblesSampled": 100,
            "probRed": 0.5,
            "practiceLambda": 5,
            "trialLambda": 0.3,
            "instructedLambda": "dishonest_big",
            "drawnRed": 52,
            "reportedRed": 53,
            "inferredRed": 51,
            "playerTrialScore": -1,
            "oppTrialScore": 0,
            "playerTotalScore": -32,
            "oppTotalScore": 17,
            "waitTime": 5671.571562494313,
            "responseTime": 1680754079744,
            "catchQuestion": "How many <b class=\"r\">red<\/b> marbles did your opponent report drawing? ",
            "catchKey": -1,
            "catchResponse": -1,
            "catchTime": 1680754064149,
            "trialTime": 0
        },
        {
            "exptPart": "trial",
            "trialNumber": 5,
            "roleCurrent": "receiver",
            "marblesSampled": 100,
            "probRed": 0.5,
            "practiceLambda": 5,
            "trialLambda": 0.3,
            "instructedLambda": "dishonest_big",
            "drawnRed": 40,
            "reportedRed": 41,
            "inferredRed": 46,
            "playerTrialScore": -6,
            "oppTrialScore": 6,
            "playerTotalScore": -38,
            "oppTotalScore": 23,
            "waitTime": 6053.870889361398,
            "responseTime": 1680754090730,
            "catchQuestion": "How many <b class=\"r\">red<\/b> marbles did your opponent report drawing? ",
            "catchKey": -1,
            "catchResponse": -1,
            "catchTime": 1680754064149,
            "trialTime": 0
        },
        {
            "exptPart": "trial",
            "trialNumber": 6,
            "roleCurrent": "receiver",
            "marblesSampled": 100,
            "probRed": 0.5,
            "practiceLambda": 5,
            "trialLambda": 0.3,
            "instructedLambda": "dishonest_big",
            "drawnRed": 17,
            "reportedRed": 17,
            "inferredRed": 38,
            "playerTrialScore": -21,
            "oppTrialScore": 21,
            "playerTotalScore": -59,
            "oppTotalScore": 44,
            "waitTime": 7259.026041329337,
            "responseTime": 1680754110785,
            "catchQuestion": "How many <b class=\"r\">red<\/b> marbles did your opponent report drawing? ",
            "catchKey": 17,
            "catchResponse": 17,
            "catchTime": 1680754110786,
            "trialTime": 0
        },
        {
            "exptPart": "trial",
            "trialNumber": 7,
            "roleCurrent": "receiver",
            "marblesSampled": 100,
            "probRed": 0.5,
            "practiceLambda": 5,
            "trialLambda": 0.3,
            "instructedLambda": "dishonest_big",
            "drawnRed": 61,
            "reportedRed": 61,
            "inferredRed": 52,
            "playerTrialScore": -9,
            "oppTrialScore": 0,
            "playerTotalScore": -68,
            "oppTotalScore": 44,
            "waitTime": 7025.935728857605,
            "responseTime": 1680754126151,
            "catchQuestion": "How many <b class=\"r\">red<\/b> marbles did your opponent report drawing? ",
            "catchKey": -1,
            "catchResponse": -1,
            "catchTime": 1680754110786,
            "trialTime": 0
        },
        {
            "exptPart": "trial",
            "trialNumber": 8,
            "roleCurrent": "receiver",
            "marblesSampled": 100,
            "probRed": 0.5,
            "practiceLambda": 5,
            "trialLambda": 0.3,
            "instructedLambda": "dishonest_big",
            "drawnRed": 57,
            "reportedRed": 57,
            "inferredRed": 49,
            "playerTrialScore": -8,
            "oppTrialScore": 0,
            "playerTotalScore": -76,
            "oppTotalScore": 44,
            "waitTime": 5494.328505576128,
            "responseTime": 1680754136254,
            "catchQuestion": "How many <b class=\"r\">red<\/b> marbles did your opponent report drawing? ",
            "catchKey": -1,
            "catchResponse": -1,
            "catchTime": 1680754110786,
            "trialTime": 0
        },
        {
            "exptPart": "trial",
            "trialNumber": 9,
            "roleCurrent": "receiver",
            "marblesSampled": 100,
            "probRed": 0.5,
            "practiceLambda": 5,
            "trialLambda": 0.3,
            "instructedLambda": "dishonest_big",
            "drawnRed": 36,
            "reportedRed": 36,
            "inferredRed": 45,
            "playerTrialScore": -9,
            "oppTrialScore": 9,
            "playerTotalScore": -85,
            "oppTotalScore": 53,
            "waitTime": 5285.712220855081,
            "responseTime": 1680754144348,
            "catchQuestion": "How many <b class=\"r\">red<\/b> marbles did your opponent report drawing? ",
            "catchKey": -1,
            "catchResponse": -1,
            "catchTime": 1680754110786,
            "trialTime": 0
        },
        {
            "exptPart": "trial",
            "trialNumber": 10,
            "roleCurrent": "receiver",
            "marblesSampled": 100,
            "probRed": 0.5,
            "practiceLambda": 5,
            "trialLambda": 0.3,
            "instructedLambda": "dishonest_big",
            "drawnRed": 21,
            "reportedRed": 21,
            "inferredRed": 39,
            "playerTrialScore": -18,
            "oppTrialScore": 18,
            "playerTotalScore": -103,
            "oppTotalScore": 71,
            "waitTime": 5732.953088178132,
            "responseTime": 1680754154154,
            "catchQuestion": "How many <b class=\"r\">red<\/b> marbles did your opponent report drawing? ",
            "catchKey": -1,
            "catchResponse": -1,
            "catchTime": 1680754154154,
            "trialTime": 0
        },
        {
            "exptPart": "trial",
            "trialNumber": 11,
            "roleCurrent": "receiver",
            "marblesSampled": 100,
            "probRed": 0.5,
            "practiceLambda": 5,
            "trialLambda": 0.3,
            "instructedLambda": "dishonest_big",
            "drawnRed": 55,
            "reportedRed": 55,
            "inferredRed": 53,
            "playerTrialScore": -2,
            "oppTrialScore": 0,
            "playerTotalScore": -105,
            "oppTotalScore": 71,
            "waitTime": 6495.620335866408,
            "responseTime": 1680754171677,
            "catchQuestion": "How many <b class=\"r\">red<\/b> marbles did your opponent report drawing? ",
            "catchKey": -1,
            "catchResponse": -1,
            "catchTime": 1680754154154,
            "trialTime": 0
        },
        {
            "exptPart": "trial",
            "trialNumber": 12,
            "roleCurrent": "receiver",
            "marblesSampled": 100,
            "probRed": 0.5,
            "practiceLambda": 5,
            "trialLambda": 0.3,
            "instructedLambda": "dishonest_big",
            "drawnRed": 66,
            "reportedRed": 66,
            "inferredRed": 60,
            "playerTrialScore": -6,
            "oppTrialScore": 0,
            "playerTotalScore": -111,
            "oppTotalScore": 71,
            "waitTime": 6462.052291207787,
            "responseTime": 1680754180958,
            "catchQuestion": "How many <b class=\"r\">red<\/b> marbles did your opponent report drawing? ",
            "catchKey": 66,
            "catchResponse": 66,
            "catchTime": 1680754180958,
            "trialTime": 0
        },
        {
            "exptPart": "trial",
            "trialNumber": 13,
            "roleCurrent": "receiver",
            "marblesSampled": 100,
            "probRed": 0.5,
            "practiceLambda": 5,
            "trialLambda": 0.3,
            "instructedLambda": "dishonest_big",
            "drawnRed": 43,
            "reportedRed": 43,
            "inferredRed": 45,
            "playerTrialScore": -2,
            "oppTrialScore": 2,
            "playerTotalScore": -113,
            "oppTotalScore": 73,
            "waitTime": 5786.222209012682,
            "responseTime": 1680754195433,
            "catchQuestion": "How many <b class=\"r\">red<\/b> marbles did your opponent report drawing? ",
            "catchKey": -1,
            "catchResponse": -1,
            "catchTime": 1680754180958,
            "trialTime": 0
        },
        {
            "exptPart": "trial",
            "trialNumber": 14,
            "roleCurrent": "receiver",
            "marblesSampled": 100,
            "probRed": 0.5,
            "practiceLambda": 5,
            "trialLambda": 0.3,
            "instructedLambda": "dishonest_big",
            "drawnRed": 41,
            "reportedRed": 41,
            "inferredRed": 44,
            "playerTrialScore": -3,
            "oppTrialScore": 3,
            "playerTotalScore": -116,
            "oppTotalScore": 76,
            "waitTime": 5767.837819463755,
            "responseTime": 1680754206796,
            "catchQuestion": "How many <b class=\"r\">red<\/b> marbles did your opponent report drawing? ",
            "catchKey": -1,
            "catchResponse": -1,
            "catchTime": 1680754180958,
            "trialTime": 0
        },
        {
            "exptPart": "trial",
            "trialNumber": 15,
            "roleCurrent": "receiver",
            "marblesSampled": 100,
            "probRed": 0.5,
            "practiceLambda": 5,
            "trialLambda": 0.3,
            "instructedLambda": "dishonest_big",
            "drawnRed": 29,
            "reportedRed": 30,
            "inferredRed": 38,
            "playerTrialScore": -9,
            "oppTrialScore": 9,
            "playerTotalScore": -125,
            "oppTotalScore": 85,
            "waitTime": 5833.0370669902295,
            "responseTime": 1680754215503,
            "catchQuestion": "How many <b class=\"r\">red<\/b> marbles did your opponent report drawing? ",
            "catchKey": -1,
            "catchResponse": -1,
            "catchTime": 1680754180958,
            "trialTime": 0
        },
        {
            "exptPart": "trial",
            "trialNumber": 16,
            "roleCurrent": "receiver",
            "marblesSampled": 100,
            "probRed": 0.5,
            "practiceLambda": 5,
            "trialLambda": 0.3,
            "instructedLambda": "dishonest_big",
            "drawnRed": 51,
            "reportedRed": 51,
            "inferredRed": 48,
            "playerTrialScore": -3,
            "oppTrialScore": 0,
            "playerTotalScore": -128,
            "oppTotalScore": 85,
            "waitTime": 5708.068083214808,
            "responseTime": 1680754226008,
            "catchQuestion": "How many <b class=\"r\">red<\/b> marbles did your opponent report drawing? ",
            "catchKey": 51,
            "catchResponse": 51,
            "catchTime": 1680754226008,
            "trialTime": 0
        },
        {
            "exptPart": "trial",
            "trialNumber": 17,
            "roleCurrent": "receiver",
            "marblesSampled": 100,
            "probRed": 0.5,
            "practiceLambda": 5,
            "trialLambda": 0.3,
            "instructedLambda": "dishonest_big",
            "drawnRed": 29,
            "reportedRed": 29,
            "inferredRed": 37,
            "playerTrialScore": -8,
            "oppTrialScore": 8,
            "playerTotalScore": -136,
            "oppTotalScore": 93,
            "waitTime": 6261.686681246439,
            "responseTime": 1680754240977,
            "catchQuestion": "How many <b class=\"r\">red<\/b> marbles did your opponent report drawing? ",
            "catchKey": -1,
            "catchResponse": -1,
            "catchTime": 1680754226008,
            "trialTime": 0
        },
        {
            "exptPart": "trial",
            "trialNumber": 18,
            "roleCurrent": "receiver",
            "marblesSampled": 100,
            "probRed": 0.5,
            "practiceLambda": 5,
            "trialLambda": 0.3,
            "instructedLambda": "dishonest_big",
            "drawnRed": 54,
            "reportedRed": 54,
            "inferredRed": 50,
            "playerTrialScore": -4,
            "oppTrialScore": 0,
            "playerTotalScore": -140,
            "oppTotalScore": 93,
            "waitTime": 6327.182647392484,
            "responseTime": 1680754252453,
            "catchQuestion": "How many <b class=\"r\">red<\/b> marbles did your opponent report drawing? ",
            "catchKey": -1,
            "catchResponse": -1,
            "catchTime": 1680754226008,
            "trialTime": 0
        },
        {
            "exptPart": "trial",
            "trialNumber": 19,
            "roleCurrent": "receiver",
            "marblesSampled": 100,
            "probRed": 0.5,
            "practiceLambda": 5,
            "trialLambda": 0.3,
            "instructedLambda": "dishonest_big",
            "drawnRed": 58,
            "reportedRed": 59,
            "inferredRed": 55,
            "playerTrialScore": -3,
            "oppTrialScore": 0,
            "playerTotalScore": -143,
            "oppTotalScore": 93,
            "waitTime": 6326.652413947833,
            "responseTime": 1680754261964,
            "catchQuestion": "How many <b class=\"r\">red<\/b> marbles did your opponent report drawing? ",
            "catchKey": -1,
            "catchResponse": -1,
            "catchTime": 1680754226008,
            "trialTime": 0
        },
        {
            "exptPart": "trial",
            "trialNumber": 20,
            "roleCurrent": "receiver",
            "marblesSampled": 100,
            "probRed": 0.5,
            "practiceLambda": 5,
            "trialLambda": 0.3,
            "instructedLambda": "dishonest_big",
            "drawnRed": 61,
            "reportedRed": 61,
            "inferredRed": 59,
            "playerTrialScore": -2,
            "oppTrialScore": 0,
            "playerTotalScore": -145,
            "oppTotalScore": 93,
            "waitTime": 7246.774947826403,
            "responseTime": 1680754273745,
            "catchQuestion": "How many <b class=\"r\">red<\/b> marbles did your opponent report drawing? ",
            "catchKey": -1,
            "catchResponse": -1,
            "catchTime": 1680754273745,
            "trialTime": 0
        },
        {
            "exptPart": "trial",
            "trialNumber": 21,
            "roleCurrent": "receiver",
            "marblesSampled": 100,
            "probRed": 0.5,
            "practiceLambda": 5,
            "trialLambda": 0.3,
            "instructedLambda": "dishonest_big",
            "drawnRed": 56,
            "reportedRed": 57,
            "inferredRed": 55,
            "playerTrialScore": -1,
            "oppTrialScore": 0,
            "playerTotalScore": -146,
            "oppTotalScore": 93,
            "waitTime": 5637.198547194665,
            "responseTime": 1680754283943,
            "catchQuestion": "How many <b class=\"r\">red<\/b> marbles did your opponent report drawing? ",
            "catchKey": -1,
            "catchResponse": -1,
            "catchTime": 1680754273745,
            "trialTime": 0
        },
        {
            "exptPart": "trial",
            "trialNumber": 22,
            "roleCurrent": "receiver",
            "marblesSampled": 100,
            "probRed": 0.5,
            "practiceLambda": 5,
            "trialLambda": 0.3,
            "instructedLambda": "dishonest_big",
            "drawnRed": 70,
            "reportedRed": 70,
            "inferredRed": 65,
            "playerTrialScore": -5,
            "oppTrialScore": 0,
            "playerTotalScore": -151,
            "oppTotalScore": 93,
            "waitTime": 5364.233947500793,
            "responseTime": 1680754292626,
            "catchQuestion": "How many <b class=\"r\">red<\/b> marbles did your opponent report drawing? ",
            "catchKey": -1,
            "catchResponse": -1,
            "catchTime": 1680754273745,
            "trialTime": 0
        },
        {
            "exptPart": "trial",
            "trialNumber": 23,
            "roleCurrent": "receiver",
            "marblesSampled": 100,
            "probRed": 0.5,
            "practiceLambda": 5,
            "trialLambda": 0.3,
            "instructedLambda": "dishonest_big",
            "drawnRed": 63,
            "reportedRed": 63,
            "inferredRed": 55,
            "playerTrialScore": -8,
            "oppTrialScore": 0,
            "playerTotalScore": -159,
            "oppTotalScore": 93,
            "waitTime": 6278.5851731019175,
            "responseTime": 1680754305631,
            "catchQuestion": "How many <b class=\"r\">red<\/b> marbles did your opponent report drawing? ",
            "catchKey": -1,
            "catchResponse": -1,
            "catchTime": 1680754273745,
            "trialTime": 0
        },
        {
            "exptPart": "trial",
            "trialNumber": 24,
            "roleCurrent": "receiver",
            "marblesSampled": 100,
            "probRed": 0.5,
            "practiceLambda": 5,
            "trialLambda": 0.3,
            "instructedLambda": "dishonest_big",
            "drawnRed": 45,
            "reportedRed": 45,
            "inferredRed": 48,
            "playerTrialScore": -3,
            "oppTrialScore": 3,
            "playerTotalScore": -162,
            "oppTotalScore": 96,
            "waitTime": 6798.6916254748485,
            "responseTime": 1680754318118,
            "catchQuestion": "How many <b class=\"r\">red<\/b> marbles did your opponent report drawing? ",
            "catchKey": -1,
            "catchResponse": -1,
            "catchTime": 1680754273745,
            "trialTime": 0
        },
        {
            "exptPart": "trial",
            "trialNumber": 25,
            "roleCurrent": "receiver",
            "marblesSampled": 100,
            "probRed": 0.5,
            "practiceLambda": 5,
            "trialLambda": 0.3,
            "instructedLambda": "dishonest_big",
            "drawnRed": 71,
            "reportedRed": 71,
            "inferredRed": 65,
            "playerTrialScore": -6,
            "oppTrialScore": 0,
            "playerTotalScore": -168,
            "oppTotalScore": 96,
            "waitTime": 5950.463469559234,
            "responseTime": 1680754327363,
            "catchQuestion": "How many <b class=\"r\">red<\/b> marbles did your opponent report drawing? ",
            "catchKey": -1,
            "catchResponse": -1,
            "catchTime": 1680754273745,
            "trialTime": 0
        },
        {
            "exptPart": "trial",
            "trialNumber": 26,
            "roleCurrent": "receiver",
            "marblesSampled": 100,
            "probRed": 0.5,
            "practiceLambda": 5,
            "trialLambda": 0.3,
            "instructedLambda": "dishonest_big",
            "drawnRed": 48,
            "reportedRed": 48,
            "inferredRed": 46,
            "playerTrialScore": -2,
            "oppTrialScore": 0,
            "playerTotalScore": -170,
            "oppTotalScore": 96,
            "waitTime": 5440.821029343213,
            "responseTime": 1680754337136,
            "catchQuestion": "How many <b class=\"r\">red<\/b> marbles did your opponent report drawing? ",
            "catchKey": -1,
            "catchResponse": -1,
            "catchTime": 1680754273745,
            "trialTime": 0
        },
        {
            "exptPart": "trial",
            "trialNumber": 27,
            "roleCurrent": "receiver",
            "marblesSampled": 100,
            "probRed": 0.5,
            "practiceLambda": 5,
            "trialLambda": 0.3,
            "instructedLambda": "dishonest_big",
            "drawnRed": 38,
            "reportedRed": 39,
            "inferredRed": 44,
            "playerTrialScore": -6,
            "oppTrialScore": 6,
            "playerTotalScore": -176,
            "oppTotalScore": 102,
            "waitTime": 5195.9722608346,
            "responseTime": 1680754345584,
            "catchQuestion": "How many <b class=\"r\">red<\/b> marbles did your opponent report drawing? ",
            "catchKey": -1,
            "catchResponse": -1,
            "catchTime": 1680754273745,
            "trialTime": 0
        },
        {
            "exptPart": "trial",
            "trialNumber": 28,
            "roleCurrent": "receiver",
            "marblesSampled": 100,
            "probRed": 0.5,
            "practiceLambda": 5,
            "trialLambda": 0.3,
            "instructedLambda": "dishonest_big",
            "drawnRed": 70,
            "reportedRed": 70,
            "inferredRed": 65,
            "playerTrialScore": -5,
            "oppTrialScore": 0,
            "playerTotalScore": -181,
            "oppTotalScore": 102,
            "waitTime": 7274.9721733656215,
            "responseTime": 1680754359634,
            "catchQuestion": "How many <b class=\"r\">red<\/b> marbles did your opponent report drawing? ",
            "catchKey": 70,
            "catchResponse": 70,
            "catchTime": 1680754359634,
            "trialTime": 0
        },
        {
            "exptPart": "trial",
            "trialNumber": 29,
            "roleCurrent": "receiver",
            "marblesSampled": 100,
            "probRed": 0.5,
            "practiceLambda": 5,
            "trialLambda": 0.3,
            "instructedLambda": "dishonest_big",
            "drawnRed": 41,
            "reportedRed": 41,
            "inferredRed": 48,
            "playerTrialScore": -7,
            "oppTrialScore": 7,
            "playerTotalScore": -188,
            "oppTotalScore": 109,
            "waitTime": 6276.82748418952,
            "responseTime": 1680754373372,
            "catchQuestion": "How many <b class=\"r\">red<\/b> marbles did your opponent report drawing? ",
            "catchKey": -1,
            "catchResponse": -1,
            "catchTime": 1680754359634,
            "trialTime": 0
        },
        {
            "exptPart": "trial",
            "trialNumber": 30,
            "roleCurrent": "receiver",
            "marblesSampled": 100,
            "probRed": 0.5,
            "practiceLambda": 5,
            "trialLambda": 0.3,
            "instructedLambda": "dishonest_big",
            "drawnRed": 40,
            "reportedRed": 40,
            "inferredRed": 45,
            "playerTrialScore": -5,
            "oppTrialScore": 5,
            "playerTotalScore": -193,
            "oppTotalScore": 114,
            "waitTime": 7153.498070888014,
            "responseTime": 1680754383346,
            "catchQuestion": "How many <b class=\"r\">red<\/b> marbles did your opponent report drawing? ",
            "catchKey": -1,
            "catchResponse": -1,
            "catchTime": 1680754383346,
            "trialTime": 0
        },
        {
            "exptPart": "trial",
            "trialNumber": 31,
            "roleCurrent": "receiver",
            "marblesSampled": 100,
            "probRed": 0.5,
            "practiceLambda": 5,
            "trialLambda": 0.3,
            "instructedLambda": "dishonest_big",
            "drawnRed": 39,
            "reportedRed": 39,
            "inferredRed": 39,
            "playerTrialScore": 0,
            "oppTrialScore": 0,
            "playerTotalScore": -193,
            "oppTotalScore": 114,
            "waitTime": 6117.707621106285,
            "responseTime": 1680754393044,
            "catchQuestion": "How many <b class=\"r\">red<\/b> marbles did your opponent report drawing? ",
            "catchKey": -1,
            "catchResponse": -1,
            "catchTime": 1680754383346,
            "trialTime": 0
        },
        {
            "exptPart": "trial",
            "trialNumber": 32,
            "roleCurrent": "receiver",
            "marblesSampled": 100,
            "probRed": 0.5,
            "practiceLambda": 5,
            "trialLambda": 0.3,
            "instructedLambda": "dishonest_big",
            "drawnRed": 44,
            "reportedRed": 44,
            "inferredRed": 44,
            "playerTrialScore": 0,
            "oppTrialScore": 0,
            "playerTotalScore": -193,
            "oppTotalScore": 114,
            "waitTime": 7369.318590671977,
            "responseTime": 1680754403027,
            "catchQuestion": "How many <b class=\"r\">red<\/b> marbles did your opponent report drawing? ",
            "catchKey": -1,
            "catchResponse": -1,
            "catchTime": 1680754383346,
            "trialTime": 0
        },
        {
            "exptPart": "trial",
            "trialNumber": 33,
            "roleCurrent": "receiver",
            "marblesSampled": 100,
            "probRed": 0.5,
            "practiceLambda": 5,
            "trialLambda": 0.3,
            "instructedLambda": "dishonest_big",
            "drawnRed": 76,
            "reportedRed": 77,
            "inferredRed": 77,
            "playerTrialScore": -1,
            "oppTrialScore": 1,
            "playerTotalScore": -194,
            "oppTotalScore": 115,
            "waitTime": 6697.524308060412,
            "responseTime": 1680754412729,
            "catchQuestion": "How many <b class=\"r\">red<\/b> marbles did your opponent report drawing? ",
            "catchKey": -1,
            "catchResponse": -1,
            "catchTime": 1680754383346,
            "trialTime": 0
        },
        {
            "exptPart": "trial",
            "trialNumber": 34,
            "roleCurrent": "receiver",
            "marblesSampled": 100,
            "probRed": 0.5,
            "practiceLambda": 5,
            "trialLambda": 0.3,
            "instructedLambda": "dishonest_big",
            "drawnRed": 53,
            "reportedRed": 53,
            "inferredRed": 53,
            "playerTrialScore": 0,
            "oppTrialScore": 0,
            "playerTotalScore": -194,
            "oppTotalScore": 115,
            "waitTime": 5804.9862232866,
            "responseTime": 1680754420899,
            "catchQuestion": "How many <b class=\"r\">red<\/b> marbles did your opponent report drawing? ",
            "catchKey": -1,
            "catchResponse": -1,
            "catchTime": 1680754383346,
            "trialTime": 0
        },
        {
            "exptPart": "trial",
            "trialNumber": 35,
            "roleCurrent": "receiver",
            "marblesSampled": 100,
            "probRed": 0.5,
            "practiceLambda": 5,
            "trialLambda": 0.3,
            "instructedLambda": "dishonest_big",
            "drawnRed": 63,
            "reportedRed": 64,
            "inferredRed": 64,
            "playerTrialScore": -1,
            "oppTrialScore": 1,
            "playerTotalScore": -195,
            "oppTotalScore": 116,
            "waitTime": 7311.869527080864,
            "responseTime": 1680754430733,
            "catchQuestion": "How many <b class=\"r\">red<\/b> marbles did your opponent report drawing? ",
            "catchKey": -1,
            "catchResponse": -1,
            "catchTime": 1680754383346,
            "trialTime": 0
        },
        {
            "exptPart": "trial",
            "trialNumber": 36,
            "roleCurrent": "receiver",
            "marblesSampled": 100,
            "probRed": 0.5,
            "practiceLambda": 5,
            "trialLambda": 0.3,
            "instructedLambda": "dishonest_big",
            "drawnRed": 65,
            "reportedRed": 65,
            "inferredRed": 65,
            "playerTrialScore": 0,
            "oppTrialScore": 0,
            "playerTotalScore": -195,
            "oppTotalScore": 116,
            "waitTime": 5920.315705037019,
            "responseTime": 1680754439433,
            "catchQuestion": "How many <b class=\"r\">red<\/b> marbles did your opponent report drawing? ",
            "catchKey": 65,
            "catchResponse": 65,
            "catchTime": 1680754439433,
            "trialTime": 0
        },
        {
            "exptPart": "trial",
            "trialNumber": 37,
            "roleCurrent": "receiver",
            "marblesSampled": 100,
            "probRed": 0.5,
            "practiceLambda": 5,
            "trialLambda": 0.3,
            "instructedLambda": "dishonest_big",
            "drawnRed": 29,
            "reportedRed": 29,
            "inferredRed": 29,
            "playerTrialScore": 0,
            "oppTrialScore": 0,
            "playerTotalScore": -195,
            "oppTotalScore": 116,
            "waitTime": 7159.876601241281,
            "responseTime": 1680754452838,
            "catchQuestion": "How many <b class=\"r\">red<\/b> marbles did your opponent report drawing? ",
            "catchKey": -1,
            "catchResponse": -1,
            "catchTime": 1680754439433,
            "trialTime": 0
        },
        {
            "exptPart": "trial",
            "trialNumber": 38,
            "roleCurrent": "receiver",
            "marblesSampled": 100,
            "probRed": 0.5,
            "practiceLambda": 5,
            "trialLambda": 0.3,
            "instructedLambda": "dishonest_big",
            "drawnRed": 63,
            "reportedRed": 63,
            "inferredRed": 63,
            "playerTrialScore": 0,
            "oppTrialScore": 0,
            "playerTotalScore": -195,
            "oppTotalScore": 116,
            "waitTime": 7049.9782946503055,
            "responseTime": 1680754462411,
            "catchQuestion": "How many <b class=\"r\">red<\/b> marbles did your opponent report drawing? ",
            "catchKey": -1,
            "catchResponse": -1,
            "catchTime": 1680754439433,
            "trialTime": 0
        },
        {
            "exptPart": "trial",
            "trialNumber": 39,
            "roleCurrent": "receiver",
            "marblesSampled": 100,
            "probRed": 0.5,
            "practiceLambda": 5,
            "trialLambda": 0.3,
            "instructedLambda": "dishonest_big",
            "drawnRed": 38,
            "reportedRed": 38,
            "inferredRed": 38,
            "playerTrialScore": 0,
            "oppTrialScore": 0,
            "playerTotalScore": -195,
            "oppTotalScore": 116,
            "waitTime": 5268.784697739498,
            "responseTime": 1680754470597,
            "catchQuestion": "How many <b class=\"r\">red<\/b> marbles did your opponent report drawing? ",
            "catchKey": -1,
            "catchResponse": -1,
            "catchTime": 1680754439433,
            "trialTime": 0
        },
        {
            "exptPart": "trial",
            "trialNumber": 40,
            "roleCurrent": "receiver",
            "marblesSampled": 100,
            "probRed": 0.5,
            "practiceLambda": 5,
            "trialLambda": 0.3,
            "instructedLambda": "dishonest_big",
            "drawnRed": 55,
            "reportedRed": 55,
            "inferredRed": 55,
            "playerTrialScore": 0,
            "oppTrialScore": 0,
            "playerTotalScore": -195,
            "oppTotalScore": 116,
            "waitTime": 5132.608969742883,
            "responseTime": 1680754478051,
            "catchQuestion": "How many <b class=\"r\">red<\/b> marbles did your opponent report drawing? ",
            "catchKey": -1,
            "catchResponse": -1,
            "catchTime": 1680754478052,
            "trialTime": 0
        },
        {
            "exptPart": "trial",
            "trialNumber": 41,
            "roleCurrent": "receiver",
            "marblesSampled": 100,
            "probRed": 0.5,
            "practiceLambda": 5,
            "trialLambda": 0.3,
            "instructedLambda": "dishonest_big",
            "drawnRed": 35,
            "reportedRed": 35,
            "inferredRed": 36,
            "playerTrialScore": -1,
            "oppTrialScore": 1,
            "playerTotalScore": -196,
            "oppTotalScore": 117,
            "waitTime": 5795.8051334841175,
            "responseTime": 1680754490203,
            "catchQuestion": "How many <b class=\"r\">red<\/b> marbles did your opponent report drawing? ",
            "catchKey": -1,
            "catchResponse": -1,
            "catchTime": 1680754478052,
            "trialTime": 0
        },
        {
            "exptPart": "trial",
            "trialNumber": 42,
            "roleCurrent": "receiver",
            "marblesSampled": 100,
            "probRed": 0.5,
            "practiceLambda": 5,
            "trialLambda": 0.3,
            "instructedLambda": "dishonest_big",
            "drawnRed": 39,
            "reportedRed": 40,
            "inferredRed": 41,
            "playerTrialScore": -2,
            "oppTrialScore": 2,
            "playerTotalScore": -198,
            "oppTotalScore": 119,
            "waitTime": 5596.188312202237,
            "responseTime": 1680754497832,
            "catchQuestion": "How many <b class=\"r\">red<\/b> marbles did your opponent report drawing? ",
            "catchKey": -1,
            "catchResponse": -1,
            "catchTime": 1680754478052,
            "trialTime": 0
        },
        {
            "exptPart": "trial",
            "trialNumber": 43,
            "roleCurrent": "receiver",
            "marblesSampled": 100,
            "probRed": 0.5,
            "practiceLambda": 5,
            "trialLambda": 0.3,
            "instructedLambda": "dishonest_big",
            "drawnRed": 36,
            "reportedRed": 37,
            "inferredRed": 38,
            "playerTrialScore": -2,
            "oppTrialScore": 2,
            "playerTotalScore": -200,
            "oppTotalScore": 121,
            "waitTime": 5252.560858277075,
            "responseTime": 1680754507796,
            "catchQuestion": "How many <b class=\"r\">red<\/b> marbles did your opponent report drawing? ",
            "catchKey": 37,
            "catchResponse": 37,
            "catchTime": 1680754507796,
            "trialTime": 0
        },
        {
            "exptPart": "trial",
            "trialNumber": 44,
            "roleCurrent": "receiver",
            "marblesSampled": 100,
            "probRed": 0.5,
            "practiceLambda": 5,
            "trialLambda": 0.3,
            "instructedLambda": "dishonest_big",
            "drawnRed": 30,
            "reportedRed": 30,
            "inferredRed": 31,
            "playerTrialScore": -1,
            "oppTrialScore": 1,
            "playerTotalScore": -201,
            "oppTotalScore": 122,
            "waitTime": 6873.179437042296,
            "responseTime": 1680754520915,
            "catchQuestion": "How many <b class=\"r\">red<\/b> marbles did your opponent report drawing? ",
            "catchKey": -1,
            "catchResponse": -1,
            "catchTime": 1680754507796,
            "trialTime": 0
        },
        {
            "exptPart": "trial",
            "trialNumber": 45,
            "roleCurrent": "receiver",
            "marblesSampled": 100,
            "probRed": 0.5,
            "practiceLambda": 5,
            "trialLambda": 0.3,
            "instructedLambda": "dishonest_big",
            "drawnRed": 36,
            "reportedRed": 36,
            "inferredRed": 37,
            "playerTrialScore": -1,
            "oppTrialScore": 1,
            "playerTotalScore": -202,
            "oppTotalScore": 123,
            "waitTime": 6586.9332383381425,
            "responseTime": 1680754530024,
            "catchQuestion": "How many <b class=\"r\">red<\/b> marbles did your opponent report drawing? ",
            "catchKey": -1,
            "catchResponse": -1,
            "catchTime": 1680754507796,
            "trialTime": 0
        },
        {
            "exptPart": "trial",
            "trialNumber": 46,
            "roleCurrent": "receiver",
            "marblesSampled": 100,
            "probRed": 0.5,
            "practiceLambda": 5,
            "trialLambda": 0.3,
            "instructedLambda": "dishonest_big",
            "drawnRed": 41,
            "reportedRed": 41,
            "inferredRed": 42,
            "playerTrialScore": -1,
            "oppTrialScore": 1,
            "playerTotalScore": -203,
            "oppTotalScore": 124,
            "waitTime": 6170.145124684939,
            "responseTime": 1680754538439,
            "catchQuestion": "How many <b class=\"r\">red<\/b> marbles did your opponent report drawing? ",
            "catchKey": -1,
            "catchResponse": -1,
            "catchTime": 1680754507796,
            "trialTime": 0
        },
        {
            "exptPart": "trial",
            "trialNumber": 47,
            "roleCurrent": "receiver",
            "marblesSampled": 100,
            "probRed": 0.5,
            "practiceLambda": 5,
            "trialLambda": 0.3,
            "instructedLambda": "dishonest_big",
            "drawnRed": 52,
            "reportedRed": 52,
            "inferredRed": 53,
            "playerTrialScore": -1,
            "oppTrialScore": 1,
            "playerTotalScore": -204,
            "oppTotalScore": 125,
            "waitTime": 5248.172240265001,
            "responseTime": 1680754547037,
            "catchQuestion": "How many <b class=\"r\">red<\/b> marbles did your opponent report drawing? ",
            "catchKey": -1,
            "catchResponse": -1,
            "catchTime": 1680754507796,
            "trialTime": 0
        },
        {
            "exptPart": "trial",
            "trialNumber": 48,
            "roleCurrent": "receiver",
            "marblesSampled": 100,
            "probRed": 0.5,
            "practiceLambda": 5,
            "trialLambda": 0.3,
            "instructedLambda": "dishonest_big",
            "drawnRed": 69,
            "reportedRed": 69,
            "inferredRed": 70,
            "playerTrialScore": -1,
            "oppTrialScore": 1,
            "playerTotalScore": -205,
            "oppTotalScore": 126,
            "waitTime": 6018.138742839347,
            "responseTime": 1680754558123,
            "catchQuestion": "How many <b class=\"r\">red<\/b> marbles did your opponent report drawing? ",
            "catchKey": -1,
            "catchResponse": -1,
            "catchTime": 1680754507796,
            "trialTime": 0
        },
        {
            "exptPart": "trial",
            "trialNumber": 49,
            "roleCurrent": "receiver",
            "marblesSampled": 100,
            "probRed": 0.5,
            "practiceLambda": 5,
            "trialLambda": 0.3,
            "instructedLambda": "dishonest_big",
            "drawnRed": 59,
            "reportedRed": 59,
            "inferredRed": 60,
            "playerTrialScore": -1,
            "oppTrialScore": 1,
            "playerTotalScore": -206,
            "oppTotalScore": 127,
            "waitTime": 6247.40851613471,
            "responseTime": 1680754566609,
            "catchQuestion": "How many <b class=\"r\">red<\/b> marbles did your opponent report drawing? ",
            "catchKey": 59,
            "catchResponse": 59,
            "catchTime": 1680754566609,
            "trialTime": 0
        },
        {
            "exptPart": "trial",
            "trialNumber": 50,
            "roleCurrent": "receiver",
            "marblesSampled": 100,
            "probRed": 0.5,
            "practiceLambda": 5,
            "trialLambda": 0.3,
            "instructedLambda": "dishonest_big",
            "drawnRed": 43,
            "reportedRed": 43,
            "inferredRed": 44,
            "playerTrialScore": -1,
            "oppTrialScore": 1,
            "playerTotalScore": -207,
            "oppTotalScore": 128,
            "waitTime": 7328.504377708708,
            "responseTime": 1680754579436,
            "catchQuestion": "How many <b class=\"r\">red<\/b> marbles did your opponent report drawing? ",
            "catchKey": -1,
            "catchResponse": -1,
            "catchTime": 1680754579436,
            "trialTime": 0
        },
        {
            "exptPart": "trial",
            "trialNumber": 51,
            "roleCurrent": "receiver",
            "marblesSampled": 100,
            "probRed": 0.5,
            "practiceLambda": 5,
            "trialLambda": 0.3,
            "instructedLambda": "dishonest_big",
            "drawnRed": 83,
            "reportedRed": 83,
            "inferredRed": 82,
            "playerTrialScore": -1,
            "oppTrialScore": 0,
            "playerTotalScore": -208,
            "oppTotalScore": 128,
            "waitTime": 6517.256876125651,
            "responseTime": 1680754590916,
            "catchQuestion": "How many <b class=\"r\">red<\/b> marbles did your opponent report drawing? ",
            "catchKey": -1,
            "catchResponse": -1,
            "catchTime": 1680754579436,
            "trialTime": 0
        },
        {
            "exptPart": "trial",
            "trialNumber": 52,
            "roleCurrent": "receiver",
            "marblesSampled": 100,
            "probRed": 0.5,
            "practiceLambda": 5,
            "trialLambda": 0.3,
            "instructedLambda": "dishonest_big",
            "drawnRed": 78,
            "reportedRed": 78,
            "inferredRed": 77,
            "playerTrialScore": -1,
            "oppTrialScore": 0,
            "playerTotalScore": -209,
            "oppTotalScore": 128,
            "waitTime": 6519.673372341289,
            "responseTime": 1680754599842,
            "catchQuestion": "How many <b class=\"r\">red<\/b> marbles did your opponent report drawing? ",
            "catchKey": -1,
            "catchResponse": -1,
            "catchTime": 1680754579436,
            "trialTime": 0
        },
        {
            "exptPart": "trial",
            "trialNumber": 53,
            "roleCurrent": "receiver",
            "marblesSampled": 100,
            "probRed": 0.5,
            "practiceLambda": 5,
            "trialLambda": 0.3,
            "instructedLambda": "dishonest_big",
            "drawnRed": 54,
            "reportedRed": 54,
            "inferredRed": 53,
            "playerTrialScore": -1,
            "oppTrialScore": 0,
            "playerTotalScore": -210,
            "oppTotalScore": 128,
            "waitTime": 6552.665279300087,
            "responseTime": 1680754611075,
            "catchQuestion": "How many <b class=\"r\">red<\/b> marbles did your opponent report drawing? ",
            "catchKey": -1,
            "catchResponse": -1,
            "catchTime": 1680754579436,
            "trialTime": 0
        },
        {
            "exptPart": "trial",
            "trialNumber": 54,
            "roleCurrent": "receiver",
            "marblesSampled": 100,
            "probRed": 0.5,
            "practiceLambda": 5,
            "trialLambda": 0.3,
            "instructedLambda": "dishonest_big",
            "drawnRed": 48,
            "reportedRed": 49,
            "inferredRed": 48,
            "playerTrialScore": 0,
            "oppTrialScore": 0,
            "playerTotalScore": -210,
            "oppTotalScore": 128,
            "waitTime": 7228.611567759014,
            "responseTime": 1680754621939,
            "catchQuestion": "How many <b class=\"r\">red<\/b> marbles did your opponent report drawing? ",
            "catchKey": -1,
            "catchResponse": -1,
            "catchTime": 1680754579436,
            "trialTime": 0
        },
        {
            "exptPart": "trial",
            "trialNumber": 55,
            "roleCurrent": "receiver",
            "marblesSampled": 100,
            "probRed": 0.5,
            "practiceLambda": 5,
            "trialLambda": 0.3,
            "instructedLambda": "dishonest_big",
            "drawnRed": 74,
            "reportedRed": 74,
            "inferredRed": 73,
            "playerTrialScore": -1,
            "oppTrialScore": 0,
            "playerTotalScore": -211,
            "oppTotalScore": 128,
            "waitTime": 5976.488003035188,
            "responseTime": 1680754630719,
            "catchQuestion": "How many <b class=\"r\">red<\/b> marbles did your opponent report drawing? ",
            "catchKey": -1,
            "catchResponse": -1,
            "catchTime": 1680754579436,
            "trialTime": 0
        },
        {
            "exptPart": "trial",
            "trialNumber": 56,
            "roleCurrent": "receiver",
            "marblesSampled": 100,
            "probRed": 0.5,
            "practiceLambda": 5,
            "trialLambda": 0.3,
            "instructedLambda": "dishonest_big",
            "drawnRed": 61,
            "reportedRed": 61,
            "inferredRed": 60,
            "playerTrialScore": -1,
            "oppTrialScore": 0,
            "playerTotalScore": -212,
            "oppTotalScore": 128,
            "waitTime": 7309.854468685475,
            "responseTime": 1680754640896,
            "catchQuestion": "How many <b class=\"r\">red<\/b> marbles did your opponent report drawing? ",
            "catchKey": -1,
            "catchResponse": -1,
            "catchTime": 1680754579436,
            "trialTime": 0
        },
        {
            "exptPart": "trial",
            "trialNumber": 57,
            "roleCurrent": "receiver",
            "marblesSampled": 100,
            "probRed": 0.5,
            "practiceLambda": 5,
            "trialLambda": 0.3,
            "instructedLambda": "dishonest_big",
            "drawnRed": 49,
            "reportedRed": 50,
            "inferredRed": 49,
            "playerTrialScore": 0,
            "oppTrialScore": 0,
            "playerTotalScore": -212,
            "oppTotalScore": 128,
            "waitTime": 6138.193817030936,
            "responseTime": 1680754649627,
            "catchQuestion": "How many <b class=\"r\">red<\/b> marbles did your opponent report drawing? ",
            "catchKey": -1,
            "catchResponse": -1,
            "catchTime": 1680754579436,
            "trialTime": 0
        },
        {
            "exptPart": "trial",
            "trialNumber": 58,
            "roleCurrent": "receiver",
            "marblesSampled": 100,
            "probRed": 0.5,
            "practiceLambda": 5,
            "trialLambda": 0.3,
            "instructedLambda": "dishonest_big",
            "drawnRed": 52,
            "reportedRed": 52,
            "inferredRed": 51,
            "playerTrialScore": -1,
            "oppTrialScore": 0,
            "playerTotalScore": -213,
            "oppTotalScore": 128,
            "waitTime": 5318.163234573822,
            "responseTime": 1680754657248,
            "catchQuestion": "How many <b class=\"r\">red<\/b> marbles did your opponent report drawing? ",
            "catchKey": -1,
            "catchResponse": -1,
            "catchTime": 1680754579436,
            "trialTime": 0
        },
        {
            "exptPart": "trial",
            "trialNumber": 59,
            "roleCurrent": "receiver",
            "marblesSampled": 100,
            "probRed": 0.5,
            "practiceLambda": 5,
            "trialLambda": 0.3,
            "instructedLambda": "dishonest_big",
            "drawnRed": 27,
            "reportedRed": 28,
            "inferredRed": 27,
            "playerTrialScore": 0,
            "oppTrialScore": 0,
            "playerTotalScore": -213,
            "oppTotalScore": 128,
            "waitTime": 5295.018428686376,
            "responseTime": 1680754665258,
            "catchQuestion": "How many <b class=\"r\">red<\/b> marbles did your opponent report drawing? ",
            "catchKey": -1,
            "catchResponse": -1,
            "catchTime": 1680754579436,
            "trialTime": 0
        },
        {
            "exptPart": "trial",
            "trialNumber": 60,
            "roleCurrent": "receiver",
            "marblesSampled": 100,
            "probRed": 0.5,
            "practiceLambda": 5,
            "trialLambda": 0.3,
            "instructedLambda": "dishonest_big",
            "drawnRed": 61,
            "reportedRed": 61,
            "inferredRed": 60,
            "playerTrialScore": -1,
            "oppTrialScore": 0,
            "playerTotalScore": -214,
            "oppTotalScore": 128,
            "waitTime": 6805.269677304049,
            "responseTime": 1680754674400,
            "catchQuestion": "How many <b class=\"r\">red<\/b> marbles did your opponent report drawing? ",
            "catchKey": -1,
            "catchResponse": -1,
            "catchTime": 1680754674400,
            "trialTime": 0
        },
        {
            "exptPart": "trial",
            "trialNumber": 61,
            "roleCurrent": "receiver",
            "marblesSampled": 100,
            "probRed": 0.5,
            "practiceLambda": 5,
            "trialLambda": 0.3,
            "instructedLambda": "dishonest_big",
            "drawnRed": 44,
            "reportedRed": 44,
            "inferredRed": 50,
            "playerTrialScore": -6,
            "oppTrialScore": 6,
            "playerTotalScore": -220,
            "oppTotalScore": 134,
            "waitTime": 7095.330001320819,
            "responseTime": 1680754685439,
            "catchQuestion": "How many <b class=\"r\">red<\/b> marbles did your opponent report drawing? ",
            "catchKey": -1,
            "catchResponse": -1,
            "catchTime": 1680754674400,
            "trialTime": 0
        },
        {
            "exptPart": "trial",
            "trialNumber": 62,
            "roleCurrent": "receiver",
            "marblesSampled": 100,
            "probRed": 0.5,
            "practiceLambda": 5,
            "trialLambda": 0.3,
            "instructedLambda": "dishonest_big",
            "drawnRed": 65,
            "reportedRed": 65,
            "inferredRed": 50,
            "playerTrialScore": -15,
            "oppTrialScore": 0,
            "playerTotalScore": -235,
            "oppTotalScore": 134,
            "waitTime": 6561.549476727904,
            "responseTime": 1680754694830,
            "catchQuestion": "How many <b class=\"r\">red<\/b> marbles did your opponent report drawing? ",
            "catchKey": -1,
            "catchResponse": -1,
            "catchTime": 1680754674400,
            "trialTime": 0
        },
        {
            "exptPart": "trial",
            "trialNumber": 63,
            "roleCurrent": "receiver",
            "marblesSampled": 100,
            "probRed": 0.5,
            "practiceLambda": 5,
            "trialLambda": 0.3,
            "instructedLambda": "dishonest_big",
            "drawnRed": 85,
            "reportedRed": 85,
            "inferredRed": 50,
            "playerTrialScore": -35,
            "oppTrialScore": 0,
            "playerTotalScore": -270,
            "oppTotalScore": 134,
            "waitTime": 6159.0343270647645,
            "responseTime": 1680754703234,
            "catchQuestion": "How many <b class=\"r\">red<\/b> marbles did your opponent report drawing? ",
            "catchKey": -1,
            "catchResponse": -1,
            "catchTime": 1680754674400,
            "trialTime": 0
        },
        {
            "exptPart": "trial",
            "trialNumber": 64,
            "roleCurrent": "receiver",
            "marblesSampled": 100,
            "probRed": 0.5,
            "practiceLambda": 5,
            "trialLambda": 0.3,
            "instructedLambda": "dishonest_big",
            "drawnRed": 41,
            "reportedRed": 41,
            "inferredRed": 50,
            "playerTrialScore": -9,
            "oppTrialScore": 9,
            "playerTotalScore": -279,
            "oppTotalScore": 143,
            "waitTime": 7170.376736143159,
            "responseTime": 1680754713325,
            "catchQuestion": "How many <b class=\"r\">red<\/b> marbles did your opponent report drawing? ",
            "catchKey": -1,
            "catchResponse": -1,
            "catchTime": 1680754674400,
            "trialTime": 0
        },
        {
            "exptPart": "trial",
            "trialNumber": 65,
            "roleCurrent": "receiver",
            "marblesSampled": 100,
            "probRed": 0.5,
            "practiceLambda": 5,
            "trialLambda": 0.3,
            "instructedLambda": "dishonest_big",
            "drawnRed": 62,
            "reportedRed": 62,
            "inferredRed": 50,
            "playerTrialScore": -12,
            "oppTrialScore": 0,
            "playerTotalScore": -291,
            "oppTotalScore": 143,
            "waitTime": 5997.406690654227,
            "responseTime": 1680754722154,
            "catchQuestion": "How many <b class=\"r\">red<\/b> marbles did your opponent report drawing? ",
            "catchKey": -1,
            "catchResponse": -1,
            "catchTime": 1680754674400,
            "trialTime": 0
        },
        {
            "exptPart": "trial",
            "trialNumber": 66,
            "roleCurrent": "receiver",
            "marblesSampled": 100,
            "probRed": 0.5,
            "practiceLambda": 5,
            "trialLambda": 0.3,
            "instructedLambda": "dishonest_big",
            "drawnRed": 43,
            "reportedRed": 43,
            "inferredRed": 50,
            "playerTrialScore": -7,
            "oppTrialScore": 7,
            "playerTotalScore": -298,
            "oppTotalScore": 150,
            "waitTime": 7036.271124984529,
            "responseTime": 1680754731156,
            "catchQuestion": "How many <b class=\"r\">red<\/b> marbles did your opponent report drawing? ",
            "catchKey": -1,
            "catchResponse": -1,
            "catchTime": 1680754674400,
            "trialTime": 0
        },
        {
            "exptPart": "trial",
            "trialNumber": 67,
            "roleCurrent": "receiver",
            "marblesSampled": 100,
            "probRed": 0.5,
            "practiceLambda": 5,
            "trialLambda": 0.3,
            "instructedLambda": "dishonest_big",
            "drawnRed": 58,
            "reportedRed": 58,
            "inferredRed": 50,
            "playerTrialScore": -8,
            "oppTrialScore": 0,
            "playerTotalScore": -306,
            "oppTotalScore": 150,
            "waitTime": 5449.173545993437,
            "responseTime": 1680754739540,
            "catchQuestion": "How many <b class=\"r\">red<\/b> marbles did your opponent report drawing? ",
            "catchKey": -1,
            "catchResponse": -1,
            "catchTime": 1680754674400,
            "trialTime": 0
        },
        {
            "exptPart": "trial",
            "trialNumber": 68,
            "roleCurrent": "receiver",
            "marblesSampled": 100,
            "probRed": 0.5,
            "practiceLambda": 5,
            "trialLambda": 0.3,
            "instructedLambda": "dishonest_big",
            "drawnRed": 29,
            "reportedRed": 29,
            "inferredRed": 50,
            "playerTrialScore": -21,
            "oppTrialScore": 21,
            "playerTotalScore": -327,
            "oppTotalScore": 171,
            "waitTime": 5390.670086057473,
            "responseTime": 1680754748881,
            "catchQuestion": "How many <b class=\"r\">red<\/b> marbles did your opponent report drawing? ",
            "catchKey": -1,
            "catchResponse": -1,
            "catchTime": 1680754674400,
            "trialTime": 0
        },
        {
            "exptPart": "trial",
            "trialNumber": 69,
            "roleCurrent": "receiver",
            "marblesSampled": 100,
            "probRed": 0.5,
            "practiceLambda": 5,
            "trialLambda": 0.3,
            "instructedLambda": "dishonest_big",
            "drawnRed": 76,
            "reportedRed": 76,
            "inferredRed": 50,
            "playerTrialScore": -26,
            "oppTrialScore": 0,
            "playerTotalScore": -353,
            "oppTotalScore": 171,
            "waitTime": 5763.500525172662,
            "responseTime": 1680754756966,
            "catchQuestion": "How many <b class=\"r\">red<\/b> marbles did your opponent report drawing? ",
            "catchKey": -1,
            "catchResponse": -1,
            "catchTime": 1680754674400,
            "trialTime": 0
        },
        {
            "exptPart": "trial",
            "trialNumber": 70,
            "roleCurrent": "receiver",
            "marblesSampled": 100,
            "probRed": 0.5,
            "practiceLambda": 5,
            "trialLambda": 0.3,
            "instructedLambda": "dishonest_big",
            "drawnRed": 24,
            "reportedRed": 24,
            "inferredRed": 50,
            "playerTrialScore": -26,
            "oppTrialScore": 26,
            "playerTotalScore": -379,
            "oppTotalScore": 197,
            "waitTime": 5349.869555201979,
            "responseTime": 1680754764723,
            "catchQuestion": "How many <b class=\"r\">red<\/b> marbles did your opponent report drawing? ",
            "catchKey": -1,
            "catchResponse": -1,
            "catchTime": 1680754764723,
            "trialTime": 0
        },
        {
            "exptPart": "trial",
            "trialNumber": 71,
            "roleCurrent": "receiver",
            "marblesSampled": 100,
            "probRed": 0.5,
            "practiceLambda": 5,
            "trialLambda": 0.3,
            "instructedLambda": "dishonest_big",
            "drawnRed": 40,
            "reportedRed": 41,
            "inferredRed": 41,
            "playerTrialScore": -1,
            "oppTrialScore": 1,
            "playerTotalScore": -380,
            "oppTotalScore": 198,
            "waitTime": 7002.812129346838,
            "responseTime": 1680754785326,
            "catchQuestion": "How many <b class=\"r\">red<\/b> marbles did your opponent report drawing? ",
            "catchKey": -1,
            "catchResponse": -1,
            "catchTime": 1680754764723,
            "trialTime": 0
        },
        {
            "exptPart": "trial",
            "trialNumber": 72,
            "roleCurrent": "receiver",
            "marblesSampled": 100,
            "probRed": 0.5,
            "practiceLambda": 5,
            "trialLambda": 0.3,
            "instructedLambda": "dishonest_big",
            "drawnRed": 54,
            "reportedRed": 56,
            "inferredRed": 56,
            "playerTrialScore": -2,
            "oppTrialScore": 2,
            "playerTotalScore": -382,
            "oppTotalScore": 200,
            "waitTime": 6178.902121751647,
            "responseTime": 1680754793508,
            "catchQuestion": "How many <b class=\"r\">red<\/b> marbles did your opponent report drawing? ",
            "catchKey": -1,
            "catchResponse": -1,
            "catchTime": 1680754764723,
            "trialTime": 0
        },
        {
            "exptPart": "trial",
            "trialNumber": 73,
            "roleCurrent": "receiver",
            "marblesSampled": 100,
            "probRed": 0.5,
            "practiceLambda": 5,
            "trialLambda": 0.3,
            "instructedLambda": "dishonest_big",
            "drawnRed": 69,
            "reportedRed": 69,
            "inferredRed": 69,
            "playerTrialScore": 0,
            "oppTrialScore": 0,
            "playerTotalScore": -382,
            "oppTotalScore": 200,
            "waitTime": 6191.981242057438,
            "responseTime": 1680754802483,
            "catchQuestion": "How many <b class=\"r\">red<\/b> marbles did your opponent report drawing? ",
            "catchKey": -1,
            "catchResponse": -1,
            "catchTime": 1680754764723,
            "trialTime": 0
        },
        {
            "exptPart": "trial",
            "trialNumber": 74,
            "roleCurrent": "receiver",
            "marblesSampled": 100,
            "probRed": 0.5,
            "practiceLambda": 5,
            "trialLambda": 0.3,
            "instructedLambda": "dishonest_big",
            "drawnRed": 57,
            "reportedRed": 57,
            "inferredRed": 57,
            "playerTrialScore": 0,
            "oppTrialScore": 0,
            "playerTotalScore": -382,
            "oppTotalScore": 200,
            "waitTime": 7405.478743450746,
            "responseTime": 1680754812808,
            "catchQuestion": "How many <b class=\"r\">red<\/b> marbles did your opponent report drawing? ",
            "catchKey": -1,
            "catchResponse": -1,
            "catchTime": 1680754764723,
            "trialTime": 0
        },
        {
            "exptPart": "trial",
            "trialNumber": 75,
            "roleCurrent": "receiver",
            "marblesSampled": 100,
            "probRed": 0.5,
            "practiceLambda": 5,
            "trialLambda": 0.3,
            "instructedLambda": "dishonest_big",
            "drawnRed": 51,
            "reportedRed": 51,
            "inferredRed": 51,
            "playerTrialScore": 0,
            "oppTrialScore": 0,
            "playerTotalScore": -382,
            "oppTotalScore": 200,
            "waitTime": 5229.95047465118,
            "responseTime": 1680754820175,
            "catchQuestion": "How many <b class=\"r\">red<\/b> marbles did your opponent report drawing? ",
            "catchKey": -1,
            "catchResponse": -1,
            "catchTime": 1680754764723,
            "trialTime": 0
        },
        {
            "exptPart": "trial",
            "trialNumber": 76,
            "roleCurrent": "receiver",
            "marblesSampled": 100,
            "probRed": 0.5,
            "practiceLambda": 5,
            "trialLambda": 0.3,
            "instructedLambda": "dishonest_big",
            "drawnRed": 49,
            "reportedRed": 49,
            "inferredRed": 49,
            "playerTrialScore": 0,
            "oppTrialScore": 0,
            "playerTotalScore": -382,
            "oppTotalScore": 200,
            "waitTime": 6247.178409421216,
            "responseTime": 1680754828677,
            "catchQuestion": "How many <b class=\"r\">red<\/b> marbles did your opponent report drawing? ",
            "catchKey": -1,
            "catchResponse": -1,
            "catchTime": 1680754764723,
            "trialTime": 0
        },
        {
            "exptPart": "trial",
            "trialNumber": 77,
            "roleCurrent": "receiver",
            "marblesSampled": 100,
            "probRed": 0.5,
            "practiceLambda": 5,
            "trialLambda": 0.3,
            "instructedLambda": "dishonest_big",
            "drawnRed": 55,
            "reportedRed": 55,
            "inferredRed": 55,
            "playerTrialScore": 0,
            "oppTrialScore": 0,
            "playerTotalScore": -382,
            "oppTotalScore": 200,
            "waitTime": 6329.427404963644,
            "responseTime": 1680754836916,
            "catchQuestion": "How many <b class=\"r\">red<\/b> marbles did your opponent report drawing? ",
            "catchKey": -1,
            "catchResponse": -1,
            "catchTime": 1680754764723,
            "trialTime": 0
        },
        {
            "exptPart": "trial",
            "trialNumber": 78,
            "roleCurrent": "receiver",
            "marblesSampled": 100,
            "probRed": 0.5,
            "practiceLambda": 5,
            "trialLambda": 0.3,
            "instructedLambda": "dishonest_big",
            "drawnRed": 72,
            "reportedRed": 72,
            "inferredRed": 72,
            "playerTrialScore": 0,
            "oppTrialScore": 0,
            "playerTotalScore": -382,
            "oppTotalScore": 200,
            "waitTime": 6243.651749999313,
            "responseTime": 1680754845656,
            "catchQuestion": "How many <b class=\"r\">red<\/b> marbles did your opponent report drawing? ",
            "catchKey": -1,
            "catchResponse": -1,
            "catchTime": 1680754764723,
            "trialTime": 0
        },
        {
            "exptPart": "trial",
            "trialNumber": 79,
            "roleCurrent": "receiver",
            "marblesSampled": 100,
            "probRed": 0.5,
            "practiceLambda": 5,
            "trialLambda": 0.3,
            "instructedLambda": "dishonest_big",
            "drawnRed": 57,
            "reportedRed": 58,
            "inferredRed": 58,
            "playerTrialScore": -1,
            "oppTrialScore": 1,
            "playerTotalScore": -383,
            "oppTotalScore": 201,
            "waitTime": 5199.321808981199,
            "responseTime": 1680754853685,
            "catchQuestion": "How many <b class=\"r\">red<\/b> marbles did your opponent report drawing? ",
            "catchKey": -1,
            "catchResponse": -1,
            "catchTime": 1680754764723,
            "trialTime": 0
        },
        {
            "exptPart": "trial",
            "trialNumber": 80,
            "roleCurrent": "receiver",
            "marblesSampled": 100,
            "probRed": 0.5,
            "practiceLambda": 5,
            "trialLambda": 0.3,
            "instructedLambda": "dishonest_big",
            "drawnRed": 17,
            "reportedRed": 17,
            "inferredRed": 17,
            "playerTrialScore": 0,
            "oppTrialScore": 0,
            "playerTotalScore": -383,
            "oppTotalScore": 201,
            "waitTime": 6982.950218404285,
            "responseTime": 1680754863456,
            "catchQuestion": "How many <b class=\"r\">red<\/b> marbles did your opponent report drawing? ",
            "catchKey": -1,
            "catchResponse": -1,
            "catchTime": 1680754863457,
            "trialTime": 0
        },
        {
            "exptPart": "trial",
            "trialNumber": 81,
            "roleCurrent": "receiver",
            "marblesSampled": 100,
            "probRed": 0.5,
            "practiceLambda": 5,
            "trialLambda": 0.3,
            "instructedLambda": "dishonest_big",
            "drawnRed": 85,
            "reportedRed": 85,
            "inferredRed": 84,
            "playerTrialScore": -1,
            "oppTrialScore": 0,
            "playerTotalScore": -384,
            "oppTotalScore": 201,
            "waitTime": 7330.405392824882,
            "responseTime": 1680754877859,
            "catchQuestion": "How many <b class=\"r\">red<\/b> marbles did your opponent report drawing? ",
            "catchKey": -1,
            "catchResponse": -1,
            "catchTime": 1680754863457,
            "trialTime": 0
        },
        {
            "exptPart": "trial",
            "trialNumber": 82,
            "roleCurrent": "receiver",
            "marblesSampled": 100,
            "probRed": 0.5,
            "practiceLambda": 5,
            "trialLambda": 0.3,
            "instructedLambda": "dishonest_big",
            "drawnRed": 58,
            "reportedRed": 58,
            "inferredRed": 57,
            "playerTrialScore": -1,
            "oppTrialScore": 0,
            "playerTotalScore": -385,
            "oppTotalScore": 201,
            "waitTime": 7184.199487028089,
            "responseTime": 1680754887818,
            "catchQuestion": "How many <b class=\"r\">red<\/b> marbles did your opponent report drawing? ",
            "catchKey": -1,
            "catchResponse": -1,
            "catchTime": 1680754863457,
            "trialTime": 0
        },
        {
            "exptPart": "trial",
            "trialNumber": 83,
            "roleCurrent": "receiver",
            "marblesSampled": 100,
            "probRed": 0.5,
            "practiceLambda": 5,
            "trialLambda": 0.3,
            "instructedLambda": "dishonest_big",
            "drawnRed": 41,
            "reportedRed": 42,
            "inferredRed": 41,
            "playerTrialScore": 0,
            "oppTrialScore": 0,
            "playerTotalScore": -385,
            "oppTotalScore": 201,
            "waitTime": 6219.3631955101755,
            "responseTime": 1680754897290,
            "catchQuestion": "How many <b class=\"r\">red<\/b> marbles did your opponent report drawing? ",
            "catchKey": -1,
            "catchResponse": -1,
            "catchTime": 1680754863457,
            "trialTime": 0
        },
        {
            "exptPart": "trial",
            "trialNumber": 84,
            "roleCurrent": "receiver",
            "marblesSampled": 100,
            "probRed": 0.5,
            "practiceLambda": 5,
            "trialLambda": 0.3,
            "instructedLambda": "dishonest_big",
            "drawnRed": 61,
            "reportedRed": 61,
            "inferredRed": 60,
            "playerTrialScore": -1,
            "oppTrialScore": 0,
            "playerTotalScore": -386,
            "oppTotalScore": 201,
            "waitTime": 5354.963653057836,
            "responseTime": 1680754904920,
            "catchQuestion": "How many <b class=\"r\">red<\/b> marbles did your opponent report drawing? ",
            "catchKey": -1,
            "catchResponse": -1,
            "catchTime": 1680754863457,
            "trialTime": 0
        },
        {
            "exptPart": "trial",
            "trialNumber": 85,
            "roleCurrent": "receiver",
            "marblesSampled": 100,
            "probRed": 0.5,
            "practiceLambda": 5,
            "trialLambda": 0.3,
            "instructedLambda": "dishonest_big",
            "drawnRed": 54,
            "reportedRed": 55,
            "inferredRed": 54,
            "playerTrialScore": 0,
            "oppTrialScore": 0,
            "playerTotalScore": -386,
            "oppTotalScore": 201,
            "waitTime": 5807.974090580283,
            "responseTime": 1680754913812,
            "catchQuestion": "How many <b class=\"r\">red<\/b> marbles did your opponent report drawing? ",
            "catchKey": -1,
            "catchResponse": -1,
            "catchTime": 1680754863457,
            "trialTime": 0
        },
        {
            "exptPart": "trial",
            "trialNumber": 86,
            "roleCurrent": "receiver",
            "marblesSampled": 100,
            "probRed": 0.5,
            "practiceLambda": 5,
            "trialLambda": 0.3,
            "instructedLambda": "dishonest_big",
            "drawnRed": 50,
            "reportedRed": 50,
            "inferredRed": 49,
            "playerTrialScore": -1,
            "oppTrialScore": 0,
            "playerTotalScore": -387,
            "oppTotalScore": 201,
            "waitTime": 6627.025245193807,
            "responseTime": 1680754923486,
            "catchQuestion": "How many <b class=\"r\">red<\/b> marbles did your opponent report drawing? ",
            "catchKey": -1,
            "catchResponse": -1,
            "catchTime": 1680754863457,
            "trialTime": 0
        },
        {
            "exptPart": "trial",
            "trialNumber": 87,
            "roleCurrent": "receiver",
            "marblesSampled": 100,
            "probRed": 0.5,
            "practiceLambda": 5,
            "trialLambda": 0.3,
            "instructedLambda": "dishonest_big",
            "drawnRed": 59,
            "reportedRed": 59,
            "inferredRed": 58,
            "playerTrialScore": -1,
            "oppTrialScore": 0,
            "playerTotalScore": -388,
            "oppTotalScore": 201,
            "waitTime": 6372.982671338253,
            "responseTime": 1680754932447,
            "catchQuestion": "How many <b class=\"r\">red<\/b> marbles did your opponent report drawing? ",
            "catchKey": -1,
            "catchResponse": -1,
            "catchTime": 1680754863457,
            "trialTime": 0
        },
        {
            "exptPart": "trial",
            "trialNumber": 88,
            "roleCurrent": "receiver",
            "marblesSampled": 100,
            "probRed": 0.5,
            "practiceLambda": 5,
            "trialLambda": 0.3,
            "instructedLambda": "dishonest_big",
            "drawnRed": 32,
            "reportedRed": 32,
            "inferredRed": 31,
            "playerTrialScore": -1,
            "oppTrialScore": 0,
            "playerTotalScore": -389,
            "oppTotalScore": 201,
            "waitTime": 5939.649103219998,
            "responseTime": 1680754940706,
            "catchQuestion": "How many <b class=\"r\">red<\/b> marbles did your opponent report drawing? ",
            "catchKey": -1,
            "catchResponse": -1,
            "catchTime": 1680754863457,
            "trialTime": 0
        },
        {
            "exptPart": "trial",
            "trialNumber": 89,
            "roleCurrent": "receiver",
            "marblesSampled": 100,
            "probRed": 0.5,
            "practiceLambda": 5,
            "trialLambda": 0.3,
            "instructedLambda": "dishonest_big",
            "drawnRed": 33,
            "reportedRed": 33,
            "inferredRed": 32,
            "playerTrialScore": -1,
            "oppTrialScore": 0,
            "playerTotalScore": -390,
            "oppTotalScore": 201,
            "waitTime": 7075.070657332901,
            "responseTime": 1680754950141,
            "catchQuestion": "How many <b class=\"r\">red<\/b> marbles did your opponent report drawing? ",
            "catchKey": -1,
            "catchResponse": -1,
            "catchTime": 1680754863457,
            "trialTime": 0
        },
        {
            "exptPart": "trial",
            "trialNumber": 90,
            "roleCurrent": "receiver",
            "marblesSampled": 100,
            "probRed": 0.5,
            "practiceLambda": 5,
            "trialLambda": 0.3,
            "instructedLambda": "dishonest_big",
            "drawnRed": 59,
            "reportedRed": 59,
            "inferredRed": 58,
            "playerTrialScore": -1,
            "oppTrialScore": 0,
            "playerTotalScore": -391,
            "oppTotalScore": 201,
            "waitTime": 7395.275475294712,
            "responseTime": 1680754961527,
            "catchQuestion": "How many <b class=\"r\">red<\/b> marbles did your opponent report drawing? ",
            "catchKey": -1,
            "catchResponse": -1,
            "catchTime": 1680754961527,
            "trialTime": 0
        },
        {
            "exptPart": "trial",
            "trialNumber": 91,
            "roleCurrent": "receiver",
            "marblesSampled": 100,
            "probRed": 0.5,
            "practiceLambda": 5,
            "trialLambda": 0.3,
            "instructedLambda": "dishonest_big",
            "drawnRed": 71,
            "reportedRed": 72,
            "inferredRed": 71,
            "playerTrialScore": 0,
            "oppTrialScore": 0,
            "playerTotalScore": -391,
            "oppTotalScore": 201,
            "waitTime": 5903.876734403206,
            "responseTime": 1680754973048,
            "catchQuestion": "How many <b class=\"r\">red<\/b> marbles did your opponent report drawing? ",
            "catchKey": -1,
            "catchResponse": -1,
            "catchTime": 1680754961527,
            "trialTime": 0
        },
        {
            "exptPart": "trial",
            "trialNumber": 92,
            "roleCurrent": "receiver",
            "marblesSampled": 100,
            "probRed": 0.5,
            "practiceLambda": 5,
            "trialLambda": 0.3,
            "instructedLambda": "dishonest_big",
            "drawnRed": 64,
            "reportedRed": 64,
            "inferredRed": 63,
            "playerTrialScore": -1,
            "oppTrialScore": 0,
            "playerTotalScore": -392,
            "oppTotalScore": 201,
            "waitTime": 5912.470945876752,
            "responseTime": 1680754981655,
            "catchQuestion": "How many <b class=\"r\">red<\/b> marbles did your opponent report drawing? ",
            "catchKey": -1,
            "catchResponse": -1,
            "catchTime": 1680754961527,
            "trialTime": 0
        },
        {
            "exptPart": "trial",
            "trialNumber": 93,
            "roleCurrent": "receiver",
            "marblesSampled": 100,
            "probRed": 0.5,
            "practiceLambda": 5,
            "trialLambda": 0.3,
            "instructedLambda": "dishonest_big",
            "drawnRed": 68,
            "reportedRed": 68,
            "inferredRed": 67,
            "playerTrialScore": -1,
            "oppTrialScore": 0,
            "playerTotalScore": -393,
            "oppTotalScore": 201,
            "waitTime": 6936.9287838743,
            "responseTime": 1680754991241,
            "catchQuestion": "How many <b class=\"r\">red<\/b> marbles did your opponent report drawing? ",
            "catchKey": -1,
            "catchResponse": -1,
            "catchTime": 1680754961527,
            "trialTime": 0
        },
        {
            "exptPart": "trial",
            "trialNumber": 94,
            "roleCurrent": "receiver",
            "marblesSampled": 100,
            "probRed": 0.5,
            "practiceLambda": 5,
            "trialLambda": 0.3,
            "instructedLambda": "dishonest_big",
            "drawnRed": 59,
            "reportedRed": 60,
            "inferredRed": 59,
            "playerTrialScore": 0,
            "oppTrialScore": 0,
            "playerTotalScore": -393,
            "oppTotalScore": 201,
            "waitTime": 6217.119786533267,
            "responseTime": 1680755000910,
            "catchQuestion": "How many <b class=\"r\">red<\/b> marbles did your opponent report drawing? ",
            "catchKey": -1,
            "catchResponse": -1,
            "catchTime": 1680754961527,
            "trialTime": 0
        },
        {
            "exptPart": "trial",
            "trialNumber": 95,
            "roleCurrent": "receiver",
            "marblesSampled": 100,
            "probRed": 0.5,
            "practiceLambda": 5,
            "trialLambda": 0.3,
            "instructedLambda": "dishonest_big",
            "drawnRed": 55,
            "reportedRed": 55,
            "inferredRed": 54,
            "playerTrialScore": -1,
            "oppTrialScore": 0,
            "playerTotalScore": -394,
            "oppTotalScore": 201,
            "waitTime": 6930.437414196484,
            "responseTime": 1680755010281,
            "catchQuestion": "How many <b class=\"r\">red<\/b> marbles did your opponent report drawing? ",
            "catchKey": -1,
            "catchResponse": -1,
            "catchTime": 1680754961527,
            "trialTime": 0
        },
        {
            "exptPart": "trial",
            "trialNumber": 96,
            "roleCurrent": "receiver",
            "marblesSampled": 100,
            "probRed": 0.5,
            "practiceLambda": 5,
            "trialLambda": 0.3,
            "instructedLambda": "dishonest_big",
            "drawnRed": 3,
            "reportedRed": 3,
            "inferredRed": 4,
            "playerTrialScore": -1,
            "oppTrialScore": 1,
            "playerTotalScore": -395,
            "oppTotalScore": 202,
            "waitTime": 6143.291924002316,
            "responseTime": 1680755022820,
            "catchQuestion": "How many <b class=\"r\">red<\/b> marbles did your opponent report drawing? ",
            "catchKey": -1,
            "catchResponse": -1,
            "catchTime": 1680754961527,
            "trialTime": 0
        },
        {
            "exptPart": "trial",
            "trialNumber": 97,
            "roleCurrent": "receiver",
            "marblesSampled": 100,
            "probRed": 0.5,
            "practiceLambda": 5,
            "trialLambda": 0.3,
            "instructedLambda": "dishonest_big",
            "drawnRed": 59,
            "reportedRed": 59,
            "inferredRed": 58,
            "playerTrialScore": -1,
            "oppTrialScore": 0,
            "playerTotalScore": -396,
            "oppTotalScore": 202,
            "waitTime": 5308.538270277421,
            "responseTime": 1680755032905,
            "catchQuestion": "How many <b class=\"r\">red<\/b> marbles did your opponent report drawing? ",
            "catchKey": -1,
            "catchResponse": -1,
            "catchTime": 1680754961527,
            "trialTime": 0
        },
        {
            "exptPart": "trial",
            "trialNumber": 98,
            "roleCurrent": "receiver",
            "marblesSampled": 100,
            "probRed": 0.5,
            "practiceLambda": 5,
            "trialLambda": 0.3,
            "instructedLambda": "dishonest_big",
            "drawnRed": 15,
            "reportedRed": 15,
            "inferredRed": 16,
            "playerTrialScore": -1,
            "oppTrialScore": 1,
            "playerTotalScore": -397,
            "oppTotalScore": 203,
            "waitTime": 6151.689010752953,
            "responseTime": 1680755042145,
            "catchQuestion": "How many <b class=\"r\">red<\/b> marbles did your opponent report drawing? ",
            "catchKey": -1,
            "catchResponse": -1,
            "catchTime": 1680754961527,
            "trialTime": 0
        },
        {
            "exptPart": "trial",
            "trialNumber": 99,
            "roleCurrent": "receiver",
            "marblesSampled": 100,
            "probRed": 0.5,
            "practiceLambda": 5,
            "trialLambda": 0.3,
            "instructedLambda": "dishonest_big",
            "drawnRed": 19,
            "reportedRed": 19,
            "inferredRed": 20,
            "playerTrialScore": -1,
            "oppTrialScore": 1,
            "playerTotalScore": -398,
            "oppTotalScore": 204,
            "waitTime": 6938.78986937917,
            "responseTime": 1680755052849,
            "catchQuestion": "How many <b class=\"r\">red<\/b> marbles did your opponent report drawing? ",
            "catchKey": 19,
            "catchResponse": 19,
            "catchTime": 1680755052849,
            "trialTime": 0
        },
        {
            "exptPart": "trial",
            "trialNumber": 100,
            "roleCurrent": "receiver",
            "marblesSampled": 100,
            "probRed": 0.5,
            "practiceLambda": 5,
            "trialLambda": 0.3,
            "instructedLambda": "dishonest_big",
            "drawnRed": 55,
            "reportedRed": 55,
            "inferredRed": 54,
            "playerTrialScore": -1,
            "oppTrialScore": 0,
            "playerTotalScore": -399,
            "oppTotalScore": 204,
            "waitTime": 5163.090608258718,
            "responseTime": 1680755065152,
            "catchQuestion": "How many <b class=\"r\">red<\/b> marbles did your opponent report drawing? ",
            "catchKey": 55,
            "catchResponse": 55,
            "catchTime": 1680755065152,
            "trialTime": 0
        }
    ]
}