{
    "client": {
        "type": "sona",
        "experiment_id": 2228,
        "credit_token": "b315147ae43241ea9c65086cb510cfb7",
        "survey_code": "39409",
        "sid": "sona-39409",
        "window": {
            "width": 1440,
            "height": 703
        },
        "screen": {
            "width": 1440,
            "height": 900
        },
        "userAgent": "Mozilla\/5.0 (Macintosh; Intel Mac OS X 10_15_7) AppleWebKit\/537.36 (KHTML, like Gecko) Chrome\/111.0.0.0 Safari\/537.36",
        "score": 0,
        "bonus": 0
    },
    "expt": {
        "saveURL": "submit.simple.php",
        "trials": 100,
        "practiceTrials": 2,
        "marblesSampled": 100,
        "probRed": 0.5,
        "practiceLambdaAI": 5,
        "lambdaAI": 0.3,
        "roles": [
            "sender",
            "receiver"
        ],
        "cost": "unif",
        "goal": "over",
        "oppDishonesty": "dishonest_small",
        "catchTrials": [
            0,
            56,
            66,
            46,
            78,
            3,
            63,
            68,
            94,
            50
        ],
        "scoreTotal": {
            "player": -558,
            "opp": 18
        },
        "sona": {
            "experiment_id": 2228,
            "credit_token": "b315147ae43241ea9c65086cb510cfb7"
        },
        "pilot": false,
        "debug": false
    },
    "trials": [
        {
            "exptPart": "practice",
            "trialNumber": 1,
            "roleCurrent": "sender",
            "marblesSampled": 100,
            "probRed": 0.5,
            "practiceLambda": 5,
            "trialLambda": 0.3,
            "instructedLambda": "dishonest_small",
            "drawnRed": 67,
            "reportedRed": 75,
            "inferredRed": 74,
            "playerTrialScore": 7,
            "oppTrialScore": -7,
            "playerTotalScore": 7,
            "oppTotalScore": -7,
            "waitTime": 2673.133239723,
            "responseTime": 1680833030182,
            "catchQuestion": "How many <b class=\"r\">red<\/b> marbles did you actually draw (before any changes)? ",
            "catchKey": 67,
            "catchResponse": 67,
            "catchTime": 1680833030183,
            "trialTime": 0
        },
        {
            "exptPart": "practice",
            "trialNumber": 2,
            "roleCurrent": "receiver",
            "marblesSampled": 100,
            "probRed": 0.5,
            "practiceLambda": 5,
            "trialLambda": 0.3,
            "instructedLambda": "dishonest_small",
            "drawnRed": 42,
            "reportedRed": 45,
            "inferredRed": 43,
            "playerTrialScore": -1,
            "oppTrialScore": 1,
            "playerTotalScore": 6,
            "oppTotalScore": -6,
            "waitTime": 6875.388323412644,
            "responseTime": 1680833084170,
            "catchQuestion": "How many <b class=\"r\">red<\/b> marbles did your opponent report drawing? ",
            "catchKey": 45,
            "catchResponse": 45,
            "catchTime": 1680833084170,
            "trialTime": 0
        },
        {
            "exptPart": "trial",
            "trialNumber": 1,
            "roleCurrent": "receiver",
            "marblesSampled": 100,
            "probRed": 0.5,
            "practiceLambda": 5,
            "trialLambda": 0.3,
            "instructedLambda": "dishonest_small",
            "drawnRed": 19,
            "reportedRed": 19,
            "inferredRed": 11,
            "playerTrialScore": -8,
            "oppTrialScore": 0,
            "playerTotalScore": -8,
            "oppTotalScore": 0,
            "waitTime": 6062.027124488213,
            "responseTime": 1680833149566,
            "catchQuestion": "How many <b class=\"r\">red<\/b> marbles did your opponent report drawing? ",
            "catchKey": 19,
            "catchResponse": 19,
            "catchTime": 1680833149567,
            "trialTime": 0
        },
        {
            "exptPart": "trial",
            "trialNumber": 2,
            "roleCurrent": "receiver",
            "marblesSampled": 100,
            "probRed": 0.5,
            "practiceLambda": 5,
            "trialLambda": 0.3,
            "instructedLambda": "dishonest_small",
            "drawnRed": 60,
            "reportedRed": 62,
            "inferredRed": 57,
            "playerTrialScore": -3,
            "oppTrialScore": 0,
            "playerTotalScore": -11,
            "oppTotalScore": 0,
            "waitTime": 7033.8153563784335,
            "responseTime": 1680833176050,
            "catchQuestion": "How many <b class=\"r\">red<\/b> marbles did your opponent report drawing? ",
            "catchKey": -1,
            "catchResponse": -1,
            "catchTime": 1680833149567,
            "trialTime": 0
        },
        {
            "exptPart": "trial",
            "trialNumber": 3,
            "roleCurrent": "receiver",
            "marblesSampled": 100,
            "probRed": 0.5,
            "practiceLambda": 5,
            "trialLambda": 0.3,
            "instructedLambda": "dishonest_small",
            "drawnRed": 55,
            "reportedRed": 56,
            "inferredRed": 50,
            "playerTrialScore": -5,
            "oppTrialScore": 0,
            "playerTotalScore": -16,
            "oppTotalScore": 0,
            "waitTime": 7395.682439848427,
            "responseTime": 1680833189491,
            "catchQuestion": "How many <b class=\"r\">red<\/b> marbles did your opponent report drawing? ",
            "catchKey": -1,
            "catchResponse": -1,
            "catchTime": 1680833149567,
            "trialTime": 0
        },
        {
            "exptPart": "trial",
            "trialNumber": 4,
            "roleCurrent": "receiver",
            "marblesSampled": 100,
            "probRed": 0.5,
            "practiceLambda": 5,
            "trialLambda": 0.3,
            "instructedLambda": "dishonest_small",
            "drawnRed": 32,
            "reportedRed": 32,
            "inferredRed": 30,
            "playerTrialScore": -2,
            "oppTrialScore": 0,
            "playerTotalScore": -18,
            "oppTotalScore": 0,
            "waitTime": 6933.729454656155,
            "responseTime": 1680833207549,
            "catchQuestion": "How many <b class=\"r\">red<\/b> marbles did your opponent report drawing? ",
            "catchKey": 32,
            "catchResponse": 32,
            "catchTime": 1680833207549,
            "trialTime": 0
        },
        {
            "exptPart": "trial",
            "trialNumber": 5,
            "roleCurrent": "receiver",
            "marblesSampled": 100,
            "probRed": 0.5,
            "practiceLambda": 5,
            "trialLambda": 0.3,
            "instructedLambda": "dishonest_small",
            "drawnRed": 75,
            "reportedRed": 75,
            "inferredRed": 67,
            "playerTrialScore": -8,
            "oppTrialScore": 0,
            "playerTotalScore": -26,
            "oppTotalScore": 0,
            "waitTime": 5311.28887291964,
            "responseTime": 1680833234153,
            "catchQuestion": "How many <b class=\"r\">red<\/b> marbles did your opponent report drawing? ",
            "catchKey": -1,
            "catchResponse": -1,
            "catchTime": 1680833207549,
            "trialTime": 0
        },
        {
            "exptPart": "trial",
            "trialNumber": 6,
            "roleCurrent": "receiver",
            "marblesSampled": 100,
            "probRed": 0.5,
            "practiceLambda": 5,
            "trialLambda": 0.3,
            "instructedLambda": "dishonest_small",
            "drawnRed": 73,
            "reportedRed": 73,
            "inferredRed": 70,
            "playerTrialScore": -3,
            "oppTrialScore": 0,
            "playerTotalScore": -29,
            "oppTotalScore": 0,
            "waitTime": 6717.385665100022,
            "responseTime": 1680833248797,
            "catchQuestion": "How many <b class=\"r\">red<\/b> marbles did your opponent report drawing? ",
            "catchKey": -1,
            "catchResponse": -1,
            "catchTime": 1680833207549,
            "trialTime": 0
        },
        {
            "exptPart": "trial",
            "trialNumber": 7,
            "roleCurrent": "receiver",
            "marblesSampled": 100,
            "probRed": 0.5,
            "practiceLambda": 5,
            "trialLambda": 0.3,
            "instructedLambda": "dishonest_small",
            "drawnRed": 15,
            "reportedRed": 15,
            "inferredRed": 4,
            "playerTrialScore": -11,
            "oppTrialScore": 0,
            "playerTotalScore": -40,
            "oppTotalScore": 0,
            "waitTime": 5692.97108206971,
            "responseTime": 1680833260414,
            "catchQuestion": "How many <b class=\"r\">red<\/b> marbles did your opponent report drawing? ",
            "catchKey": -1,
            "catchResponse": -1,
            "catchTime": 1680833207549,
            "trialTime": 0
        },
        {
            "exptPart": "trial",
            "trialNumber": 8,
            "roleCurrent": "receiver",
            "marblesSampled": 100,
            "probRed": 0.5,
            "practiceLambda": 5,
            "trialLambda": 0.3,
            "instructedLambda": "dishonest_small",
            "drawnRed": 44,
            "reportedRed": 44,
            "inferredRed": 32,
            "playerTrialScore": -12,
            "oppTrialScore": 0,
            "playerTotalScore": -52,
            "oppTotalScore": 0,
            "waitTime": 6896.312373978341,
            "responseTime": 1680833273189,
            "catchQuestion": "How many <b class=\"r\">red<\/b> marbles did your opponent report drawing? ",
            "catchKey": -1,
            "catchResponse": -1,
            "catchTime": 1680833207549,
            "trialTime": 0
        },
        {
            "exptPart": "trial",
            "trialNumber": 9,
            "roleCurrent": "receiver",
            "marblesSampled": 100,
            "probRed": 0.5,
            "practiceLambda": 5,
            "trialLambda": 0.3,
            "instructedLambda": "dishonest_small",
            "drawnRed": 67,
            "reportedRed": 67,
            "inferredRed": 58,
            "playerTrialScore": -9,
            "oppTrialScore": 0,
            "playerTotalScore": -61,
            "oppTotalScore": 0,
            "waitTime": 5717.886877763458,
            "responseTime": 1680833283774,
            "catchQuestion": "How many <b class=\"r\">red<\/b> marbles did your opponent report drawing? ",
            "catchKey": -1,
            "catchResponse": -1,
            "catchTime": 1680833207549,
            "trialTime": 0
        },
        {
            "exptPart": "trial",
            "trialNumber": 10,
            "roleCurrent": "receiver",
            "marblesSampled": 100,
            "probRed": 0.5,
            "practiceLambda": 5,
            "trialLambda": 0.3,
            "instructedLambda": "dishonest_small",
            "drawnRed": 56,
            "reportedRed": 56,
            "inferredRed": 51,
            "playerTrialScore": -5,
            "oppTrialScore": 0,
            "playerTotalScore": -66,
            "oppTotalScore": 0,
            "waitTime": 5370.042761030817,
            "responseTime": 1680833295270,
            "catchQuestion": "How many <b class=\"r\">red<\/b> marbles did your opponent report drawing? ",
            "catchKey": -1,
            "catchResponse": -1,
            "catchTime": 1680833295270,
            "trialTime": 0
        },
        {
            "exptPart": "trial",
            "trialNumber": 11,
            "roleCurrent": "receiver",
            "marblesSampled": 100,
            "probRed": 0.5,
            "practiceLambda": 5,
            "trialLambda": 0.3,
            "instructedLambda": "dishonest_small",
            "drawnRed": 29,
            "reportedRed": 29,
            "inferredRed": 26,
            "playerTrialScore": -3,
            "oppTrialScore": 0,
            "playerTotalScore": -69,
            "oppTotalScore": 0,
            "waitTime": 5279.869319953454,
            "responseTime": 1680833321837,
            "catchQuestion": "How many <b class=\"r\">red<\/b> marbles did your opponent report drawing? ",
            "catchKey": -1,
            "catchResponse": -1,
            "catchTime": 1680833295270,
            "trialTime": 0
        },
        {
            "exptPart": "trial",
            "trialNumber": 12,
            "roleCurrent": "receiver",
            "marblesSampled": 100,
            "probRed": 0.5,
            "practiceLambda": 5,
            "trialLambda": 0.3,
            "instructedLambda": "dishonest_small",
            "drawnRed": 53,
            "reportedRed": 54,
            "inferredRed": 51,
            "playerTrialScore": -2,
            "oppTrialScore": 0,
            "playerTotalScore": -71,
            "oppTotalScore": 0,
            "waitTime": 5262.890264893254,
            "responseTime": 1680833337245,
            "catchQuestion": "How many <b class=\"r\">red<\/b> marbles did your opponent report drawing? ",
            "catchKey": -1,
            "catchResponse": -1,
            "catchTime": 1680833295270,
            "trialTime": 0
        },
        {
            "exptPart": "trial",
            "trialNumber": 13,
            "roleCurrent": "receiver",
            "marblesSampled": 100,
            "probRed": 0.5,
            "practiceLambda": 5,
            "trialLambda": 0.3,
            "instructedLambda": "dishonest_small",
            "drawnRed": 33,
            "reportedRed": 33,
            "inferredRed": 30,
            "playerTrialScore": -3,
            "oppTrialScore": 0,
            "playerTotalScore": -74,
            "oppTotalScore": 0,
            "waitTime": 5158.489806173346,
            "responseTime": 1680833346294,
            "catchQuestion": "How many <b class=\"r\">red<\/b> marbles did your opponent report drawing? ",
            "catchKey": -1,
            "catchResponse": -1,
            "catchTime": 1680833295270,
            "trialTime": 0
        },
        {
            "exptPart": "trial",
            "trialNumber": 14,
            "roleCurrent": "receiver",
            "marblesSampled": 100,
            "probRed": 0.5,
            "practiceLambda": 5,
            "trialLambda": 0.3,
            "instructedLambda": "dishonest_small",
            "drawnRed": 66,
            "reportedRed": 67,
            "inferredRed": 58,
            "playerTrialScore": -8,
            "oppTrialScore": 0,
            "playerTotalScore": -82,
            "oppTotalScore": 0,
            "waitTime": 6882.638819319236,
            "responseTime": 1680833361581,
            "catchQuestion": "How many <b class=\"r\">red<\/b> marbles did your opponent report drawing? ",
            "catchKey": -1,
            "catchResponse": -1,
            "catchTime": 1680833295270,
            "trialTime": 0
        },
        {
            "exptPart": "trial",
            "trialNumber": 15,
            "roleCurrent": "receiver",
            "marblesSampled": 100,
            "probRed": 0.5,
            "practiceLambda": 5,
            "trialLambda": 0.3,
            "instructedLambda": "dishonest_small",
            "drawnRed": 55,
            "reportedRed": 56,
            "inferredRed": 52,
            "playerTrialScore": -3,
            "oppTrialScore": 0,
            "playerTotalScore": -85,
            "oppTotalScore": 0,
            "waitTime": 5440.736089848954,
            "responseTime": 1680833374091,
            "catchQuestion": "How many <b class=\"r\">red<\/b> marbles did your opponent report drawing? ",
            "catchKey": -1,
            "catchResponse": -1,
            "catchTime": 1680833295270,
            "trialTime": 0
        },
        {
            "exptPart": "trial",
            "trialNumber": 16,
            "roleCurrent": "receiver",
            "marblesSampled": 100,
            "probRed": 0.5,
            "practiceLambda": 5,
            "trialLambda": 0.3,
            "instructedLambda": "dishonest_small",
            "drawnRed": 55,
            "reportedRed": 56,
            "inferredRed": 49,
            "playerTrialScore": -6,
            "oppTrialScore": 0,
            "playerTotalScore": -91,
            "oppTotalScore": 0,
            "waitTime": 6023.922150262785,
            "responseTime": 1680833386294,
            "catchQuestion": "How many <b class=\"r\">red<\/b> marbles did your opponent report drawing? ",
            "catchKey": -1,
            "catchResponse": -1,
            "catchTime": 1680833295270,
            "trialTime": 0
        },
        {
            "exptPart": "trial",
            "trialNumber": 17,
            "roleCurrent": "receiver",
            "marblesSampled": 100,
            "probRed": 0.5,
            "practiceLambda": 5,
            "trialLambda": 0.3,
            "instructedLambda": "dishonest_small",
            "drawnRed": 56,
            "reportedRed": 57,
            "inferredRed": 50,
            "playerTrialScore": -6,
            "oppTrialScore": 0,
            "playerTotalScore": -97,
            "oppTotalScore": 0,
            "waitTime": 5510.9147734812905,
            "responseTime": 1680833395188,
            "catchQuestion": "How many <b class=\"r\">red<\/b> marbles did your opponent report drawing? ",
            "catchKey": -1,
            "catchResponse": -1,
            "catchTime": 1680833295270,
            "trialTime": 0
        },
        {
            "exptPart": "trial",
            "trialNumber": 18,
            "roleCurrent": "receiver",
            "marblesSampled": 100,
            "probRed": 0.5,
            "practiceLambda": 5,
            "trialLambda": 0.3,
            "instructedLambda": "dishonest_small",
            "drawnRed": 37,
            "reportedRed": 37,
            "inferredRed": 31,
            "playerTrialScore": -6,
            "oppTrialScore": 0,
            "playerTotalScore": -103,
            "oppTotalScore": 0,
            "waitTime": 5792.8006358955345,
            "responseTime": 1680833407030,
            "catchQuestion": "How many <b class=\"r\">red<\/b> marbles did your opponent report drawing? ",
            "catchKey": -1,
            "catchResponse": -1,
            "catchTime": 1680833295270,
            "trialTime": 0
        },
        {
            "exptPart": "trial",
            "trialNumber": 19,
            "roleCurrent": "receiver",
            "marblesSampled": 100,
            "probRed": 0.5,
            "practiceLambda": 5,
            "trialLambda": 0.3,
            "instructedLambda": "dishonest_small",
            "drawnRed": 33,
            "reportedRed": 33,
            "inferredRed": 28,
            "playerTrialScore": -5,
            "oppTrialScore": 0,
            "playerTotalScore": -108,
            "oppTotalScore": 0,
            "waitTime": 7136.697695653546,
            "responseTime": 1680833419712,
            "catchQuestion": "How many <b class=\"r\">red<\/b> marbles did your opponent report drawing? ",
            "catchKey": -1,
            "catchResponse": -1,
            "catchTime": 1680833295270,
            "trialTime": 0
        },
        {
            "exptPart": "trial",
            "trialNumber": 20,
            "roleCurrent": "receiver",
            "marblesSampled": 100,
            "probRed": 0.5,
            "practiceLambda": 5,
            "trialLambda": 0.3,
            "instructedLambda": "dishonest_small",
            "drawnRed": 77,
            "reportedRed": 78,
            "inferredRed": 73,
            "playerTrialScore": -4,
            "oppTrialScore": 0,
            "playerTotalScore": -112,
            "oppTotalScore": 0,
            "waitTime": 6400.962068189963,
            "responseTime": 1680833434549,
            "catchQuestion": "How many <b class=\"r\">red<\/b> marbles did your opponent report drawing? ",
            "catchKey": -1,
            "catchResponse": -1,
            "catchTime": 1680833434549,
            "trialTime": 0
        },
        {
            "exptPart": "trial",
            "trialNumber": 21,
            "roleCurrent": "receiver",
            "marblesSampled": 100,
            "probRed": 0.5,
            "practiceLambda": 5,
            "trialLambda": 0.3,
            "instructedLambda": "dishonest_small",
            "drawnRed": 65,
            "reportedRed": 66,
            "inferredRed": 59,
            "playerTrialScore": -6,
            "oppTrialScore": 0,
            "playerTotalScore": -118,
            "oppTotalScore": 0,
            "waitTime": 6641.84778052316,
            "responseTime": 1680833454550,
            "catchQuestion": "How many <b class=\"r\">red<\/b> marbles did your opponent report drawing? ",
            "catchKey": -1,
            "catchResponse": -1,
            "catchTime": 1680833434549,
            "trialTime": 0
        },
        {
            "exptPart": "trial",
            "trialNumber": 22,
            "roleCurrent": "receiver",
            "marblesSampled": 100,
            "probRed": 0.5,
            "practiceLambda": 5,
            "trialLambda": 0.3,
            "instructedLambda": "dishonest_small",
            "drawnRed": 49,
            "reportedRed": 49,
            "inferredRed": 46,
            "playerTrialScore": -3,
            "oppTrialScore": 0,
            "playerTotalScore": -121,
            "oppTotalScore": 0,
            "waitTime": 5450.737914217317,
            "responseTime": 1680833466902,
            "catchQuestion": "How many <b class=\"r\">red<\/b> marbles did your opponent report drawing? ",
            "catchKey": -1,
            "catchResponse": -1,
            "catchTime": 1680833434549,
            "trialTime": 0
        },
        {
            "exptPart": "trial",
            "trialNumber": 23,
            "roleCurrent": "receiver",
            "marblesSampled": 100,
            "probRed": 0.5,
            "practiceLambda": 5,
            "trialLambda": 0.3,
            "instructedLambda": "dishonest_small",
            "drawnRed": 55,
            "reportedRed": 55,
            "inferredRed": 49,
            "playerTrialScore": -6,
            "oppTrialScore": 0,
            "playerTotalScore": -127,
            "oppTotalScore": 0,
            "waitTime": 5846.051234633816,
            "responseTime": 1680833479293,
            "catchQuestion": "How many <b class=\"r\">red<\/b> marbles did your opponent report drawing? ",
            "catchKey": -1,
            "catchResponse": -1,
            "catchTime": 1680833434549,
            "trialTime": 0
        },
        {
            "exptPart": "trial",
            "trialNumber": 24,
            "roleCurrent": "receiver",
            "marblesSampled": 100,
            "probRed": 0.5,
            "practiceLambda": 5,
            "trialLambda": 0.3,
            "instructedLambda": "dishonest_small",
            "drawnRed": 68,
            "reportedRed": 69,
            "inferredRed": 64,
            "playerTrialScore": -4,
            "oppTrialScore": 0,
            "playerTotalScore": -131,
            "oppTotalScore": 0,
            "waitTime": 5274.086478460169,
            "responseTime": 1680833497220,
            "catchQuestion": "How many <b class=\"r\">red<\/b> marbles did your opponent report drawing? ",
            "catchKey": -1,
            "catchResponse": -1,
            "catchTime": 1680833434549,
            "trialTime": 0
        },
        {
            "exptPart": "trial",
            "trialNumber": 25,
            "roleCurrent": "receiver",
            "marblesSampled": 100,
            "probRed": 0.5,
            "practiceLambda": 5,
            "trialLambda": 0.3,
            "instructedLambda": "dishonest_small",
            "drawnRed": 37,
            "reportedRed": 37,
            "inferredRed": 29,
            "playerTrialScore": -8,
            "oppTrialScore": 0,
            "playerTotalScore": -139,
            "oppTotalScore": 0,
            "waitTime": 5301.164633693248,
            "responseTime": 1680833516795,
            "catchQuestion": "How many <b class=\"r\">red<\/b> marbles did your opponent report drawing? ",
            "catchKey": -1,
            "catchResponse": -1,
            "catchTime": 1680833434549,
            "trialTime": 0
        },
        {
            "exptPart": "trial",
            "trialNumber": 26,
            "roleCurrent": "receiver",
            "marblesSampled": 100,
            "probRed": 0.5,
            "practiceLambda": 5,
            "trialLambda": 0.3,
            "instructedLambda": "dishonest_small",
            "drawnRed": 83,
            "reportedRed": 83,
            "inferredRed": 80,
            "playerTrialScore": -3,
            "oppTrialScore": 0,
            "playerTotalScore": -142,
            "oppTotalScore": 0,
            "waitTime": 6190.3754738818225,
            "responseTime": 1680833529110,
            "catchQuestion": "How many <b class=\"r\">red<\/b> marbles did your opponent report drawing? ",
            "catchKey": -1,
            "catchResponse": -1,
            "catchTime": 1680833434549,
            "trialTime": 0
        },
        {
            "exptPart": "trial",
            "trialNumber": 27,
            "roleCurrent": "receiver",
            "marblesSampled": 100,
            "probRed": 0.5,
            "practiceLambda": 5,
            "trialLambda": 0.3,
            "instructedLambda": "dishonest_small",
            "drawnRed": 68,
            "reportedRed": 68,
            "inferredRed": 63,
            "playerTrialScore": -5,
            "oppTrialScore": 0,
            "playerTotalScore": -147,
            "oppTotalScore": 0,
            "waitTime": 7356.626070667791,
            "responseTime": 1680833549554,
            "catchQuestion": "How many <b class=\"r\">red<\/b> marbles did your opponent report drawing? ",
            "catchKey": -1,
            "catchResponse": -1,
            "catchTime": 1680833434549,
            "trialTime": 0
        },
        {
            "exptPart": "trial",
            "trialNumber": 28,
            "roleCurrent": "receiver",
            "marblesSampled": 100,
            "probRed": 0.5,
            "practiceLambda": 5,
            "trialLambda": 0.3,
            "instructedLambda": "dishonest_small",
            "drawnRed": 8,
            "reportedRed": 8,
            "inferredRed": 3,
            "playerTrialScore": -5,
            "oppTrialScore": 0,
            "playerTotalScore": -152,
            "oppTotalScore": 0,
            "waitTime": 5662.434941299591,
            "responseTime": 1680833570835,
            "catchQuestion": "How many <b class=\"r\">red<\/b> marbles did your opponent report drawing? ",
            "catchKey": -1,
            "catchResponse": -1,
            "catchTime": 1680833434549,
            "trialTime": 0
        },
        {
            "exptPart": "trial",
            "trialNumber": 29,
            "roleCurrent": "receiver",
            "marblesSampled": 100,
            "probRed": 0.5,
            "practiceLambda": 5,
            "trialLambda": 0.3,
            "instructedLambda": "dishonest_small",
            "drawnRed": 55,
            "reportedRed": 55,
            "inferredRed": 49,
            "playerTrialScore": -6,
            "oppTrialScore": 0,
            "playerTotalScore": -158,
            "oppTotalScore": 0,
            "waitTime": 6138.464581449925,
            "responseTime": 1680833581994,
            "catchQuestion": "How many <b class=\"r\">red<\/b> marbles did your opponent report drawing? ",
            "catchKey": -1,
            "catchResponse": -1,
            "catchTime": 1680833434549,
            "trialTime": 0
        },
        {
            "exptPart": "trial",
            "trialNumber": 30,
            "roleCurrent": "receiver",
            "marblesSampled": 100,
            "probRed": 0.5,
            "practiceLambda": 5,
            "trialLambda": 0.3,
            "instructedLambda": "dishonest_small",
            "drawnRed": 25,
            "reportedRed": 25,
            "inferredRed": 17,
            "playerTrialScore": -8,
            "oppTrialScore": 0,
            "playerTotalScore": -166,
            "oppTotalScore": 0,
            "waitTime": 5278.9020309495445,
            "responseTime": 1680833593795,
            "catchQuestion": "How many <b class=\"r\">red<\/b> marbles did your opponent report drawing? ",
            "catchKey": -1,
            "catchResponse": -1,
            "catchTime": 1680833593795,
            "trialTime": 0
        },
        {
            "exptPart": "trial",
            "trialNumber": 31,
            "roleCurrent": "receiver",
            "marblesSampled": 100,
            "probRed": 0.5,
            "practiceLambda": 5,
            "trialLambda": 0.3,
            "instructedLambda": "dishonest_small",
            "drawnRed": 67,
            "reportedRed": 68,
            "inferredRed": 60,
            "playerTrialScore": -7,
            "oppTrialScore": 0,
            "playerTotalScore": -173,
            "oppTotalScore": 0,
            "waitTime": 5700.123236348435,
            "responseTime": 1680833614168,
            "catchQuestion": "How many <b class=\"r\">red<\/b> marbles did your opponent report drawing? ",
            "catchKey": -1,
            "catchResponse": -1,
            "catchTime": 1680833593795,
            "trialTime": 0
        },
        {
            "exptPart": "trial",
            "trialNumber": 32,
            "roleCurrent": "receiver",
            "marblesSampled": 100,
            "probRed": 0.5,
            "practiceLambda": 5,
            "trialLambda": 0.3,
            "instructedLambda": "dishonest_small",
            "drawnRed": 36,
            "reportedRed": 36,
            "inferredRed": 29,
            "playerTrialScore": -7,
            "oppTrialScore": 0,
            "playerTotalScore": -180,
            "oppTotalScore": 0,
            "waitTime": 6264.76418813329,
            "responseTime": 1680833629104,
            "catchQuestion": "How many <b class=\"r\">red<\/b> marbles did your opponent report drawing? ",
            "catchKey": -1,
            "catchResponse": -1,
            "catchTime": 1680833593795,
            "trialTime": 0
        },
        {
            "exptPart": "trial",
            "trialNumber": 33,
            "roleCurrent": "receiver",
            "marblesSampled": 100,
            "probRed": 0.5,
            "practiceLambda": 5,
            "trialLambda": 0.3,
            "instructedLambda": "dishonest_small",
            "drawnRed": 46,
            "reportedRed": 46,
            "inferredRed": 41,
            "playerTrialScore": -5,
            "oppTrialScore": 0,
            "playerTotalScore": -185,
            "oppTotalScore": 0,
            "waitTime": 6553.257092295062,
            "responseTime": 1680833645484,
            "catchQuestion": "How many <b class=\"r\">red<\/b> marbles did your opponent report drawing? ",
            "catchKey": -1,
            "catchResponse": -1,
            "catchTime": 1680833593795,
            "trialTime": 0
        },
        {
            "exptPart": "trial",
            "trialNumber": 34,
            "roleCurrent": "receiver",
            "marblesSampled": 100,
            "probRed": 0.5,
            "practiceLambda": 5,
            "trialLambda": 0.3,
            "instructedLambda": "dishonest_small",
            "drawnRed": 2,
            "reportedRed": 2,
            "inferredRed": 2,
            "playerTrialScore": 0,
            "oppTrialScore": 0,
            "playerTotalScore": -185,
            "oppTotalScore": 0,
            "waitTime": 6960.270612626176,
            "responseTime": 1680833660532,
            "catchQuestion": "How many <b class=\"r\">red<\/b> marbles did your opponent report drawing? ",
            "catchKey": -1,
            "catchResponse": -1,
            "catchTime": 1680833593795,
            "trialTime": 0
        },
        {
            "exptPart": "trial",
            "trialNumber": 35,
            "roleCurrent": "receiver",
            "marblesSampled": 100,
            "probRed": 0.5,
            "practiceLambda": 5,
            "trialLambda": 0.3,
            "instructedLambda": "dishonest_small",
            "drawnRed": 85,
            "reportedRed": 85,
            "inferredRed": 78,
            "playerTrialScore": -7,
            "oppTrialScore": 0,
            "playerTotalScore": -192,
            "oppTotalScore": 0,
            "waitTime": 6053.246462323371,
            "responseTime": 1680833674857,
            "catchQuestion": "How many <b class=\"r\">red<\/b> marbles did your opponent report drawing? ",
            "catchKey": -1,
            "catchResponse": -1,
            "catchTime": 1680833593795,
            "trialTime": 0
        },
        {
            "exptPart": "trial",
            "trialNumber": 36,
            "roleCurrent": "receiver",
            "marblesSampled": 100,
            "probRed": 0.5,
            "practiceLambda": 5,
            "trialLambda": 0.3,
            "instructedLambda": "dishonest_small",
            "drawnRed": 65,
            "reportedRed": 65,
            "inferredRed": 57,
            "playerTrialScore": -8,
            "oppTrialScore": 0,
            "playerTotalScore": -200,
            "oppTotalScore": 0,
            "waitTime": 7159.438940669993,
            "responseTime": 1680833690905,
            "catchQuestion": "How many <b class=\"r\">red<\/b> marbles did your opponent report drawing? ",
            "catchKey": -1,
            "catchResponse": -1,
            "catchTime": 1680833593795,
            "trialTime": 0
        },
        {
            "exptPart": "trial",
            "trialNumber": 37,
            "roleCurrent": "receiver",
            "marblesSampled": 100,
            "probRed": 0.5,
            "practiceLambda": 5,
            "trialLambda": 0.3,
            "instructedLambda": "dishonest_small",
            "drawnRed": 89,
            "reportedRed": 90,
            "inferredRed": 78,
            "playerTrialScore": -11,
            "oppTrialScore": 0,
            "playerTotalScore": -211,
            "oppTotalScore": 0,
            "waitTime": 5249.257529936738,
            "responseTime": 1680833703841,
            "catchQuestion": "How many <b class=\"r\">red<\/b> marbles did your opponent report drawing? ",
            "catchKey": -1,
            "catchResponse": -1,
            "catchTime": 1680833593795,
            "trialTime": 0
        },
        {
            "exptPart": "trial",
            "trialNumber": 38,
            "roleCurrent": "receiver",
            "marblesSampled": 100,
            "probRed": 0.5,
            "practiceLambda": 5,
            "trialLambda": 0.3,
            "instructedLambda": "dishonest_small",
            "drawnRed": 60,
            "reportedRed": 60,
            "inferredRed": 57,
            "playerTrialScore": -3,
            "oppTrialScore": 0,
            "playerTotalScore": -214,
            "oppTotalScore": 0,
            "waitTime": 7149.55826218573,
            "responseTime": 1680833719434,
            "catchQuestion": "How many <b class=\"r\">red<\/b> marbles did your opponent report drawing? ",
            "catchKey": -1,
            "catchResponse": -1,
            "catchTime": 1680833593795,
            "trialTime": 0
        },
        {
            "exptPart": "trial",
            "trialNumber": 39,
            "roleCurrent": "receiver",
            "marblesSampled": 100,
            "probRed": 0.5,
            "practiceLambda": 5,
            "trialLambda": 0.3,
            "instructedLambda": "dishonest_small",
            "drawnRed": 69,
            "reportedRed": 70,
            "inferredRed": 61,
            "playerTrialScore": -8,
            "oppTrialScore": 0,
            "playerTotalScore": -222,
            "oppTotalScore": 0,
            "waitTime": 6927.355842582656,
            "responseTime": 1680833730713,
            "catchQuestion": "How many <b class=\"r\">red<\/b> marbles did your opponent report drawing? ",
            "catchKey": -1,
            "catchResponse": -1,
            "catchTime": 1680833593795,
            "trialTime": 0
        },
        {
            "exptPart": "trial",
            "trialNumber": 40,
            "roleCurrent": "receiver",
            "marblesSampled": 100,
            "probRed": 0.5,
            "practiceLambda": 5,
            "trialLambda": 0.3,
            "instructedLambda": "dishonest_small",
            "drawnRed": 33,
            "reportedRed": 34,
            "inferredRed": 32,
            "playerTrialScore": -1,
            "oppTrialScore": 0,
            "playerTotalScore": -223,
            "oppTotalScore": 0,
            "waitTime": 6636.074208904838,
            "responseTime": 1680833741645,
            "catchQuestion": "How many <b class=\"r\">red<\/b> marbles did your opponent report drawing? ",
            "catchKey": -1,
            "catchResponse": -1,
            "catchTime": 1680833741645,
            "trialTime": 0
        },
        {
            "exptPart": "trial",
            "trialNumber": 41,
            "roleCurrent": "receiver",
            "marblesSampled": 100,
            "probRed": 0.5,
            "practiceLambda": 5,
            "trialLambda": 0.3,
            "instructedLambda": "dishonest_small",
            "drawnRed": 82,
            "reportedRed": 82,
            "inferredRed": 78,
            "playerTrialScore": -4,
            "oppTrialScore": 0,
            "playerTotalScore": -227,
            "oppTotalScore": 0,
            "waitTime": 6762.645744551583,
            "responseTime": 1680833764744,
            "catchQuestion": "How many <b class=\"r\">red<\/b> marbles did your opponent report drawing? ",
            "catchKey": -1,
            "catchResponse": -1,
            "catchTime": 1680833741645,
            "trialTime": 0
        },
        {
            "exptPart": "trial",
            "trialNumber": 42,
            "roleCurrent": "receiver",
            "marblesSampled": 100,
            "probRed": 0.5,
            "practiceLambda": 5,
            "trialLambda": 0.3,
            "instructedLambda": "dishonest_small",
            "drawnRed": 13,
            "reportedRed": 15,
            "inferredRed": 14,
            "playerTrialScore": -1,
            "oppTrialScore": 1,
            "playerTotalScore": -228,
            "oppTotalScore": 1,
            "waitTime": 5209.738238485581,
            "responseTime": 1680833774167,
            "catchQuestion": "How many <b class=\"r\">red<\/b> marbles did your opponent report drawing? ",
            "catchKey": -1,
            "catchResponse": -1,
            "catchTime": 1680833741645,
            "trialTime": 0
        },
        {
            "exptPart": "trial",
            "trialNumber": 43,
            "roleCurrent": "receiver",
            "marblesSampled": 100,
            "probRed": 0.5,
            "practiceLambda": 5,
            "trialLambda": 0.3,
            "instructedLambda": "dishonest_small",
            "drawnRed": 45,
            "reportedRed": 45,
            "inferredRed": 39,
            "playerTrialScore": -6,
            "oppTrialScore": 0,
            "playerTotalScore": -234,
            "oppTotalScore": 1,
            "waitTime": 7312.809386991365,
            "responseTime": 1680833800524,
            "catchQuestion": "How many <b class=\"r\">red<\/b> marbles did your opponent report drawing? ",
            "catchKey": -1,
            "catchResponse": -1,
            "catchTime": 1680833741645,
            "trialTime": 0
        },
        {
            "exptPart": "trial",
            "trialNumber": 44,
            "roleCurrent": "receiver",
            "marblesSampled": 100,
            "probRed": 0.5,
            "practiceLambda": 5,
            "trialLambda": 0.3,
            "instructedLambda": "dishonest_small",
            "drawnRed": 46,
            "reportedRed": 46,
            "inferredRed": 43,
            "playerTrialScore": -3,
            "oppTrialScore": 0,
            "playerTotalScore": -237,
            "oppTotalScore": 1,
            "waitTime": 7417.082270479424,
            "responseTime": 1680833831647,
            "catchQuestion": "How many <b class=\"r\">red<\/b> marbles did your opponent report drawing? ",
            "catchKey": -1,
            "catchResponse": -1,
            "catchTime": 1680833741645,
            "trialTime": 0
        },
        {
            "exptPart": "trial",
            "trialNumber": 45,
            "roleCurrent": "receiver",
            "marblesSampled": 100,
            "probRed": 0.5,
            "practiceLambda": 5,
            "trialLambda": 0.3,
            "instructedLambda": "dishonest_small",
            "drawnRed": 68,
            "reportedRed": 69,
            "inferredRed": 62,
            "playerTrialScore": -6,
            "oppTrialScore": 0,
            "playerTotalScore": -243,
            "oppTotalScore": 1,
            "waitTime": 7395.407153476786,
            "responseTime": 1680833847292,
            "catchQuestion": "How many <b class=\"r\">red<\/b> marbles did your opponent report drawing? ",
            "catchKey": -1,
            "catchResponse": -1,
            "catchTime": 1680833741645,
            "trialTime": 0
        },
        {
            "exptPart": "trial",
            "trialNumber": 46,
            "roleCurrent": "receiver",
            "marblesSampled": 100,
            "probRed": 0.5,
            "practiceLambda": 5,
            "trialLambda": 0.3,
            "instructedLambda": "dishonest_small",
            "drawnRed": 48,
            "reportedRed": 48,
            "inferredRed": 45,
            "playerTrialScore": -3,
            "oppTrialScore": 0,
            "playerTotalScore": -246,
            "oppTotalScore": 1,
            "waitTime": 6169.487514518663,
            "responseTime": 1680833861001,
            "catchQuestion": "How many <b class=\"r\">red<\/b> marbles did your opponent report drawing? ",
            "catchKey": -1,
            "catchResponse": -1,
            "catchTime": 1680833741645,
            "trialTime": 0
        },
        {
            "exptPart": "trial",
            "trialNumber": 47,
            "roleCurrent": "receiver",
            "marblesSampled": 100,
            "probRed": 0.5,
            "practiceLambda": 5,
            "trialLambda": 0.3,
            "instructedLambda": "dishonest_small",
            "drawnRed": 93,
            "reportedRed": 93,
            "inferredRed": 87,
            "playerTrialScore": -6,
            "oppTrialScore": 0,
            "playerTotalScore": -252,
            "oppTotalScore": 1,
            "waitTime": 5819.584179847732,
            "responseTime": 1680833879438,
            "catchQuestion": "How many <b class=\"r\">red<\/b> marbles did your opponent report drawing? ",
            "catchKey": 93,
            "catchResponse": 93,
            "catchTime": 1680833879438,
            "trialTime": 0
        },
        {
            "exptPart": "trial",
            "trialNumber": 48,
            "roleCurrent": "receiver",
            "marblesSampled": 100,
            "probRed": 0.5,
            "practiceLambda": 5,
            "trialLambda": 0.3,
            "instructedLambda": "dishonest_small",
            "drawnRed": 37,
            "reportedRed": 37,
            "inferredRed": 32,
            "playerTrialScore": -5,
            "oppTrialScore": 0,
            "playerTotalScore": -257,
            "oppTotalScore": 1,
            "waitTime": 5642.735046084964,
            "responseTime": 1680833909152,
            "catchQuestion": "How many <b class=\"r\">red<\/b> marbles did your opponent report drawing? ",
            "catchKey": -1,
            "catchResponse": -1,
            "catchTime": 1680833879438,
            "trialTime": 0
        },
        {
            "exptPart": "trial",
            "trialNumber": 49,
            "roleCurrent": "receiver",
            "marblesSampled": 100,
            "probRed": 0.5,
            "practiceLambda": 5,
            "trialLambda": 0.3,
            "instructedLambda": "dishonest_small",
            "drawnRed": 44,
            "reportedRed": 44,
            "inferredRed": 41,
            "playerTrialScore": -3,
            "oppTrialScore": 0,
            "playerTotalScore": -260,
            "oppTotalScore": 1,
            "waitTime": 5852.54236507651,
            "responseTime": 1680833918453,
            "catchQuestion": "How many <b class=\"r\">red<\/b> marbles did your opponent report drawing? ",
            "catchKey": -1,
            "catchResponse": -1,
            "catchTime": 1680833879438,
            "trialTime": 0
        },
        {
            "exptPart": "trial",
            "trialNumber": 50,
            "roleCurrent": "receiver",
            "marblesSampled": 100,
            "probRed": 0.5,
            "practiceLambda": 5,
            "trialLambda": 0.3,
            "instructedLambda": "dishonest_small",
            "drawnRed": 42,
            "reportedRed": 42,
            "inferredRed": 37,
            "playerTrialScore": -5,
            "oppTrialScore": 0,
            "playerTotalScore": -265,
            "oppTotalScore": 1,
            "waitTime": 5207.380319713725,
            "responseTime": 1680833929072,
            "catchQuestion": "How many <b class=\"r\">red<\/b> marbles did your opponent report drawing? ",
            "catchKey": -1,
            "catchResponse": -1,
            "catchTime": 1680833929072,
            "trialTime": 0
        },
        {
            "exptPart": "trial",
            "trialNumber": 51,
            "roleCurrent": "receiver",
            "marblesSampled": 100,
            "probRed": 0.5,
            "practiceLambda": 5,
            "trialLambda": 0.3,
            "instructedLambda": "dishonest_small",
            "drawnRed": 18,
            "reportedRed": 18,
            "inferredRed": 15,
            "playerTrialScore": -3,
            "oppTrialScore": 0,
            "playerTotalScore": -268,
            "oppTotalScore": 1,
            "waitTime": 6382.166875403276,
            "responseTime": 1680833957258,
            "catchQuestion": "How many <b class=\"r\">red<\/b> marbles did your opponent report drawing? ",
            "catchKey": 18,
            "catchResponse": 18,
            "catchTime": 1680833957258,
            "trialTime": 0
        },
        {
            "exptPart": "trial",
            "trialNumber": 52,
            "roleCurrent": "receiver",
            "marblesSampled": 100,
            "probRed": 0.5,
            "practiceLambda": 5,
            "trialLambda": 0.3,
            "instructedLambda": "dishonest_small",
            "drawnRed": 29,
            "reportedRed": 29,
            "inferredRed": 24,
            "playerTrialScore": -5,
            "oppTrialScore": 0,
            "playerTotalScore": -273,
            "oppTotalScore": 1,
            "waitTime": 5437.592607208897,
            "responseTime": 1680833976703,
            "catchQuestion": "How many <b class=\"r\">red<\/b> marbles did your opponent report drawing? ",
            "catchKey": -1,
            "catchResponse": -1,
            "catchTime": 1680833957258,
            "trialTime": 0
        },
        {
            "exptPart": "trial",
            "trialNumber": 53,
            "roleCurrent": "receiver",
            "marblesSampled": 100,
            "probRed": 0.5,
            "practiceLambda": 5,
            "trialLambda": 0.3,
            "instructedLambda": "dishonest_small",
            "drawnRed": 30,
            "reportedRed": 30,
            "inferredRed": 25,
            "playerTrialScore": -5,
            "oppTrialScore": 0,
            "playerTotalScore": -278,
            "oppTotalScore": 1,
            "waitTime": 5309.251988544902,
            "responseTime": 1680833990455,
            "catchQuestion": "How many <b class=\"r\">red<\/b> marbles did your opponent report drawing? ",
            "catchKey": -1,
            "catchResponse": -1,
            "catchTime": 1680833957258,
            "trialTime": 0
        },
        {
            "exptPart": "trial",
            "trialNumber": 54,
            "roleCurrent": "receiver",
            "marblesSampled": 100,
            "probRed": 0.5,
            "practiceLambda": 5,
            "trialLambda": 0.3,
            "instructedLambda": "dishonest_small",
            "drawnRed": 42,
            "reportedRed": 42,
            "inferredRed": 36,
            "playerTrialScore": -6,
            "oppTrialScore": 0,
            "playerTotalScore": -284,
            "oppTotalScore": 1,
            "waitTime": 5485.993611724012,
            "responseTime": 1680834010943,
            "catchQuestion": "How many <b class=\"r\">red<\/b> marbles did your opponent report drawing? ",
            "catchKey": -1,
            "catchResponse": -1,
            "catchTime": 1680833957258,
            "trialTime": 0
        },
        {
            "exptPart": "trial",
            "trialNumber": 55,
            "roleCurrent": "receiver",
            "marblesSampled": 100,
            "probRed": 0.5,
            "practiceLambda": 5,
            "trialLambda": 0.3,
            "instructedLambda": "dishonest_small",
            "drawnRed": 77,
            "reportedRed": 77,
            "inferredRed": 70,
            "playerTrialScore": -7,
            "oppTrialScore": 0,
            "playerTotalScore": -291,
            "oppTotalScore": 1,
            "waitTime": 5217.770901129688,
            "responseTime": 1680834022740,
            "catchQuestion": "How many <b class=\"r\">red<\/b> marbles did your opponent report drawing? ",
            "catchKey": -1,
            "catchResponse": -1,
            "catchTime": 1680833957258,
            "trialTime": 0
        },
        {
            "exptPart": "trial",
            "trialNumber": 56,
            "roleCurrent": "receiver",
            "marblesSampled": 100,
            "probRed": 0.5,
            "practiceLambda": 5,
            "trialLambda": 0.3,
            "instructedLambda": "dishonest_small",
            "drawnRed": 75,
            "reportedRed": 76,
            "inferredRed": 69,
            "playerTrialScore": -6,
            "oppTrialScore": 0,
            "playerTotalScore": -297,
            "oppTotalScore": 1,
            "waitTime": 6819.034809869132,
            "responseTime": 1680834036839,
            "catchQuestion": "How many <b class=\"r\">red<\/b> marbles did your opponent report drawing? ",
            "catchKey": -1,
            "catchResponse": -1,
            "catchTime": 1680833957258,
            "trialTime": 0
        },
        {
            "exptPart": "trial",
            "trialNumber": 57,
            "roleCurrent": "receiver",
            "marblesSampled": 100,
            "probRed": 0.5,
            "practiceLambda": 5,
            "trialLambda": 0.3,
            "instructedLambda": "dishonest_small",
            "drawnRed": 51,
            "reportedRed": 51,
            "inferredRed": 48,
            "playerTrialScore": -3,
            "oppTrialScore": 0,
            "playerTotalScore": -300,
            "oppTotalScore": 1,
            "waitTime": 5872.099753679824,
            "responseTime": 1680834053022,
            "catchQuestion": "How many <b class=\"r\">red<\/b> marbles did your opponent report drawing? ",
            "catchKey": 51,
            "catchResponse": 51,
            "catchTime": 1680834053022,
            "trialTime": 0
        },
        {
            "exptPart": "trial",
            "trialNumber": 58,
            "roleCurrent": "receiver",
            "marblesSampled": 100,
            "probRed": 0.5,
            "practiceLambda": 5,
            "trialLambda": 0.3,
            "instructedLambda": "dishonest_small",
            "drawnRed": 36,
            "reportedRed": 36,
            "inferredRed": 31,
            "playerTrialScore": -5,
            "oppTrialScore": 0,
            "playerTotalScore": -305,
            "oppTotalScore": 1,
            "waitTime": 5821.684377161162,
            "responseTime": 1680834071937,
            "catchQuestion": "How many <b class=\"r\">red<\/b> marbles did your opponent report drawing? ",
            "catchKey": -1,
            "catchResponse": -1,
            "catchTime": 1680834053022,
            "trialTime": 0
        },
        {
            "exptPart": "trial",
            "trialNumber": 59,
            "roleCurrent": "receiver",
            "marblesSampled": 100,
            "probRed": 0.5,
            "practiceLambda": 5,
            "trialLambda": 0.3,
            "instructedLambda": "dishonest_small",
            "drawnRed": 65,
            "reportedRed": 65,
            "inferredRed": 59,
            "playerTrialScore": -6,
            "oppTrialScore": 0,
            "playerTotalScore": -311,
            "oppTotalScore": 1,
            "waitTime": 5270.26512215509,
            "responseTime": 1680834090929,
            "catchQuestion": "How many <b class=\"r\">red<\/b> marbles did your opponent report drawing? ",
            "catchKey": -1,
            "catchResponse": -1,
            "catchTime": 1680834053022,
            "trialTime": 0
        },
        {
            "exptPart": "trial",
            "trialNumber": 60,
            "roleCurrent": "receiver",
            "marblesSampled": 100,
            "probRed": 0.5,
            "practiceLambda": 5,
            "trialLambda": 0.3,
            "instructedLambda": "dishonest_small",
            "drawnRed": 29,
            "reportedRed": 30,
            "inferredRed": 27,
            "playerTrialScore": -2,
            "oppTrialScore": 0,
            "playerTotalScore": -313,
            "oppTotalScore": 1,
            "waitTime": 6292.153138473537,
            "responseTime": 1680834106848,
            "catchQuestion": "How many <b class=\"r\">red<\/b> marbles did your opponent report drawing? ",
            "catchKey": -1,
            "catchResponse": -1,
            "catchTime": 1680834106848,
            "trialTime": 0
        },
        {
            "exptPart": "trial",
            "trialNumber": 61,
            "roleCurrent": "receiver",
            "marblesSampled": 100,
            "probRed": 0.5,
            "practiceLambda": 5,
            "trialLambda": 0.3,
            "instructedLambda": "dishonest_small",
            "drawnRed": 20,
            "reportedRed": 20,
            "inferredRed": 17,
            "playerTrialScore": -3,
            "oppTrialScore": 0,
            "playerTotalScore": -316,
            "oppTotalScore": 1,
            "waitTime": 5136.096785089928,
            "responseTime": 1680834122442,
            "catchQuestion": "How many <b class=\"r\">red<\/b> marbles did your opponent report drawing? ",
            "catchKey": -1,
            "catchResponse": -1,
            "catchTime": 1680834106848,
            "trialTime": 0
        },
        {
            "exptPart": "trial",
            "trialNumber": 62,
            "roleCurrent": "receiver",
            "marblesSampled": 100,
            "probRed": 0.5,
            "practiceLambda": 5,
            "trialLambda": 0.3,
            "instructedLambda": "dishonest_small",
            "drawnRed": 46,
            "reportedRed": 46,
            "inferredRed": 41,
            "playerTrialScore": -5,
            "oppTrialScore": 0,
            "playerTotalScore": -321,
            "oppTotalScore": 1,
            "waitTime": 5971.061613479472,
            "responseTime": 1680834134577,
            "catchQuestion": "How many <b class=\"r\">red<\/b> marbles did your opponent report drawing? ",
            "catchKey": -1,
            "catchResponse": -1,
            "catchTime": 1680834106848,
            "trialTime": 0
        },
        {
            "exptPart": "trial",
            "trialNumber": 63,
            "roleCurrent": "receiver",
            "marblesSampled": 100,
            "probRed": 0.5,
            "practiceLambda": 5,
            "trialLambda": 0.3,
            "instructedLambda": "dishonest_small",
            "drawnRed": 64,
            "reportedRed": 66,
            "inferredRed": 59,
            "playerTrialScore": -5,
            "oppTrialScore": 0,
            "playerTotalScore": -326,
            "oppTotalScore": 1,
            "waitTime": 7364.446180039602,
            "responseTime": 1680834148750,
            "catchQuestion": "How many <b class=\"r\">red<\/b> marbles did your opponent report drawing? ",
            "catchKey": -1,
            "catchResponse": -1,
            "catchTime": 1680834106848,
            "trialTime": 0
        },
        {
            "exptPart": "trial",
            "trialNumber": 64,
            "roleCurrent": "receiver",
            "marblesSampled": 100,
            "probRed": 0.5,
            "practiceLambda": 5,
            "trialLambda": 0.3,
            "instructedLambda": "dishonest_small",
            "drawnRed": 64,
            "reportedRed": 64,
            "inferredRed": 59,
            "playerTrialScore": -5,
            "oppTrialScore": 0,
            "playerTotalScore": -331,
            "oppTotalScore": 1,
            "waitTime": 6951.663303607061,
            "responseTime": 1680834161608,
            "catchQuestion": "How many <b class=\"r\">red<\/b> marbles did your opponent report drawing? ",
            "catchKey": 64,
            "catchResponse": 64,
            "catchTime": 1680834161608,
            "trialTime": 0
        },
        {
            "exptPart": "trial",
            "trialNumber": 65,
            "roleCurrent": "receiver",
            "marblesSampled": 100,
            "probRed": 0.5,
            "practiceLambda": 5,
            "trialLambda": 0.3,
            "instructedLambda": "dishonest_small",
            "drawnRed": 90,
            "reportedRed": 90,
            "inferredRed": 83,
            "playerTrialScore": -7,
            "oppTrialScore": 0,
            "playerTotalScore": -338,
            "oppTotalScore": 1,
            "waitTime": 5366.061071458751,
            "responseTime": 1680834202349,
            "catchQuestion": "How many <b class=\"r\">red<\/b> marbles did your opponent report drawing? ",
            "catchKey": -1,
            "catchResponse": -1,
            "catchTime": 1680834161608,
            "trialTime": 0
        },
        {
            "exptPart": "trial",
            "trialNumber": 66,
            "roleCurrent": "receiver",
            "marblesSampled": 100,
            "probRed": 0.5,
            "practiceLambda": 5,
            "trialLambda": 0.3,
            "instructedLambda": "dishonest_small",
            "drawnRed": 27,
            "reportedRed": 27,
            "inferredRed": 22,
            "playerTrialScore": -5,
            "oppTrialScore": 0,
            "playerTotalScore": -343,
            "oppTotalScore": 1,
            "waitTime": 6701.851866058658,
            "responseTime": 1680834218163,
            "catchQuestion": "How many <b class=\"r\">red<\/b> marbles did your opponent report drawing? ",
            "catchKey": -1,
            "catchResponse": -1,
            "catchTime": 1680834161608,
            "trialTime": 0
        },
        {
            "exptPart": "trial",
            "trialNumber": 67,
            "roleCurrent": "receiver",
            "marblesSampled": 100,
            "probRed": 0.5,
            "practiceLambda": 5,
            "trialLambda": 0.3,
            "instructedLambda": "dishonest_small",
            "drawnRed": 41,
            "reportedRed": 41,
            "inferredRed": 35,
            "playerTrialScore": -6,
            "oppTrialScore": 0,
            "playerTotalScore": -349,
            "oppTotalScore": 1,
            "waitTime": 6956.931647481238,
            "responseTime": 1680834230626,
            "catchQuestion": "How many <b class=\"r\">red<\/b> marbles did your opponent report drawing? ",
            "catchKey": 41,
            "catchResponse": 41,
            "catchTime": 1680834230626,
            "trialTime": 0
        },
        {
            "exptPart": "trial",
            "trialNumber": 68,
            "roleCurrent": "receiver",
            "marblesSampled": 100,
            "probRed": 0.5,
            "practiceLambda": 5,
            "trialLambda": 0.3,
            "instructedLambda": "dishonest_small",
            "drawnRed": 69,
            "reportedRed": 69,
            "inferredRed": 61,
            "playerTrialScore": -8,
            "oppTrialScore": 0,
            "playerTotalScore": -357,
            "oppTotalScore": 1,
            "waitTime": 5437.407591877183,
            "responseTime": 1680834245215,
            "catchQuestion": "How many <b class=\"r\">red<\/b> marbles did your opponent report drawing? ",
            "catchKey": -1,
            "catchResponse": -1,
            "catchTime": 1680834230626,
            "trialTime": 0
        },
        {
            "exptPart": "trial",
            "trialNumber": 69,
            "roleCurrent": "receiver",
            "marblesSampled": 100,
            "probRed": 0.5,
            "practiceLambda": 5,
            "trialLambda": 0.3,
            "instructedLambda": "dishonest_small",
            "drawnRed": 43,
            "reportedRed": 44,
            "inferredRed": 38,
            "playerTrialScore": -5,
            "oppTrialScore": 0,
            "playerTotalScore": -362,
            "oppTotalScore": 1,
            "waitTime": 5818.972559903314,
            "responseTime": 1680834259963,
            "catchQuestion": "How many <b class=\"r\">red<\/b> marbles did your opponent report drawing? ",
            "catchKey": 44,
            "catchResponse": 44,
            "catchTime": 1680834259963,
            "trialTime": 0
        },
        {
            "exptPart": "trial",
            "trialNumber": 70,
            "roleCurrent": "receiver",
            "marblesSampled": 100,
            "probRed": 0.5,
            "practiceLambda": 5,
            "trialLambda": 0.3,
            "instructedLambda": "dishonest_small",
            "drawnRed": 21,
            "reportedRed": 22,
            "inferredRed": 38,
            "playerTrialScore": -17,
            "oppTrialScore": 17,
            "playerTotalScore": -379,
            "oppTotalScore": 18,
            "waitTime": 7166.3438387900605,
            "responseTime": 1680834275563,
            "catchQuestion": "How many <b class=\"r\">red<\/b> marbles did your opponent report drawing? ",
            "catchKey": -1,
            "catchResponse": -1,
            "catchTime": 1680834275563,
            "trialTime": 0
        },
        {
            "exptPart": "trial",
            "trialNumber": 71,
            "roleCurrent": "receiver",
            "marblesSampled": 100,
            "probRed": 0.5,
            "practiceLambda": 5,
            "trialLambda": 0.3,
            "instructedLambda": "dishonest_small",
            "drawnRed": 64,
            "reportedRed": 64,
            "inferredRed": 58,
            "playerTrialScore": -6,
            "oppTrialScore": 0,
            "playerTotalScore": -385,
            "oppTotalScore": 18,
            "waitTime": 5561.544497368155,
            "responseTime": 1680834293969,
            "catchQuestion": "How many <b class=\"r\">red<\/b> marbles did your opponent report drawing? ",
            "catchKey": -1,
            "catchResponse": -1,
            "catchTime": 1680834275563,
            "trialTime": 0
        },
        {
            "exptPart": "trial",
            "trialNumber": 72,
            "roleCurrent": "receiver",
            "marblesSampled": 100,
            "probRed": 0.5,
            "practiceLambda": 5,
            "trialLambda": 0.3,
            "instructedLambda": "dishonest_small",
            "drawnRed": 56,
            "reportedRed": 57,
            "inferredRed": 51,
            "playerTrialScore": -5,
            "oppTrialScore": 0,
            "playerTotalScore": -390,
            "oppTotalScore": 18,
            "waitTime": 5360.476786590878,
            "responseTime": 1680834303211,
            "catchQuestion": "How many <b class=\"r\">red<\/b> marbles did your opponent report drawing? ",
            "catchKey": -1,
            "catchResponse": -1,
            "catchTime": 1680834275563,
            "trialTime": 0
        },
        {
            "exptPart": "trial",
            "trialNumber": 73,
            "roleCurrent": "receiver",
            "marblesSampled": 100,
            "probRed": 0.5,
            "practiceLambda": 5,
            "trialLambda": 0.3,
            "instructedLambda": "dishonest_small",
            "drawnRed": 39,
            "reportedRed": 39,
            "inferredRed": 32,
            "playerTrialScore": -7,
            "oppTrialScore": 0,
            "playerTotalScore": -397,
            "oppTotalScore": 18,
            "waitTime": 6175.737226335329,
            "responseTime": 1680834313022,
            "catchQuestion": "How many <b class=\"r\">red<\/b> marbles did your opponent report drawing? ",
            "catchKey": -1,
            "catchResponse": -1,
            "catchTime": 1680834275563,
            "trialTime": 0
        },
        {
            "exptPart": "trial",
            "trialNumber": 74,
            "roleCurrent": "receiver",
            "marblesSampled": 100,
            "probRed": 0.5,
            "practiceLambda": 5,
            "trialLambda": 0.3,
            "instructedLambda": "dishonest_small",
            "drawnRed": 66,
            "reportedRed": 66,
            "inferredRed": 57,
            "playerTrialScore": -9,
            "oppTrialScore": 0,
            "playerTotalScore": -406,
            "oppTotalScore": 18,
            "waitTime": 6525.9289758393315,
            "responseTime": 1680834325768,
            "catchQuestion": "How many <b class=\"r\">red<\/b> marbles did your opponent report drawing? ",
            "catchKey": -1,
            "catchResponse": -1,
            "catchTime": 1680834275563,
            "trialTime": 0
        },
        {
            "exptPart": "trial",
            "trialNumber": 75,
            "roleCurrent": "receiver",
            "marblesSampled": 100,
            "probRed": 0.5,
            "practiceLambda": 5,
            "trialLambda": 0.3,
            "instructedLambda": "dishonest_small",
            "drawnRed": 37,
            "reportedRed": 37,
            "inferredRed": 34,
            "playerTrialScore": -3,
            "oppTrialScore": 0,
            "playerTotalScore": -409,
            "oppTotalScore": 18,
            "waitTime": 6104.810605926351,
            "responseTime": 1680834343598,
            "catchQuestion": "How many <b class=\"r\">red<\/b> marbles did your opponent report drawing? ",
            "catchKey": -1,
            "catchResponse": -1,
            "catchTime": 1680834275563,
            "trialTime": 0
        },
        {
            "exptPart": "trial",
            "trialNumber": 76,
            "roleCurrent": "receiver",
            "marblesSampled": 100,
            "probRed": 0.5,
            "practiceLambda": 5,
            "trialLambda": 0.3,
            "instructedLambda": "dishonest_small",
            "drawnRed": 15,
            "reportedRed": 15,
            "inferredRed": 12,
            "playerTrialScore": -3,
            "oppTrialScore": 0,
            "playerTotalScore": -412,
            "oppTotalScore": 18,
            "waitTime": 5411.544605766348,
            "responseTime": 1680834357847,
            "catchQuestion": "How many <b class=\"r\">red<\/b> marbles did your opponent report drawing? ",
            "catchKey": -1,
            "catchResponse": -1,
            "catchTime": 1680834275563,
            "trialTime": 0
        },
        {
            "exptPart": "trial",
            "trialNumber": 77,
            "roleCurrent": "receiver",
            "marblesSampled": 100,
            "probRed": 0.5,
            "practiceLambda": 5,
            "trialLambda": 0.3,
            "instructedLambda": "dishonest_small",
            "drawnRed": 47,
            "reportedRed": 47,
            "inferredRed": 39,
            "playerTrialScore": -8,
            "oppTrialScore": 0,
            "playerTotalScore": -420,
            "oppTotalScore": 18,
            "waitTime": 5905.706058959248,
            "responseTime": 1680834369780,
            "catchQuestion": "How many <b class=\"r\">red<\/b> marbles did your opponent report drawing? ",
            "catchKey": -1,
            "catchResponse": -1,
            "catchTime": 1680834275563,
            "trialTime": 0
        },
        {
            "exptPart": "trial",
            "trialNumber": 78,
            "roleCurrent": "receiver",
            "marblesSampled": 100,
            "probRed": 0.5,
            "practiceLambda": 5,
            "trialLambda": 0.3,
            "instructedLambda": "dishonest_small",
            "drawnRed": 72,
            "reportedRed": 72,
            "inferredRed": 64,
            "playerTrialScore": -8,
            "oppTrialScore": 0,
            "playerTotalScore": -428,
            "oppTotalScore": 18,
            "waitTime": 6695.402695957024,
            "responseTime": 1680834384436,
            "catchQuestion": "How many <b class=\"r\">red<\/b> marbles did your opponent report drawing? ",
            "catchKey": -1,
            "catchResponse": -1,
            "catchTime": 1680834275563,
            "trialTime": 0
        },
        {
            "exptPart": "trial",
            "trialNumber": 79,
            "roleCurrent": "receiver",
            "marblesSampled": 100,
            "probRed": 0.5,
            "practiceLambda": 5,
            "trialLambda": 0.3,
            "instructedLambda": "dishonest_small",
            "drawnRed": 26,
            "reportedRed": 26,
            "inferredRed": 19,
            "playerTrialScore": -7,
            "oppTrialScore": 0,
            "playerTotalScore": -435,
            "oppTotalScore": 18,
            "waitTime": 6226.854904958258,
            "responseTime": 1680834399197,
            "catchQuestion": "How many <b class=\"r\">red<\/b> marbles did your opponent report drawing? ",
            "catchKey": 26,
            "catchResponse": 26,
            "catchTime": 1680834399197,
            "trialTime": 0
        },
        {
            "exptPart": "trial",
            "trialNumber": 80,
            "roleCurrent": "receiver",
            "marblesSampled": 100,
            "probRed": 0.5,
            "practiceLambda": 5,
            "trialLambda": 0.3,
            "instructedLambda": "dishonest_small",
            "drawnRed": 21,
            "reportedRed": 21,
            "inferredRed": 17,
            "playerTrialScore": -4,
            "oppTrialScore": 0,
            "playerTotalScore": -439,
            "oppTotalScore": 18,
            "waitTime": 5254.239404074235,
            "responseTime": 1680834413794,
            "catchQuestion": "How many <b class=\"r\">red<\/b> marbles did your opponent report drawing? ",
            "catchKey": -1,
            "catchResponse": -1,
            "catchTime": 1680834413794,
            "trialTime": 0
        },
        {
            "exptPart": "trial",
            "trialNumber": 81,
            "roleCurrent": "receiver",
            "marblesSampled": 100,
            "probRed": 0.5,
            "practiceLambda": 5,
            "trialLambda": 0.3,
            "instructedLambda": "dishonest_small",
            "drawnRed": 27,
            "reportedRed": 27,
            "inferredRed": 21,
            "playerTrialScore": -6,
            "oppTrialScore": 0,
            "playerTotalScore": -445,
            "oppTotalScore": 18,
            "waitTime": 5280.556047559722,
            "responseTime": 1680834431676,
            "catchQuestion": "How many <b class=\"r\">red<\/b> marbles did your opponent report drawing? ",
            "catchKey": -1,
            "catchResponse": -1,
            "catchTime": 1680834413794,
            "trialTime": 0
        },
        {
            "exptPart": "trial",
            "trialNumber": 82,
            "roleCurrent": "receiver",
            "marblesSampled": 100,
            "probRed": 0.5,
            "practiceLambda": 5,
            "trialLambda": 0.3,
            "instructedLambda": "dishonest_small",
            "drawnRed": 42,
            "reportedRed": 42,
            "inferredRed": 34,
            "playerTrialScore": -8,
            "oppTrialScore": 0,
            "playerTotalScore": -453,
            "oppTotalScore": 18,
            "waitTime": 5772.948269291526,
            "responseTime": 1680834444850,
            "catchQuestion": "How many <b class=\"r\">red<\/b> marbles did your opponent report drawing? ",
            "catchKey": -1,
            "catchResponse": -1,
            "catchTime": 1680834413794,
            "trialTime": 0
        },
        {
            "exptPart": "trial",
            "trialNumber": 83,
            "roleCurrent": "receiver",
            "marblesSampled": 100,
            "probRed": 0.5,
            "practiceLambda": 5,
            "trialLambda": 0.3,
            "instructedLambda": "dishonest_small",
            "drawnRed": 81,
            "reportedRed": 81,
            "inferredRed": 73,
            "playerTrialScore": -8,
            "oppTrialScore": 0,
            "playerTotalScore": -461,
            "oppTotalScore": 18,
            "waitTime": 7362.078581629576,
            "responseTime": 1680834457769,
            "catchQuestion": "How many <b class=\"r\">red<\/b> marbles did your opponent report drawing? ",
            "catchKey": -1,
            "catchResponse": -1,
            "catchTime": 1680834413794,
            "trialTime": 0
        },
        {
            "exptPart": "trial",
            "trialNumber": 84,
            "roleCurrent": "receiver",
            "marblesSampled": 100,
            "probRed": 0.5,
            "practiceLambda": 5,
            "trialLambda": 0.3,
            "instructedLambda": "dishonest_small",
            "drawnRed": 38,
            "reportedRed": 38,
            "inferredRed": 32,
            "playerTrialScore": -6,
            "oppTrialScore": 0,
            "playerTotalScore": -467,
            "oppTotalScore": 18,
            "waitTime": 7408.9533526277055,
            "responseTime": 1680834468404,
            "catchQuestion": "How many <b class=\"r\">red<\/b> marbles did your opponent report drawing? ",
            "catchKey": -1,
            "catchResponse": -1,
            "catchTime": 1680834413794,
            "trialTime": 0
        },
        {
            "exptPart": "trial",
            "trialNumber": 85,
            "roleCurrent": "receiver",
            "marblesSampled": 100,
            "probRed": 0.5,
            "practiceLambda": 5,
            "trialLambda": 0.3,
            "instructedLambda": "dishonest_small",
            "drawnRed": 65,
            "reportedRed": 65,
            "inferredRed": 59,
            "playerTrialScore": -6,
            "oppTrialScore": 0,
            "playerTotalScore": -473,
            "oppTotalScore": 18,
            "waitTime": 6129.943275564341,
            "responseTime": 1680834479882,
            "catchQuestion": "How many <b class=\"r\">red<\/b> marbles did your opponent report drawing? ",
            "catchKey": -1,
            "catchResponse": -1,
            "catchTime": 1680834413794,
            "trialTime": 0
        },
        {
            "exptPart": "trial",
            "trialNumber": 86,
            "roleCurrent": "receiver",
            "marblesSampled": 100,
            "probRed": 0.5,
            "practiceLambda": 5,
            "trialLambda": 0.3,
            "instructedLambda": "dishonest_small",
            "drawnRed": 43,
            "reportedRed": 43,
            "inferredRed": 37,
            "playerTrialScore": -6,
            "oppTrialScore": 0,
            "playerTotalScore": -479,
            "oppTotalScore": 18,
            "waitTime": 5237.751096397695,
            "responseTime": 1680834488946,
            "catchQuestion": "How many <b class=\"r\">red<\/b> marbles did your opponent report drawing? ",
            "catchKey": -1,
            "catchResponse": -1,
            "catchTime": 1680834413794,
            "trialTime": 0
        },
        {
            "exptPart": "trial",
            "trialNumber": 87,
            "roleCurrent": "receiver",
            "marblesSampled": 100,
            "probRed": 0.5,
            "practiceLambda": 5,
            "trialLambda": 0.3,
            "instructedLambda": "dishonest_small",
            "drawnRed": 53,
            "reportedRed": 53,
            "inferredRed": 45,
            "playerTrialScore": -8,
            "oppTrialScore": 0,
            "playerTotalScore": -487,
            "oppTotalScore": 18,
            "waitTime": 7108.351417136778,
            "responseTime": 1680834501376,
            "catchQuestion": "How many <b class=\"r\">red<\/b> marbles did your opponent report drawing? ",
            "catchKey": -1,
            "catchResponse": -1,
            "catchTime": 1680834413794,
            "trialTime": 0
        },
        {
            "exptPart": "trial",
            "trialNumber": 88,
            "roleCurrent": "receiver",
            "marblesSampled": 100,
            "probRed": 0.5,
            "practiceLambda": 5,
            "trialLambda": 0.3,
            "instructedLambda": "dishonest_small",
            "drawnRed": 15,
            "reportedRed": 15,
            "inferredRed": 12,
            "playerTrialScore": -3,
            "oppTrialScore": 0,
            "playerTotalScore": -490,
            "oppTotalScore": 18,
            "waitTime": 7276.045365050581,
            "responseTime": 1680834514160,
            "catchQuestion": "How many <b class=\"r\">red<\/b> marbles did your opponent report drawing? ",
            "catchKey": -1,
            "catchResponse": -1,
            "catchTime": 1680834413794,
            "trialTime": 0
        },
        {
            "exptPart": "trial",
            "trialNumber": 89,
            "roleCurrent": "receiver",
            "marblesSampled": 100,
            "probRed": 0.5,
            "practiceLambda": 5,
            "trialLambda": 0.3,
            "instructedLambda": "dishonest_small",
            "drawnRed": 25,
            "reportedRed": 25,
            "inferredRed": 19,
            "playerTrialScore": -6,
            "oppTrialScore": 0,
            "playerTotalScore": -496,
            "oppTotalScore": 18,
            "waitTime": 7128.722163298851,
            "responseTime": 1680834525844,
            "catchQuestion": "How many <b class=\"r\">red<\/b> marbles did your opponent report drawing? ",
            "catchKey": -1,
            "catchResponse": -1,
            "catchTime": 1680834413794,
            "trialTime": 0
        },
        {
            "exptPart": "trial",
            "trialNumber": 90,
            "roleCurrent": "receiver",
            "marblesSampled": 100,
            "probRed": 0.5,
            "practiceLambda": 5,
            "trialLambda": 0.3,
            "instructedLambda": "dishonest_small",
            "drawnRed": 61,
            "reportedRed": 62,
            "inferredRed": 55,
            "playerTrialScore": -6,
            "oppTrialScore": 0,
            "playerTotalScore": -502,
            "oppTotalScore": 18,
            "waitTime": 6215.736164706643,
            "responseTime": 1680834538183,
            "catchQuestion": "How many <b class=\"r\">red<\/b> marbles did your opponent report drawing? ",
            "catchKey": -1,
            "catchResponse": -1,
            "catchTime": 1680834538183,
            "trialTime": 0
        },
        {
            "exptPart": "trial",
            "trialNumber": 91,
            "roleCurrent": "receiver",
            "marblesSampled": 100,
            "probRed": 0.5,
            "practiceLambda": 5,
            "trialLambda": 0.3,
            "instructedLambda": "dishonest_small",
            "drawnRed": 38,
            "reportedRed": 39,
            "inferredRed": 32,
            "playerTrialScore": -6,
            "oppTrialScore": 0,
            "playerTotalScore": -508,
            "oppTotalScore": 18,
            "waitTime": 6284.441808439698,
            "responseTime": 1680834556826,
            "catchQuestion": "How many <b class=\"r\">red<\/b> marbles did your opponent report drawing? ",
            "catchKey": -1,
            "catchResponse": -1,
            "catchTime": 1680834538183,
            "trialTime": 0
        },
        {
            "exptPart": "trial",
            "trialNumber": 92,
            "roleCurrent": "receiver",
            "marblesSampled": 100,
            "probRed": 0.5,
            "practiceLambda": 5,
            "trialLambda": 0.3,
            "instructedLambda": "dishonest_small",
            "drawnRed": 58,
            "reportedRed": 58,
            "inferredRed": 51,
            "playerTrialScore": -7,
            "oppTrialScore": 0,
            "playerTotalScore": -515,
            "oppTotalScore": 18,
            "waitTime": 6312.82011376037,
            "responseTime": 1680834567363,
            "catchQuestion": "How many <b class=\"r\">red<\/b> marbles did your opponent report drawing? ",
            "catchKey": -1,
            "catchResponse": -1,
            "catchTime": 1680834538183,
            "trialTime": 0
        },
        {
            "exptPart": "trial",
            "trialNumber": 93,
            "roleCurrent": "receiver",
            "marblesSampled": 100,
            "probRed": 0.5,
            "practiceLambda": 5,
            "trialLambda": 0.3,
            "instructedLambda": "dishonest_small",
            "drawnRed": 28,
            "reportedRed": 28,
            "inferredRed": 23,
            "playerTrialScore": -5,
            "oppTrialScore": 0,
            "playerTotalScore": -520,
            "oppTotalScore": 18,
            "waitTime": 6505.42316819241,
            "responseTime": 1680834578259,
            "catchQuestion": "How many <b class=\"r\">red<\/b> marbles did your opponent report drawing? ",
            "catchKey": -1,
            "catchResponse": -1,
            "catchTime": 1680834538183,
            "trialTime": 0
        },
        {
            "exptPart": "trial",
            "trialNumber": 94,
            "roleCurrent": "receiver",
            "marblesSampled": 100,
            "probRed": 0.5,
            "practiceLambda": 5,
            "trialLambda": 0.3,
            "instructedLambda": "dishonest_small",
            "drawnRed": 28,
            "reportedRed": 28,
            "inferredRed": 21,
            "playerTrialScore": -7,
            "oppTrialScore": 0,
            "playerTotalScore": -527,
            "oppTotalScore": 18,
            "waitTime": 5148.13112180986,
            "responseTime": 1680834586694,
            "catchQuestion": "How many <b class=\"r\">red<\/b> marbles did your opponent report drawing? ",
            "catchKey": -1,
            "catchResponse": -1,
            "catchTime": 1680834538183,
            "trialTime": 0
        },
        {
            "exptPart": "trial",
            "trialNumber": 95,
            "roleCurrent": "receiver",
            "marblesSampled": 100,
            "probRed": 0.5,
            "practiceLambda": 5,
            "trialLambda": 0.3,
            "instructedLambda": "dishonest_small",
            "drawnRed": 20,
            "reportedRed": 20,
            "inferredRed": 18,
            "playerTrialScore": -2,
            "oppTrialScore": 0,
            "playerTotalScore": -529,
            "oppTotalScore": 18,
            "waitTime": 5261.055289036333,
            "responseTime": 1680834595774,
            "catchQuestion": "How many <b class=\"r\">red<\/b> marbles did your opponent report drawing? ",
            "catchKey": 20,
            "catchResponse": 20,
            "catchTime": 1680834595775,
            "trialTime": 0
        },
        {
            "exptPart": "trial",
            "trialNumber": 96,
            "roleCurrent": "receiver",
            "marblesSampled": 100,
            "probRed": 0.5,
            "practiceLambda": 5,
            "trialLambda": 0.3,
            "instructedLambda": "dishonest_small",
            "drawnRed": 53,
            "reportedRed": 54,
            "inferredRed": 48,
            "playerTrialScore": -5,
            "oppTrialScore": 0,
            "playerTotalScore": -534,
            "oppTotalScore": 18,
            "waitTime": 5140.017264600799,
            "responseTime": 1680834611132,
            "catchQuestion": "How many <b class=\"r\">red<\/b> marbles did your opponent report drawing? ",
            "catchKey": -1,
            "catchResponse": -1,
            "catchTime": 1680834595775,
            "trialTime": 0
        },
        {
            "exptPart": "trial",
            "trialNumber": 97,
            "roleCurrent": "receiver",
            "marblesSampled": 100,
            "probRed": 0.5,
            "practiceLambda": 5,
            "trialLambda": 0.3,
            "instructedLambda": "dishonest_small",
            "drawnRed": 58,
            "reportedRed": 58,
            "inferredRed": 51,
            "playerTrialScore": -7,
            "oppTrialScore": 0,
            "playerTotalScore": -541,
            "oppTotalScore": 18,
            "waitTime": 6970.122923948139,
            "responseTime": 1680834622999,
            "catchQuestion": "How many <b class=\"r\">red<\/b> marbles did your opponent report drawing? ",
            "catchKey": -1,
            "catchResponse": -1,
            "catchTime": 1680834595775,
            "trialTime": 0
        },
        {
            "exptPart": "trial",
            "trialNumber": 98,
            "roleCurrent": "receiver",
            "marblesSampled": 100,
            "probRed": 0.5,
            "practiceLambda": 5,
            "trialLambda": 0.3,
            "instructedLambda": "dishonest_small",
            "drawnRed": 38,
            "reportedRed": 38,
            "inferredRed": 31,
            "playerTrialScore": -7,
            "oppTrialScore": 0,
            "playerTotalScore": -548,
            "oppTotalScore": 18,
            "waitTime": 6090.765401067719,
            "responseTime": 1680834633834,
            "catchQuestion": "How many <b class=\"r\">red<\/b> marbles did your opponent report drawing? ",
            "catchKey": -1,
            "catchResponse": -1,
            "catchTime": 1680834595775,
            "trialTime": 0
        },
        {
            "exptPart": "trial",
            "trialNumber": 99,
            "roleCurrent": "receiver",
            "marblesSampled": 100,
            "probRed": 0.5,
            "practiceLambda": 5,
            "trialLambda": 0.3,
            "instructedLambda": "dishonest_small",
            "drawnRed": 15,
            "reportedRed": 15,
            "inferredRed": 13,
            "playerTrialScore": -2,
            "oppTrialScore": 0,
            "playerTotalScore": -550,
            "oppTotalScore": 18,
            "waitTime": 5411.805990068438,
            "responseTime": 1680834642900,
            "catchQuestion": "How many <b class=\"r\">red<\/b> marbles did your opponent report drawing? ",
            "catchKey": -1,
            "catchResponse": -1,
            "catchTime": 1680834595775,
            "trialTime": 0
        },
        {
            "exptPart": "trial",
            "trialNumber": 100,
            "roleCurrent": "receiver",
            "marblesSampled": 100,
            "probRed": 0.5,
            "practiceLambda": 5,
            "trialLambda": 0.3,
            "instructedLambda": "dishonest_small",
            "drawnRed": 49,
            "reportedRed": 49,
            "inferredRed": 41,
            "playerTrialScore": -8,
            "oppTrialScore": 0,
            "playerTotalScore": -558,
            "oppTotalScore": 18,
            "waitTime": 7363.792123809941,
            "responseTime": 1680834655612,
            "catchQuestion": "How many <b class=\"r\">red<\/b> marbles did your opponent report drawing? ",
            "catchKey": -1,
            "catchResponse": -1,
            "catchTime": 1680834655612,
            "trialTime": 0
        }
    ]
}