{
    "client": {
        "type": "sona",
        "experiment_id": 2228,
        "credit_token": "b315147ae43241ea9c65086cb510cfb7",
        "survey_code": "36211",
        "sid": "sona-36211",
        "window": {
            "width": 1470,
            "height": 809
        },
        "screen": {
            "width": 1470,
            "height": 956
        },
        "userAgent": "Mozilla\/5.0 (Macintosh; Intel Mac OS X 10_15_7) AppleWebKit\/537.36 (KHTML, like Gecko) Chrome\/110.0.0.0 Safari\/537.36",
        "score": 0,
        "bonus": 0
    },
    "expt": {
        "saveURL": "submit.simple.php",
        "trials": 100,
        "practiceTrials": 2,
        "marblesSampled": 100,
        "probRed": 0.5,
        "practiceLambdaAI": 5,
        "lambdaAI": 21.9,
        "roles": [
            "sender",
            "receiver"
        ],
        "cost": "unif",
        "goal": "over",
        "oppDishonesty": "dishonest_big",
        "catchTrials": [
            17,
            40,
            85,
            80,
            6,
            10,
            62,
            87,
            82,
            53
        ],
        "scoreTotal": {
            "player": -1692,
            "opp": 1119
        },
        "sona": {
            "experiment_id": 2228,
            "credit_token": "b315147ae43241ea9c65086cb510cfb7"
        },
        "pilot": false,
        "debug": false
    },
    "trials": [
        {
            "exptPart": "practice",
            "trialNumber": 1,
            "roleCurrent": "sender",
            "marblesSampled": 100,
            "probRed": 0.5,
            "practiceLambda": 5,
            "trialLambda": 21.9,
            "instructedLambda": "dishonest_big",
            "drawnRed": 45,
            "reportedRed": 53,
            "inferredRed": 49,
            "playerTrialScore": 4,
            "oppTrialScore": -4,
            "playerTotalScore": 4,
            "oppTotalScore": -4,
            "waitTime": 3034.0174911598933,
            "responseTime": 1681185859197,
            "catchQuestion": "How many <b class=\"r\">red<\/b> marbles did you actually draw (before any changes)? ",
            "catchKey": 45,
            "catchResponse": 45,
            "catchTime": 1681185859197,
            "trialTime": 0
        },
        {
            "exptPart": "practice",
            "trialNumber": 2,
            "roleCurrent": "receiver",
            "marblesSampled": 100,
            "probRed": 0.5,
            "practiceLambda": 5,
            "trialLambda": 21.9,
            "instructedLambda": "dishonest_big",
            "drawnRed": 44,
            "reportedRed": 48,
            "inferredRed": 48,
            "playerTrialScore": -4,
            "oppTrialScore": 4,
            "playerTotalScore": 0,
            "oppTotalScore": 0,
            "waitTime": 5560.927591942384,
            "responseTime": 1681185931569,
            "catchQuestion": "How many <b class=\"r\">red<\/b> marbles did your opponent report drawing? ",
            "catchKey": 48,
            "catchResponse": 48,
            "catchTime": 1681185931569,
            "trialTime": 0
        },
        {
            "exptPart": "trial",
            "trialNumber": 1,
            "roleCurrent": "receiver",
            "marblesSampled": 100,
            "probRed": 0.5,
            "practiceLambda": 5,
            "trialLambda": 21.9,
            "instructedLambda": "dishonest_big",
            "drawnRed": 37,
            "reportedRed": 63,
            "inferredRed": 57,
            "playerTrialScore": -20,
            "oppTrialScore": 20,
            "playerTotalScore": -20,
            "oppTotalScore": 20,
            "waitTime": 7200.276052638018,
            "responseTime": 1681185993020,
            "catchQuestion": "How many <b class=\"r\">red<\/b> marbles did your opponent report drawing? ",
            "catchKey": -1,
            "catchResponse": -1,
            "catchTime": 1681185931569,
            "trialTime": 0
        },
        {
            "exptPart": "trial",
            "trialNumber": 2,
            "roleCurrent": "receiver",
            "marblesSampled": 100,
            "probRed": 0.5,
            "practiceLambda": 5,
            "trialLambda": 21.9,
            "instructedLambda": "dishonest_big",
            "drawnRed": 11,
            "reportedRed": 38,
            "inferredRed": 45,
            "playerTrialScore": -34,
            "oppTrialScore": 34,
            "playerTotalScore": -54,
            "oppTotalScore": 54,
            "waitTime": 7394.8266614480635,
            "responseTime": 1681186006940,
            "catchQuestion": "How many <b class=\"r\">red<\/b> marbles did your opponent report drawing? ",
            "catchKey": -1,
            "catchResponse": -1,
            "catchTime": 1681185931569,
            "trialTime": 0
        },
        {
            "exptPart": "trial",
            "trialNumber": 3,
            "roleCurrent": "receiver",
            "marblesSampled": 100,
            "probRed": 0.5,
            "practiceLambda": 5,
            "trialLambda": 21.9,
            "instructedLambda": "dishonest_big",
            "drawnRed": 79,
            "reportedRed": 98,
            "inferredRed": 98,
            "playerTrialScore": -19,
            "oppTrialScore": 19,
            "playerTotalScore": -73,
            "oppTotalScore": 73,
            "waitTime": 6252.487962721969,
            "responseTime": 1681186031660,
            "catchQuestion": "How many <b class=\"r\">red<\/b> marbles did your opponent report drawing? ",
            "catchKey": -1,
            "catchResponse": -1,
            "catchTime": 1681185931569,
            "trialTime": 0
        },
        {
            "exptPart": "trial",
            "trialNumber": 4,
            "roleCurrent": "receiver",
            "marblesSampled": 100,
            "probRed": 0.5,
            "practiceLambda": 5,
            "trialLambda": 21.9,
            "instructedLambda": "dishonest_big",
            "drawnRed": 67,
            "reportedRed": 91,
            "inferredRed": 86,
            "playerTrialScore": -19,
            "oppTrialScore": 19,
            "playerTotalScore": -92,
            "oppTotalScore": 92,
            "waitTime": 6576.984074050726,
            "responseTime": 1681186047861,
            "catchQuestion": "How many <b class=\"r\">red<\/b> marbles did your opponent report drawing? ",
            "catchKey": -1,
            "catchResponse": -1,
            "catchTime": 1681185931569,
            "trialTime": 0
        },
        {
            "exptPart": "trial",
            "trialNumber": 5,
            "roleCurrent": "receiver",
            "marblesSampled": 100,
            "probRed": 0.5,
            "practiceLambda": 5,
            "trialLambda": 21.9,
            "instructedLambda": "dishonest_big",
            "drawnRed": 46,
            "reportedRed": 70,
            "inferredRed": 70,
            "playerTrialScore": -24,
            "oppTrialScore": 24,
            "playerTotalScore": -116,
            "oppTotalScore": 116,
            "waitTime": 7251.248129351651,
            "responseTime": 1681186077429,
            "catchQuestion": "How many <b class=\"r\">red<\/b> marbles did your opponent report drawing? ",
            "catchKey": -1,
            "catchResponse": -1,
            "catchTime": 1681185931569,
            "trialTime": 0
        },
        {
            "exptPart": "trial",
            "trialNumber": 6,
            "roleCurrent": "receiver",
            "marblesSampled": 100,
            "probRed": 0.5,
            "practiceLambda": 5,
            "trialLambda": 21.9,
            "instructedLambda": "dishonest_big",
            "drawnRed": 75,
            "reportedRed": 99,
            "inferredRed": 99,
            "playerTrialScore": -24,
            "oppTrialScore": 24,
            "playerTotalScore": -140,
            "oppTotalScore": 140,
            "waitTime": 5763.811442786402,
            "responseTime": 1681186097981,
            "catchQuestion": "How many <b class=\"r\">red<\/b> marbles did your opponent report drawing? ",
            "catchKey": -1,
            "catchResponse": -1,
            "catchTime": 1681185931569,
            "trialTime": 0
        },
        {
            "exptPart": "trial",
            "trialNumber": 7,
            "roleCurrent": "receiver",
            "marblesSampled": 100,
            "probRed": 0.5,
            "practiceLambda": 5,
            "trialLambda": 21.9,
            "instructedLambda": "dishonest_big",
            "drawnRed": 27,
            "reportedRed": 49,
            "inferredRed": 55,
            "playerTrialScore": -28,
            "oppTrialScore": 28,
            "playerTotalScore": -168,
            "oppTotalScore": 168,
            "waitTime": 5441.38036546947,
            "responseTime": 1681186116649,
            "catchQuestion": "How many <b class=\"r\">red<\/b> marbles did your opponent report drawing? ",
            "catchKey": 49,
            "catchResponse": 49,
            "catchTime": 1681186116649,
            "trialTime": 0
        },
        {
            "exptPart": "trial",
            "trialNumber": 8,
            "roleCurrent": "receiver",
            "marblesSampled": 100,
            "probRed": 0.5,
            "practiceLambda": 5,
            "trialLambda": 21.9,
            "instructedLambda": "dishonest_big",
            "drawnRed": 52,
            "reportedRed": 69,
            "inferredRed": 67,
            "playerTrialScore": -15,
            "oppTrialScore": 15,
            "playerTotalScore": -183,
            "oppTotalScore": 183,
            "waitTime": 5622.446386105821,
            "responseTime": 1681186151369,
            "catchQuestion": "How many <b class=\"r\">red<\/b> marbles did your opponent report drawing? ",
            "catchKey": -1,
            "catchResponse": -1,
            "catchTime": 1681186116649,
            "trialTime": 0
        },
        {
            "exptPart": "trial",
            "trialNumber": 9,
            "roleCurrent": "receiver",
            "marblesSampled": 100,
            "probRed": 0.5,
            "practiceLambda": 5,
            "trialLambda": 21.9,
            "instructedLambda": "dishonest_big",
            "drawnRed": 55,
            "reportedRed": 86,
            "inferredRed": 84,
            "playerTrialScore": -29,
            "oppTrialScore": 29,
            "playerTotalScore": -212,
            "oppTotalScore": 212,
            "waitTime": 5183.653685144851,
            "responseTime": 1681186170416,
            "catchQuestion": "How many <b class=\"r\">red<\/b> marbles did your opponent report drawing? ",
            "catchKey": -1,
            "catchResponse": -1,
            "catchTime": 1681186116649,
            "trialTime": 0
        },
        {
            "exptPart": "trial",
            "trialNumber": 10,
            "roleCurrent": "receiver",
            "marblesSampled": 100,
            "probRed": 0.5,
            "practiceLambda": 5,
            "trialLambda": 21.9,
            "instructedLambda": "dishonest_big",
            "drawnRed": 40,
            "reportedRed": 58,
            "inferredRed": 58,
            "playerTrialScore": -18,
            "oppTrialScore": 18,
            "playerTotalScore": -230,
            "oppTotalScore": 230,
            "waitTime": 6321.518606069023,
            "responseTime": 1681186181354,
            "catchQuestion": "How many <b class=\"r\">red<\/b> marbles did your opponent report drawing? ",
            "catchKey": -1,
            "catchResponse": -1,
            "catchTime": 1681186181354,
            "trialTime": 0
        },
        {
            "exptPart": "trial",
            "trialNumber": 11,
            "roleCurrent": "receiver",
            "marblesSampled": 100,
            "probRed": 0.5,
            "practiceLambda": 5,
            "trialLambda": 21.9,
            "instructedLambda": "dishonest_big",
            "drawnRed": 25,
            "reportedRed": 48,
            "inferredRed": 45,
            "playerTrialScore": -20,
            "oppTrialScore": 20,
            "playerTotalScore": -250,
            "oppTotalScore": 250,
            "waitTime": 5931.396369965636,
            "responseTime": 1681186204705,
            "catchQuestion": "How many <b class=\"r\">red<\/b> marbles did your opponent report drawing? ",
            "catchKey": 48,
            "catchResponse": 48,
            "catchTime": 1681186204705,
            "trialTime": 0
        },
        {
            "exptPart": "trial",
            "trialNumber": 12,
            "roleCurrent": "receiver",
            "marblesSampled": 100,
            "probRed": 0.5,
            "practiceLambda": 5,
            "trialLambda": 21.9,
            "instructedLambda": "dishonest_big",
            "drawnRed": 63,
            "reportedRed": 85,
            "inferredRed": 55,
            "playerTrialScore": -8,
            "oppTrialScore": 0,
            "playerTotalScore": -258,
            "oppTotalScore": 250,
            "waitTime": 5559.5387556940605,
            "responseTime": 1681186221405,
            "catchQuestion": "How many <b class=\"r\">red<\/b> marbles did your opponent report drawing? ",
            "catchKey": -1,
            "catchResponse": -1,
            "catchTime": 1681186204705,
            "trialTime": 0
        },
        {
            "exptPart": "trial",
            "trialNumber": 13,
            "roleCurrent": "receiver",
            "marblesSampled": 100,
            "probRed": 0.5,
            "practiceLambda": 5,
            "trialLambda": 21.9,
            "instructedLambda": "dishonest_big",
            "drawnRed": 18,
            "reportedRed": 39,
            "inferredRed": 45,
            "playerTrialScore": -27,
            "oppTrialScore": 27,
            "playerTotalScore": -285,
            "oppTotalScore": 277,
            "waitTime": 5957.83343325293,
            "responseTime": 1681186234538,
            "catchQuestion": "How many <b class=\"r\">red<\/b> marbles did your opponent report drawing? ",
            "catchKey": -1,
            "catchResponse": -1,
            "catchTime": 1681186204705,
            "trialTime": 0
        },
        {
            "exptPart": "trial",
            "trialNumber": 14,
            "roleCurrent": "receiver",
            "marblesSampled": 100,
            "probRed": 0.5,
            "practiceLambda": 5,
            "trialLambda": 21.9,
            "instructedLambda": "dishonest_big",
            "drawnRed": 30,
            "reportedRed": 52,
            "inferredRed": 49,
            "playerTrialScore": -19,
            "oppTrialScore": 19,
            "playerTotalScore": -304,
            "oppTotalScore": 296,
            "waitTime": 6326.870005979406,
            "responseTime": 1681186245591,
            "catchQuestion": "How many <b class=\"r\">red<\/b> marbles did your opponent report drawing? ",
            "catchKey": -1,
            "catchResponse": -1,
            "catchTime": 1681186204705,
            "trialTime": 0
        },
        {
            "exptPart": "trial",
            "trialNumber": 15,
            "roleCurrent": "receiver",
            "marblesSampled": 100,
            "probRed": 0.5,
            "practiceLambda": 5,
            "trialLambda": 21.9,
            "instructedLambda": "dishonest_big",
            "drawnRed": 55,
            "reportedRed": 73,
            "inferredRed": 50,
            "playerTrialScore": -5,
            "oppTrialScore": 0,
            "playerTotalScore": -309,
            "oppTotalScore": 296,
            "waitTime": 6797.990625760614,
            "responseTime": 1681186259158,
            "catchQuestion": "How many <b class=\"r\">red<\/b> marbles did your opponent report drawing? ",
            "catchKey": -1,
            "catchResponse": -1,
            "catchTime": 1681186204705,
            "trialTime": 0
        },
        {
            "exptPart": "trial",
            "trialNumber": 16,
            "roleCurrent": "receiver",
            "marblesSampled": 100,
            "probRed": 0.5,
            "practiceLambda": 5,
            "trialLambda": 21.9,
            "instructedLambda": "dishonest_big",
            "drawnRed": 36,
            "reportedRed": 59,
            "inferredRed": 47,
            "playerTrialScore": -11,
            "oppTrialScore": 11,
            "playerTotalScore": -320,
            "oppTotalScore": 307,
            "waitTime": 7141.753981459043,
            "responseTime": 1681186273126,
            "catchQuestion": "How many <b class=\"r\">red<\/b> marbles did your opponent report drawing? ",
            "catchKey": -1,
            "catchResponse": -1,
            "catchTime": 1681186204705,
            "trialTime": 0
        },
        {
            "exptPart": "trial",
            "trialNumber": 17,
            "roleCurrent": "receiver",
            "marblesSampled": 100,
            "probRed": 0.5,
            "practiceLambda": 5,
            "trialLambda": 21.9,
            "instructedLambda": "dishonest_big",
            "drawnRed": 33,
            "reportedRed": 58,
            "inferredRed": 48,
            "playerTrialScore": -15,
            "oppTrialScore": 15,
            "playerTotalScore": -335,
            "oppTotalScore": 322,
            "waitTime": 5784.513529155451,
            "responseTime": 1681186286893,
            "catchQuestion": "How many <b class=\"r\">red<\/b> marbles did your opponent report drawing? ",
            "catchKey": -1,
            "catchResponse": -1,
            "catchTime": 1681186204705,
            "trialTime": 0
        },
        {
            "exptPart": "trial",
            "trialNumber": 18,
            "roleCurrent": "receiver",
            "marblesSampled": 100,
            "probRed": 0.5,
            "practiceLambda": 5,
            "trialLambda": 21.9,
            "instructedLambda": "dishonest_big",
            "drawnRed": 13,
            "reportedRed": 34,
            "inferredRed": 40,
            "playerTrialScore": -27,
            "oppTrialScore": 27,
            "playerTotalScore": -362,
            "oppTotalScore": 349,
            "waitTime": 7263.653866413588,
            "responseTime": 1681186298277,
            "catchQuestion": "How many <b class=\"r\">red<\/b> marbles did your opponent report drawing? ",
            "catchKey": 34,
            "catchResponse": 34,
            "catchTime": 1681186298277,
            "trialTime": 0
        },
        {
            "exptPart": "trial",
            "trialNumber": 19,
            "roleCurrent": "receiver",
            "marblesSampled": 100,
            "probRed": 0.5,
            "practiceLambda": 5,
            "trialLambda": 21.9,
            "instructedLambda": "dishonest_big",
            "drawnRed": 38,
            "reportedRed": 67,
            "inferredRed": 56,
            "playerTrialScore": -18,
            "oppTrialScore": 18,
            "playerTotalScore": -380,
            "oppTotalScore": 367,
            "waitTime": 7422.792635436046,
            "responseTime": 1681186315080,
            "catchQuestion": "How many <b class=\"r\">red<\/b> marbles did your opponent report drawing? ",
            "catchKey": -1,
            "catchResponse": -1,
            "catchTime": 1681186298277,
            "trialTime": 0
        },
        {
            "exptPart": "trial",
            "trialNumber": 20,
            "roleCurrent": "receiver",
            "marblesSampled": 100,
            "probRed": 0.5,
            "practiceLambda": 5,
            "trialLambda": 21.9,
            "instructedLambda": "dishonest_big",
            "drawnRed": 56,
            "reportedRed": 77,
            "inferredRed": 48,
            "playerTrialScore": -8,
            "oppTrialScore": 0,
            "playerTotalScore": -388,
            "oppTotalScore": 367,
            "waitTime": 5897.551051685707,
            "responseTime": 1681186325845,
            "catchQuestion": "How many <b class=\"r\">red<\/b> marbles did your opponent report drawing? ",
            "catchKey": -1,
            "catchResponse": -1,
            "catchTime": 1681186325845,
            "trialTime": 0
        },
        {
            "exptPart": "trial",
            "trialNumber": 21,
            "roleCurrent": "receiver",
            "marblesSampled": 100,
            "probRed": 0.5,
            "practiceLambda": 5,
            "trialLambda": 21.9,
            "instructedLambda": "dishonest_big",
            "drawnRed": 61,
            "reportedRed": 88,
            "inferredRed": 70,
            "playerTrialScore": -9,
            "oppTrialScore": 9,
            "playerTotalScore": -397,
            "oppTotalScore": 376,
            "waitTime": 5505.273942801254,
            "responseTime": 1681186339578,
            "catchQuestion": "How many <b class=\"r\">red<\/b> marbles did your opponent report drawing? ",
            "catchKey": -1,
            "catchResponse": -1,
            "catchTime": 1681186325845,
            "trialTime": 0
        },
        {
            "exptPart": "trial",
            "trialNumber": 22,
            "roleCurrent": "receiver",
            "marblesSampled": 100,
            "probRed": 0.5,
            "practiceLambda": 5,
            "trialLambda": 21.9,
            "instructedLambda": "dishonest_big",
            "drawnRed": 8,
            "reportedRed": 35,
            "inferredRed": 55,
            "playerTrialScore": -47,
            "oppTrialScore": 47,
            "playerTotalScore": -444,
            "oppTotalScore": 423,
            "waitTime": 5456.748054013411,
            "responseTime": 1681186356381,
            "catchQuestion": "How many <b class=\"r\">red<\/b> marbles did your opponent report drawing? ",
            "catchKey": -1,
            "catchResponse": -1,
            "catchTime": 1681186325845,
            "trialTime": 0
        },
        {
            "exptPart": "trial",
            "trialNumber": 23,
            "roleCurrent": "receiver",
            "marblesSampled": 100,
            "probRed": 0.5,
            "practiceLambda": 5,
            "trialLambda": 21.9,
            "instructedLambda": "dishonest_big",
            "drawnRed": 54,
            "reportedRed": 67,
            "inferredRed": 56,
            "playerTrialScore": -2,
            "oppTrialScore": 2,
            "playerTotalScore": -446,
            "oppTotalScore": 425,
            "waitTime": 5239.7319648517605,
            "responseTime": 1681186372666,
            "catchQuestion": "How many <b class=\"r\">red<\/b> marbles did your opponent report drawing? ",
            "catchKey": -1,
            "catchResponse": -1,
            "catchTime": 1681186325845,
            "trialTime": 0
        },
        {
            "exptPart": "trial",
            "trialNumber": 24,
            "roleCurrent": "receiver",
            "marblesSampled": 100,
            "probRed": 0.5,
            "practiceLambda": 5,
            "trialLambda": 21.9,
            "instructedLambda": "dishonest_big",
            "drawnRed": 33,
            "reportedRed": 51,
            "inferredRed": 48,
            "playerTrialScore": -15,
            "oppTrialScore": 15,
            "playerTotalScore": -461,
            "oppTotalScore": 440,
            "waitTime": 5686.656705159469,
            "responseTime": 1681186386566,
            "catchQuestion": "How many <b class=\"r\">red<\/b> marbles did your opponent report drawing? ",
            "catchKey": -1,
            "catchResponse": -1,
            "catchTime": 1681186325845,
            "trialTime": 0
        },
        {
            "exptPart": "trial",
            "trialNumber": 25,
            "roleCurrent": "receiver",
            "marblesSampled": 100,
            "probRed": 0.5,
            "practiceLambda": 5,
            "trialLambda": 21.9,
            "instructedLambda": "dishonest_big",
            "drawnRed": 71,
            "reportedRed": 99,
            "inferredRed": 57,
            "playerTrialScore": -14,
            "oppTrialScore": 0,
            "playerTotalScore": -475,
            "oppTotalScore": 440,
            "waitTime": 7012.236759199615,
            "responseTime": 1681186399916,
            "catchQuestion": "How many <b class=\"r\">red<\/b> marbles did your opponent report drawing? ",
            "catchKey": -1,
            "catchResponse": -1,
            "catchTime": 1681186325845,
            "trialTime": 0
        },
        {
            "exptPart": "trial",
            "trialNumber": 26,
            "roleCurrent": "receiver",
            "marblesSampled": 100,
            "probRed": 0.5,
            "practiceLambda": 5,
            "trialLambda": 21.9,
            "instructedLambda": "dishonest_big",
            "drawnRed": 58,
            "reportedRed": 80,
            "inferredRed": 60,
            "playerTrialScore": -2,
            "oppTrialScore": 2,
            "playerTotalScore": -477,
            "oppTotalScore": 442,
            "waitTime": 5782.706143674117,
            "responseTime": 1681186410218,
            "catchQuestion": "How many <b class=\"r\">red<\/b> marbles did your opponent report drawing? ",
            "catchKey": -1,
            "catchResponse": -1,
            "catchTime": 1681186325845,
            "trialTime": 0
        },
        {
            "exptPart": "trial",
            "trialNumber": 27,
            "roleCurrent": "receiver",
            "marblesSampled": 100,
            "probRed": 0.5,
            "practiceLambda": 5,
            "trialLambda": 21.9,
            "instructedLambda": "dishonest_big",
            "drawnRed": 47,
            "reportedRed": 75,
            "inferredRed": 70,
            "playerTrialScore": -23,
            "oppTrialScore": 23,
            "playerTotalScore": -500,
            "oppTotalScore": 465,
            "waitTime": 5352.465906246195,
            "responseTime": 1681186420651,
            "catchQuestion": "How many <b class=\"r\">red<\/b> marbles did your opponent report drawing? ",
            "catchKey": -1,
            "catchResponse": -1,
            "catchTime": 1681186325845,
            "trialTime": 0
        },
        {
            "exptPart": "trial",
            "trialNumber": 28,
            "roleCurrent": "receiver",
            "marblesSampled": 100,
            "probRed": 0.5,
            "practiceLambda": 5,
            "trialLambda": 21.9,
            "instructedLambda": "dishonest_big",
            "drawnRed": 64,
            "reportedRed": 90,
            "inferredRed": 55,
            "playerTrialScore": -9,
            "oppTrialScore": 0,
            "playerTotalScore": -509,
            "oppTotalScore": 465,
            "waitTime": 5154.170280657087,
            "responseTime": 1681186433403,
            "catchQuestion": "How many <b class=\"r\">red<\/b> marbles did your opponent report drawing? ",
            "catchKey": -1,
            "catchResponse": -1,
            "catchTime": 1681186325845,
            "trialTime": 0
        },
        {
            "exptPart": "trial",
            "trialNumber": 29,
            "roleCurrent": "receiver",
            "marblesSampled": 100,
            "probRed": 0.5,
            "practiceLambda": 5,
            "trialLambda": 21.9,
            "instructedLambda": "dishonest_big",
            "drawnRed": 28,
            "reportedRed": 52,
            "inferredRed": 52,
            "playerTrialScore": -24,
            "oppTrialScore": 24,
            "playerTotalScore": -533,
            "oppTotalScore": 489,
            "waitTime": 6080.958992246871,
            "responseTime": 1681186445421,
            "catchQuestion": "How many <b class=\"r\">red<\/b> marbles did your opponent report drawing? ",
            "catchKey": -1,
            "catchResponse": -1,
            "catchTime": 1681186325845,
            "trialTime": 0
        },
        {
            "exptPart": "trial",
            "trialNumber": 30,
            "roleCurrent": "receiver",
            "marblesSampled": 100,
            "probRed": 0.5,
            "practiceLambda": 5,
            "trialLambda": 21.9,
            "instructedLambda": "dishonest_big",
            "drawnRed": 74,
            "reportedRed": 97,
            "inferredRed": 60,
            "playerTrialScore": -14,
            "oppTrialScore": 0,
            "playerTotalScore": -547,
            "oppTotalScore": 489,
            "waitTime": 6171.514166403636,
            "responseTime": 1681186457690,
            "catchQuestion": "How many <b class=\"r\">red<\/b> marbles did your opponent report drawing? ",
            "catchKey": -1,
            "catchResponse": -1,
            "catchTime": 1681186457690,
            "trialTime": 0
        },
        {
            "exptPart": "trial",
            "trialNumber": 31,
            "roleCurrent": "receiver",
            "marblesSampled": 100,
            "probRed": 0.5,
            "practiceLambda": 5,
            "trialLambda": 21.9,
            "instructedLambda": "dishonest_big",
            "drawnRed": 86,
            "reportedRed": 100,
            "inferredRed": 68,
            "playerTrialScore": -18,
            "oppTrialScore": 0,
            "playerTotalScore": -565,
            "oppTotalScore": 489,
            "waitTime": 6769.790564064853,
            "responseTime": 1681186487272,
            "catchQuestion": "How many <b class=\"r\">red<\/b> marbles did your opponent report drawing? ",
            "catchKey": -1,
            "catchResponse": -1,
            "catchTime": 1681186457690,
            "trialTime": 0
        },
        {
            "exptPart": "trial",
            "trialNumber": 32,
            "roleCurrent": "receiver",
            "marblesSampled": 100,
            "probRed": 0.5,
            "practiceLambda": 5,
            "trialLambda": 21.9,
            "instructedLambda": "dishonest_big",
            "drawnRed": 46,
            "reportedRed": 77,
            "inferredRed": 77,
            "playerTrialScore": -31,
            "oppTrialScore": 31,
            "playerTotalScore": -596,
            "oppTotalScore": 520,
            "waitTime": 5417.6215162883545,
            "responseTime": 1681186496607,
            "catchQuestion": "How many <b class=\"r\">red<\/b> marbles did your opponent report drawing? ",
            "catchKey": -1,
            "catchResponse": -1,
            "catchTime": 1681186457690,
            "trialTime": 0
        },
        {
            "exptPart": "trial",
            "trialNumber": 33,
            "roleCurrent": "receiver",
            "marblesSampled": 100,
            "probRed": 0.5,
            "practiceLambda": 5,
            "trialLambda": 21.9,
            "instructedLambda": "dishonest_big",
            "drawnRed": 69,
            "reportedRed": 97,
            "inferredRed": 59,
            "playerTrialScore": -10,
            "oppTrialScore": 0,
            "playerTotalScore": -606,
            "oppTotalScore": 520,
            "waitTime": 5583.909303740226,
            "responseTime": 1681186510790,
            "catchQuestion": "How many <b class=\"r\">red<\/b> marbles did your opponent report drawing? ",
            "catchKey": -1,
            "catchResponse": -1,
            "catchTime": 1681186457690,
            "trialTime": 0
        },
        {
            "exptPart": "trial",
            "trialNumber": 34,
            "roleCurrent": "receiver",
            "marblesSampled": 100,
            "probRed": 0.5,
            "practiceLambda": 5,
            "trialLambda": 21.9,
            "instructedLambda": "dishonest_big",
            "drawnRed": 57,
            "reportedRed": 81,
            "inferredRed": 77,
            "playerTrialScore": -20,
            "oppTrialScore": 20,
            "playerTotalScore": -626,
            "oppTotalScore": 540,
            "waitTime": 7256.84328303029,
            "responseTime": 1681186523609,
            "catchQuestion": "How many <b class=\"r\">red<\/b> marbles did your opponent report drawing? ",
            "catchKey": -1,
            "catchResponse": -1,
            "catchTime": 1681186457690,
            "trialTime": 0
        },
        {
            "exptPart": "trial",
            "trialNumber": 35,
            "roleCurrent": "receiver",
            "marblesSampled": 100,
            "probRed": 0.5,
            "practiceLambda": 5,
            "trialLambda": 21.9,
            "instructedLambda": "dishonest_big",
            "drawnRed": 41,
            "reportedRed": 69,
            "inferredRed": 66,
            "playerTrialScore": -25,
            "oppTrialScore": 25,
            "playerTotalScore": -651,
            "oppTotalScore": 565,
            "waitTime": 6435.022981461003,
            "responseTime": 1681186540177,
            "catchQuestion": "How many <b class=\"r\">red<\/b> marbles did your opponent report drawing? ",
            "catchKey": -1,
            "catchResponse": -1,
            "catchTime": 1681186457690,
            "trialTime": 0
        },
        {
            "exptPart": "trial",
            "trialNumber": 36,
            "roleCurrent": "receiver",
            "marblesSampled": 100,
            "probRed": 0.5,
            "practiceLambda": 5,
            "trialLambda": 21.9,
            "instructedLambda": "dishonest_big",
            "drawnRed": 54,
            "reportedRed": 74,
            "inferredRed": 70,
            "playerTrialScore": -16,
            "oppTrialScore": 16,
            "playerTotalScore": -667,
            "oppTotalScore": 581,
            "waitTime": 5210.645196687783,
            "responseTime": 1681186549361,
            "catchQuestion": "How many <b class=\"r\">red<\/b> marbles did your opponent report drawing? ",
            "catchKey": -1,
            "catchResponse": -1,
            "catchTime": 1681186457690,
            "trialTime": 0
        },
        {
            "exptPart": "trial",
            "trialNumber": 37,
            "roleCurrent": "receiver",
            "marblesSampled": 100,
            "probRed": 0.5,
            "practiceLambda": 5,
            "trialLambda": 21.9,
            "instructedLambda": "dishonest_big",
            "drawnRed": 19,
            "reportedRed": 42,
            "inferredRed": 53,
            "playerTrialScore": -34,
            "oppTrialScore": 34,
            "playerTotalScore": -701,
            "oppTotalScore": 615,
            "waitTime": 5909.560168685234,
            "responseTime": 1681186559309,
            "catchQuestion": "How many <b class=\"r\">red<\/b> marbles did your opponent report drawing? ",
            "catchKey": -1,
            "catchResponse": -1,
            "catchTime": 1681186457690,
            "trialTime": 0
        },
        {
            "exptPart": "trial",
            "trialNumber": 38,
            "roleCurrent": "receiver",
            "marblesSampled": 100,
            "probRed": 0.5,
            "practiceLambda": 5,
            "trialLambda": 21.9,
            "instructedLambda": "dishonest_big",
            "drawnRed": 83,
            "reportedRed": 100,
            "inferredRed": 80,
            "playerTrialScore": -3,
            "oppTrialScore": 0,
            "playerTotalScore": -704,
            "oppTotalScore": 615,
            "waitTime": 6440.511312264831,
            "responseTime": 1681186573378,
            "catchQuestion": "How many <b class=\"r\">red<\/b> marbles did your opponent report drawing? ",
            "catchKey": -1,
            "catchResponse": -1,
            "catchTime": 1681186457690,
            "trialTime": 0
        },
        {
            "exptPart": "trial",
            "trialNumber": 39,
            "roleCurrent": "receiver",
            "marblesSampled": 100,
            "probRed": 0.5,
            "practiceLambda": 5,
            "trialLambda": 21.9,
            "instructedLambda": "dishonest_big",
            "drawnRed": 30,
            "reportedRed": 52,
            "inferredRed": 48,
            "playerTrialScore": -18,
            "oppTrialScore": 18,
            "playerTotalScore": -722,
            "oppTotalScore": 633,
            "waitTime": 5865.691887127572,
            "responseTime": 1681186584130,
            "catchQuestion": "How many <b class=\"r\">red<\/b> marbles did your opponent report drawing? ",
            "catchKey": -1,
            "catchResponse": -1,
            "catchTime": 1681186457690,
            "trialTime": 0
        },
        {
            "exptPart": "trial",
            "trialNumber": 40,
            "roleCurrent": "receiver",
            "marblesSampled": 100,
            "probRed": 0.5,
            "practiceLambda": 5,
            "trialLambda": 21.9,
            "instructedLambda": "dishonest_big",
            "drawnRed": 44,
            "reportedRed": 67,
            "inferredRed": 67,
            "playerTrialScore": -23,
            "oppTrialScore": 23,
            "playerTotalScore": -745,
            "oppTotalScore": 656,
            "waitTime": 6524.8680096129665,
            "responseTime": 1681186595628,
            "catchQuestion": "How many <b class=\"r\">red<\/b> marbles did your opponent report drawing? ",
            "catchKey": -1,
            "catchResponse": -1,
            "catchTime": 1681186595628,
            "trialTime": 0
        },
        {
            "exptPart": "trial",
            "trialNumber": 41,
            "roleCurrent": "receiver",
            "marblesSampled": 100,
            "probRed": 0.5,
            "practiceLambda": 5,
            "trialLambda": 21.9,
            "instructedLambda": "dishonest_big",
            "drawnRed": 46,
            "reportedRed": 72,
            "inferredRed": 70,
            "playerTrialScore": -24,
            "oppTrialScore": 24,
            "playerTotalScore": -769,
            "oppTotalScore": 680,
            "waitTime": 5330.164980634426,
            "responseTime": 1681186723706,
            "catchQuestion": "How many <b class=\"r\">red<\/b> marbles did your opponent report drawing? ",
            "catchKey": 72,
            "catchResponse": 72,
            "catchTime": 1681186723706,
            "trialTime": 0
        },
        {
            "exptPart": "trial",
            "trialNumber": 42,
            "roleCurrent": "receiver",
            "marblesSampled": 100,
            "probRed": 0.5,
            "practiceLambda": 5,
            "trialLambda": 21.9,
            "instructedLambda": "dishonest_big",
            "drawnRed": 78,
            "reportedRed": 100,
            "inferredRed": 100,
            "playerTrialScore": -22,
            "oppTrialScore": 22,
            "playerTotalScore": -791,
            "oppTotalScore": 702,
            "waitTime": 5965.853125587455,
            "responseTime": 1681186739590,
            "catchQuestion": "How many <b class=\"r\">red<\/b> marbles did your opponent report drawing? ",
            "catchKey": -1,
            "catchResponse": -1,
            "catchTime": 1681186723706,
            "trialTime": 0
        },
        {
            "exptPart": "trial",
            "trialNumber": 43,
            "roleCurrent": "receiver",
            "marblesSampled": 100,
            "probRed": 0.5,
            "practiceLambda": 5,
            "trialLambda": 21.9,
            "instructedLambda": "dishonest_big",
            "drawnRed": 56,
            "reportedRed": 73,
            "inferredRed": 55,
            "playerTrialScore": -1,
            "oppTrialScore": 0,
            "playerTotalScore": -792,
            "oppTotalScore": 702,
            "waitTime": 6475.559730825342,
            "responseTime": 1681186774124,
            "catchQuestion": "How many <b class=\"r\">red<\/b> marbles did your opponent report drawing? ",
            "catchKey": -1,
            "catchResponse": -1,
            "catchTime": 1681186723706,
            "trialTime": 0
        },
        {
            "exptPart": "trial",
            "trialNumber": 44,
            "roleCurrent": "receiver",
            "marblesSampled": 100,
            "probRed": 0.5,
            "practiceLambda": 5,
            "trialLambda": 21.9,
            "instructedLambda": "dishonest_big",
            "drawnRed": 45,
            "reportedRed": 67,
            "inferredRed": 67,
            "playerTrialScore": -22,
            "oppTrialScore": 22,
            "playerTotalScore": -814,
            "oppTotalScore": 724,
            "waitTime": 5819.526976744635,
            "responseTime": 1681186790493,
            "catchQuestion": "How many <b class=\"r\">red<\/b> marbles did your opponent report drawing? ",
            "catchKey": -1,
            "catchResponse": -1,
            "catchTime": 1681186723706,
            "trialTime": 0
        },
        {
            "exptPart": "trial",
            "trialNumber": 45,
            "roleCurrent": "receiver",
            "marblesSampled": 100,
            "probRed": 0.5,
            "practiceLambda": 5,
            "trialLambda": 21.9,
            "instructedLambda": "dishonest_big",
            "drawnRed": 86,
            "reportedRed": 100,
            "inferredRed": 78,
            "playerTrialScore": -8,
            "oppTrialScore": 0,
            "playerTotalScore": -822,
            "oppTotalScore": 724,
            "waitTime": 6799.736868760003,
            "responseTime": 1681186810594,
            "catchQuestion": "How many <b class=\"r\">red<\/b> marbles did your opponent report drawing? ",
            "catchKey": -1,
            "catchResponse": -1,
            "catchTime": 1681186723706,
            "trialTime": 0
        },
        {
            "exptPart": "trial",
            "trialNumber": 46,
            "roleCurrent": "receiver",
            "marblesSampled": 100,
            "probRed": 0.5,
            "practiceLambda": 5,
            "trialLambda": 21.9,
            "instructedLambda": "dishonest_big",
            "drawnRed": 24,
            "reportedRed": 46,
            "inferredRed": 46,
            "playerTrialScore": -22,
            "oppTrialScore": 22,
            "playerTotalScore": -844,
            "oppTotalScore": 746,
            "waitTime": 6159.197315242994,
            "responseTime": 1681186820227,
            "catchQuestion": "How many <b class=\"r\">red<\/b> marbles did your opponent report drawing? ",
            "catchKey": -1,
            "catchResponse": -1,
            "catchTime": 1681186723706,
            "trialTime": 0
        },
        {
            "exptPart": "trial",
            "trialNumber": 47,
            "roleCurrent": "receiver",
            "marblesSampled": 100,
            "probRed": 0.5,
            "practiceLambda": 5,
            "trialLambda": 21.9,
            "instructedLambda": "dishonest_big",
            "drawnRed": 33,
            "reportedRed": 53,
            "inferredRed": 48,
            "playerTrialScore": -15,
            "oppTrialScore": 15,
            "playerTotalScore": -859,
            "oppTotalScore": 761,
            "waitTime": 6053.898362909924,
            "responseTime": 1681186830395,
            "catchQuestion": "How many <b class=\"r\">red<\/b> marbles did your opponent report drawing? ",
            "catchKey": -1,
            "catchResponse": -1,
            "catchTime": 1681186723706,
            "trialTime": 0
        },
        {
            "exptPart": "trial",
            "trialNumber": 48,
            "roleCurrent": "receiver",
            "marblesSampled": 100,
            "probRed": 0.5,
            "practiceLambda": 5,
            "trialLambda": 21.9,
            "instructedLambda": "dishonest_big",
            "drawnRed": 42,
            "reportedRed": 60,
            "inferredRed": 48,
            "playerTrialScore": -6,
            "oppTrialScore": 6,
            "playerTotalScore": -865,
            "oppTotalScore": 767,
            "waitTime": 7490.331073084027,
            "responseTime": 1681186891231,
            "catchQuestion": "How many <b class=\"r\">red<\/b> marbles did your opponent report drawing? ",
            "catchKey": -1,
            "catchResponse": -1,
            "catchTime": 1681186723706,
            "trialTime": 0
        },
        {
            "exptPart": "trial",
            "trialNumber": 49,
            "roleCurrent": "receiver",
            "marblesSampled": 100,
            "probRed": 0.5,
            "practiceLambda": 5,
            "trialLambda": 21.9,
            "instructedLambda": "dishonest_big",
            "drawnRed": 49,
            "reportedRed": 69,
            "inferredRed": 55,
            "playerTrialScore": -6,
            "oppTrialScore": 6,
            "playerTotalScore": -871,
            "oppTotalScore": 773,
            "waitTime": 5828.036090704794,
            "responseTime": 1681186904784,
            "catchQuestion": "How many <b class=\"r\">red<\/b> marbles did your opponent report drawing? ",
            "catchKey": -1,
            "catchResponse": -1,
            "catchTime": 1681186723706,
            "trialTime": 0
        },
        {
            "exptPart": "trial",
            "trialNumber": 50,
            "roleCurrent": "receiver",
            "marblesSampled": 100,
            "probRed": 0.5,
            "practiceLambda": 5,
            "trialLambda": 21.9,
            "instructedLambda": "dishonest_big",
            "drawnRed": 32,
            "reportedRed": 67,
            "inferredRed": 67,
            "playerTrialScore": -35,
            "oppTrialScore": 35,
            "playerTotalScore": -906,
            "oppTotalScore": 808,
            "waitTime": 6392.478546476546,
            "responseTime": 1681186915668,
            "catchQuestion": "How many <b class=\"r\">red<\/b> marbles did your opponent report drawing? ",
            "catchKey": -1,
            "catchResponse": -1,
            "catchTime": 1681186915669,
            "trialTime": 0
        },
        {
            "exptPart": "trial",
            "trialNumber": 51,
            "roleCurrent": "receiver",
            "marblesSampled": 100,
            "probRed": 0.5,
            "practiceLambda": 5,
            "trialLambda": 21.9,
            "instructedLambda": "dishonest_big",
            "drawnRed": 44,
            "reportedRed": 68,
            "inferredRed": 65,
            "playerTrialScore": -21,
            "oppTrialScore": 21,
            "playerTotalScore": -927,
            "oppTotalScore": 829,
            "waitTime": 7017.8969914875215,
            "responseTime": 1681186962587,
            "catchQuestion": "How many <b class=\"r\">red<\/b> marbles did your opponent report drawing? ",
            "catchKey": -1,
            "catchResponse": -1,
            "catchTime": 1681186915669,
            "trialTime": 0
        },
        {
            "exptPart": "trial",
            "trialNumber": 52,
            "roleCurrent": "receiver",
            "marblesSampled": 100,
            "probRed": 0.5,
            "practiceLambda": 5,
            "trialLambda": 21.9,
            "instructedLambda": "dishonest_big",
            "drawnRed": 48,
            "reportedRed": 77,
            "inferredRed": 70,
            "playerTrialScore": -22,
            "oppTrialScore": 22,
            "playerTotalScore": -949,
            "oppTotalScore": 851,
            "waitTime": 6279.642921499301,
            "responseTime": 1681186973423,
            "catchQuestion": "How many <b class=\"r\">red<\/b> marbles did your opponent report drawing? ",
            "catchKey": -1,
            "catchResponse": -1,
            "catchTime": 1681186915669,
            "trialTime": 0
        },
        {
            "exptPart": "trial",
            "trialNumber": 53,
            "roleCurrent": "receiver",
            "marblesSampled": 100,
            "probRed": 0.5,
            "practiceLambda": 5,
            "trialLambda": 21.9,
            "instructedLambda": "dishonest_big",
            "drawnRed": 33,
            "reportedRed": 57,
            "inferredRed": 50,
            "playerTrialScore": -17,
            "oppTrialScore": 17,
            "playerTotalScore": -966,
            "oppTotalScore": 868,
            "waitTime": 6166.644492032539,
            "responseTime": 1681186983090,
            "catchQuestion": "How many <b class=\"r\">red<\/b> marbles did your opponent report drawing? ",
            "catchKey": -1,
            "catchResponse": -1,
            "catchTime": 1681186915669,
            "trialTime": 0
        },
        {
            "exptPart": "trial",
            "trialNumber": 54,
            "roleCurrent": "receiver",
            "marblesSampled": 100,
            "probRed": 0.5,
            "practiceLambda": 5,
            "trialLambda": 21.9,
            "instructedLambda": "dishonest_big",
            "drawnRed": 36,
            "reportedRed": 60,
            "inferredRed": 48,
            "playerTrialScore": -12,
            "oppTrialScore": 12,
            "playerTotalScore": -978,
            "oppTotalScore": 880,
            "waitTime": 6064.250559255777,
            "responseTime": 1681186994691,
            "catchQuestion": "How many <b class=\"r\">red<\/b> marbles did your opponent report drawing? ",
            "catchKey": 60,
            "catchResponse": 60,
            "catchTime": 1681186994691,
            "trialTime": 0
        },
        {
            "exptPart": "trial",
            "trialNumber": 55,
            "roleCurrent": "receiver",
            "marblesSampled": 100,
            "probRed": 0.5,
            "practiceLambda": 5,
            "trialLambda": 21.9,
            "instructedLambda": "dishonest_big",
            "drawnRed": 69,
            "reportedRed": 96,
            "inferredRed": 50,
            "playerTrialScore": -19,
            "oppTrialScore": 0,
            "playerTotalScore": -997,
            "oppTotalScore": 880,
            "waitTime": 5694.660214694926,
            "responseTime": 1681187019457,
            "catchQuestion": "How many <b class=\"r\">red<\/b> marbles did your opponent report drawing? ",
            "catchKey": -1,
            "catchResponse": -1,
            "catchTime": 1681186994691,
            "trialTime": 0
        },
        {
            "exptPart": "trial",
            "trialNumber": 56,
            "roleCurrent": "receiver",
            "marblesSampled": 100,
            "probRed": 0.5,
            "practiceLambda": 5,
            "trialLambda": 21.9,
            "instructedLambda": "dishonest_big",
            "drawnRed": 67,
            "reportedRed": 86,
            "inferredRed": 47,
            "playerTrialScore": -20,
            "oppTrialScore": 0,
            "playerTotalScore": -1017,
            "oppTotalScore": 880,
            "waitTime": 5661.054777262817,
            "responseTime": 1681187028894,
            "catchQuestion": "How many <b class=\"r\">red<\/b> marbles did your opponent report drawing? ",
            "catchKey": -1,
            "catchResponse": -1,
            "catchTime": 1681186994691,
            "trialTime": 0
        },
        {
            "exptPart": "trial",
            "trialNumber": 57,
            "roleCurrent": "receiver",
            "marblesSampled": 100,
            "probRed": 0.5,
            "practiceLambda": 5,
            "trialLambda": 21.9,
            "instructedLambda": "dishonest_big",
            "drawnRed": 7,
            "reportedRed": 30,
            "inferredRed": 35,
            "playerTrialScore": -28,
            "oppTrialScore": 28,
            "playerTotalScore": -1045,
            "oppTotalScore": 908,
            "waitTime": 5156.22182348513,
            "responseTime": 1681187041044,
            "catchQuestion": "How many <b class=\"r\">red<\/b> marbles did your opponent report drawing? ",
            "catchKey": -1,
            "catchResponse": -1,
            "catchTime": 1681186994691,
            "trialTime": 0
        },
        {
            "exptPart": "trial",
            "trialNumber": 58,
            "roleCurrent": "receiver",
            "marblesSampled": 100,
            "probRed": 0.5,
            "practiceLambda": 5,
            "trialLambda": 21.9,
            "instructedLambda": "dishonest_big",
            "drawnRed": 30,
            "reportedRed": 46,
            "inferredRed": 34,
            "playerTrialScore": -4,
            "oppTrialScore": 4,
            "playerTotalScore": -1049,
            "oppTotalScore": 912,
            "waitTime": 5948.791685270509,
            "responseTime": 1681187065746,
            "catchQuestion": "How many <b class=\"r\">red<\/b> marbles did your opponent report drawing? ",
            "catchKey": -1,
            "catchResponse": -1,
            "catchTime": 1681186994691,
            "trialTime": 0
        },
        {
            "exptPart": "trial",
            "trialNumber": 59,
            "roleCurrent": "receiver",
            "marblesSampled": 100,
            "probRed": 0.5,
            "practiceLambda": 5,
            "trialLambda": 21.9,
            "instructedLambda": "dishonest_big",
            "drawnRed": 33,
            "reportedRed": 50,
            "inferredRed": 39,
            "playerTrialScore": -6,
            "oppTrialScore": 6,
            "playerTotalScore": -1055,
            "oppTotalScore": 918,
            "waitTime": 6567.091978182526,
            "responseTime": 1681187079446,
            "catchQuestion": "How many <b class=\"r\">red<\/b> marbles did your opponent report drawing? ",
            "catchKey": -1,
            "catchResponse": -1,
            "catchTime": 1681186994691,
            "trialTime": 0
        },
        {
            "exptPart": "trial",
            "trialNumber": 60,
            "roleCurrent": "receiver",
            "marblesSampled": 100,
            "probRed": 0.5,
            "practiceLambda": 5,
            "trialLambda": 21.9,
            "instructedLambda": "dishonest_big",
            "drawnRed": 30,
            "reportedRed": 60,
            "inferredRed": 48,
            "playerTrialScore": -18,
            "oppTrialScore": 18,
            "playerTotalScore": -1073,
            "oppTotalScore": 936,
            "waitTime": 6616.840424143304,
            "responseTime": 1681187098080,
            "catchQuestion": "How many <b class=\"r\">red<\/b> marbles did your opponent report drawing? ",
            "catchKey": -1,
            "catchResponse": -1,
            "catchTime": 1681187098080,
            "trialTime": 0
        },
        {
            "exptPart": "trial",
            "trialNumber": 61,
            "roleCurrent": "receiver",
            "marblesSampled": 100,
            "probRed": 0.5,
            "practiceLambda": 5,
            "trialLambda": 21.9,
            "instructedLambda": "dishonest_big",
            "drawnRed": 84,
            "reportedRed": 100,
            "inferredRed": 50,
            "playerTrialScore": -34,
            "oppTrialScore": 0,
            "playerTotalScore": -1107,
            "oppTotalScore": 936,
            "waitTime": 5456.427451020103,
            "responseTime": 1681187117315,
            "catchQuestion": "How many <b class=\"r\">red<\/b> marbles did your opponent report drawing? ",
            "catchKey": -1,
            "catchResponse": -1,
            "catchTime": 1681187098080,
            "trialTime": 0
        },
        {
            "exptPart": "trial",
            "trialNumber": 62,
            "roleCurrent": "receiver",
            "marblesSampled": 100,
            "probRed": 0.5,
            "practiceLambda": 5,
            "trialLambda": 21.9,
            "instructedLambda": "dishonest_big",
            "drawnRed": 40,
            "reportedRed": 67,
            "inferredRed": 58,
            "playerTrialScore": -18,
            "oppTrialScore": 18,
            "playerTotalScore": -1125,
            "oppTotalScore": 954,
            "waitTime": 5132.166235991115,
            "responseTime": 1681187133283,
            "catchQuestion": "How many <b class=\"r\">red<\/b> marbles did your opponent report drawing? ",
            "catchKey": -1,
            "catchResponse": -1,
            "catchTime": 1681187098080,
            "trialTime": 0
        },
        {
            "exptPart": "trial",
            "trialNumber": 63,
            "roleCurrent": "receiver",
            "marblesSampled": 100,
            "probRed": 0.5,
            "practiceLambda": 5,
            "trialLambda": 21.9,
            "instructedLambda": "dishonest_big",
            "drawnRed": 30,
            "reportedRed": 51,
            "inferredRed": 67,
            "playerTrialScore": -37,
            "oppTrialScore": 37,
            "playerTotalScore": -1162,
            "oppTotalScore": 991,
            "waitTime": 7297.215176144084,
            "responseTime": 1681187148418,
            "catchQuestion": "How many <b class=\"r\">red<\/b> marbles did your opponent report drawing? ",
            "catchKey": 51,
            "catchResponse": 51,
            "catchTime": 1681187148418,
            "trialTime": 0
        },
        {
            "exptPart": "trial",
            "trialNumber": 64,
            "roleCurrent": "receiver",
            "marblesSampled": 100,
            "probRed": 0.5,
            "practiceLambda": 5,
            "trialLambda": 21.9,
            "instructedLambda": "dishonest_big",
            "drawnRed": 49,
            "reportedRed": 80,
            "inferredRed": 55,
            "playerTrialScore": -6,
            "oppTrialScore": 6,
            "playerTotalScore": -1168,
            "oppTotalScore": 997,
            "waitTime": 5481.09884062064,
            "responseTime": 1681187163969,
            "catchQuestion": "How many <b class=\"r\">red<\/b> marbles did your opponent report drawing? ",
            "catchKey": -1,
            "catchResponse": -1,
            "catchTime": 1681187148418,
            "trialTime": 0
        },
        {
            "exptPart": "trial",
            "trialNumber": 65,
            "roleCurrent": "receiver",
            "marblesSampled": 100,
            "probRed": 0.5,
            "practiceLambda": 5,
            "trialLambda": 21.9,
            "instructedLambda": "dishonest_big",
            "drawnRed": 63,
            "reportedRed": 80,
            "inferredRed": 55,
            "playerTrialScore": -8,
            "oppTrialScore": 0,
            "playerTotalScore": -1176,
            "oppTotalScore": 997,
            "waitTime": 6786.658912561231,
            "responseTime": 1681187173404,
            "catchQuestion": "How many <b class=\"r\">red<\/b> marbles did your opponent report drawing? ",
            "catchKey": -1,
            "catchResponse": -1,
            "catchTime": 1681187148418,
            "trialTime": 0
        },
        {
            "exptPart": "trial",
            "trialNumber": 66,
            "roleCurrent": "receiver",
            "marblesSampled": 100,
            "probRed": 0.5,
            "practiceLambda": 5,
            "trialLambda": 21.9,
            "instructedLambda": "dishonest_big",
            "drawnRed": 37,
            "reportedRed": 54,
            "inferredRed": 50,
            "playerTrialScore": -13,
            "oppTrialScore": 13,
            "playerTotalScore": -1189,
            "oppTotalScore": 1010,
            "waitTime": 5585.202748102862,
            "responseTime": 1681187323496,
            "catchQuestion": "How many <b class=\"r\">red<\/b> marbles did your opponent report drawing? ",
            "catchKey": -1,
            "catchResponse": -1,
            "catchTime": 1681187148418,
            "trialTime": 0
        },
        {
            "exptPart": "trial",
            "trialNumber": 67,
            "roleCurrent": "receiver",
            "marblesSampled": 100,
            "probRed": 0.5,
            "practiceLambda": 5,
            "trialLambda": 21.9,
            "instructedLambda": "dishonest_big",
            "drawnRed": 42,
            "reportedRed": 62,
            "inferredRed": 30,
            "playerTrialScore": -12,
            "oppTrialScore": 0,
            "playerTotalScore": -1201,
            "oppTotalScore": 1010,
            "waitTime": 6011.925911691384,
            "responseTime": 1681187333646,
            "catchQuestion": "How many <b class=\"r\">red<\/b> marbles did your opponent report drawing? ",
            "catchKey": -1,
            "catchResponse": -1,
            "catchTime": 1681187148418,
            "trialTime": 0
        },
        {
            "exptPart": "trial",
            "trialNumber": 68,
            "roleCurrent": "receiver",
            "marblesSampled": 100,
            "probRed": 0.5,
            "practiceLambda": 5,
            "trialLambda": 21.9,
            "instructedLambda": "dishonest_big",
            "drawnRed": 6,
            "reportedRed": 24,
            "inferredRed": 24,
            "playerTrialScore": -18,
            "oppTrialScore": 18,
            "playerTotalScore": -1219,
            "oppTotalScore": 1028,
            "waitTime": 5934.677019260194,
            "responseTime": 1681187342680,
            "catchQuestion": "How many <b class=\"r\">red<\/b> marbles did your opponent report drawing? ",
            "catchKey": -1,
            "catchResponse": -1,
            "catchTime": 1681187148418,
            "trialTime": 0
        },
        {
            "exptPart": "trial",
            "trialNumber": 69,
            "roleCurrent": "receiver",
            "marblesSampled": 100,
            "probRed": 0.5,
            "practiceLambda": 5,
            "trialLambda": 21.9,
            "instructedLambda": "dishonest_big",
            "drawnRed": 23,
            "reportedRed": 39,
            "inferredRed": 39,
            "playerTrialScore": -16,
            "oppTrialScore": 16,
            "playerTotalScore": -1235,
            "oppTotalScore": 1044,
            "waitTime": 5720.157482518531,
            "responseTime": 1681187353482,
            "catchQuestion": "How many <b class=\"r\">red<\/b> marbles did your opponent report drawing? ",
            "catchKey": -1,
            "catchResponse": -1,
            "catchTime": 1681187148418,
            "trialTime": 0
        },
        {
            "exptPart": "trial",
            "trialNumber": 70,
            "roleCurrent": "receiver",
            "marblesSampled": 100,
            "probRed": 0.5,
            "practiceLambda": 5,
            "trialLambda": 21.9,
            "instructedLambda": "dishonest_big",
            "drawnRed": 11,
            "reportedRed": 34,
            "inferredRed": 34,
            "playerTrialScore": -23,
            "oppTrialScore": 23,
            "playerTotalScore": -1258,
            "oppTotalScore": 1067,
            "waitTime": 5955.699118501936,
            "responseTime": 1681187363382,
            "catchQuestion": "How many <b class=\"r\">red<\/b> marbles did your opponent report drawing? ",
            "catchKey": -1,
            "catchResponse": -1,
            "catchTime": 1681187363382,
            "trialTime": 0
        },
        {
            "exptPart": "trial",
            "trialNumber": 71,
            "roleCurrent": "receiver",
            "marblesSampled": 100,
            "probRed": 0.5,
            "practiceLambda": 5,
            "trialLambda": 21.9,
            "instructedLambda": "dishonest_big",
            "drawnRed": 24,
            "reportedRed": 46,
            "inferredRed": 44,
            "playerTrialScore": -20,
            "oppTrialScore": 20,
            "playerTotalScore": -1278,
            "oppTotalScore": 1087,
            "waitTime": 5605.2925331519555,
            "responseTime": 1681187456872,
            "catchQuestion": "How many <b class=\"r\">red<\/b> marbles did your opponent report drawing? ",
            "catchKey": -1,
            "catchResponse": -1,
            "catchTime": 1681187363382,
            "trialTime": 0
        },
        {
            "exptPart": "trial",
            "trialNumber": 72,
            "roleCurrent": "receiver",
            "marblesSampled": 100,
            "probRed": 0.5,
            "practiceLambda": 5,
            "trialLambda": 21.9,
            "instructedLambda": "dishonest_big",
            "drawnRed": 75,
            "reportedRed": 92,
            "inferredRed": 70,
            "playerTrialScore": -5,
            "oppTrialScore": 0,
            "playerTotalScore": -1283,
            "oppTotalScore": 1087,
            "waitTime": 6155.7394530301,
            "responseTime": 1681187467541,
            "catchQuestion": "How many <b class=\"r\">red<\/b> marbles did your opponent report drawing? ",
            "catchKey": -1,
            "catchResponse": -1,
            "catchTime": 1681187363382,
            "trialTime": 0
        },
        {
            "exptPart": "trial",
            "trialNumber": 73,
            "roleCurrent": "receiver",
            "marblesSampled": 100,
            "probRed": 0.5,
            "practiceLambda": 5,
            "trialLambda": 21.9,
            "instructedLambda": "dishonest_big",
            "drawnRed": 45,
            "reportedRed": 70,
            "inferredRed": 30,
            "playerTrialScore": -15,
            "oppTrialScore": 0,
            "playerTotalScore": -1298,
            "oppTotalScore": 1087,
            "waitTime": 7461.570893484532,
            "responseTime": 1681187478990,
            "catchQuestion": "How many <b class=\"r\">red<\/b> marbles did your opponent report drawing? ",
            "catchKey": -1,
            "catchResponse": -1,
            "catchTime": 1681187363382,
            "trialTime": 0
        },
        {
            "exptPart": "trial",
            "trialNumber": 74,
            "roleCurrent": "receiver",
            "marblesSampled": 100,
            "probRed": 0.5,
            "practiceLambda": 5,
            "trialLambda": 21.9,
            "instructedLambda": "dishonest_big",
            "drawnRed": 46,
            "reportedRed": 66,
            "inferredRed": 44,
            "playerTrialScore": -2,
            "oppTrialScore": 0,
            "playerTotalScore": -1300,
            "oppTotalScore": 1087,
            "waitTime": 5545.7393624393335,
            "responseTime": 1681187490404,
            "catchQuestion": "How many <b class=\"r\">red<\/b> marbles did your opponent report drawing? ",
            "catchKey": -1,
            "catchResponse": -1,
            "catchTime": 1681187363382,
            "trialTime": 0
        },
        {
            "exptPart": "trial",
            "trialNumber": 75,
            "roleCurrent": "receiver",
            "marblesSampled": 100,
            "probRed": 0.5,
            "practiceLambda": 5,
            "trialLambda": 21.9,
            "instructedLambda": "dishonest_big",
            "drawnRed": 47,
            "reportedRed": 75,
            "inferredRed": 48,
            "playerTrialScore": -1,
            "oppTrialScore": 1,
            "playerTotalScore": -1301,
            "oppTotalScore": 1088,
            "waitTime": 5206.831325702427,
            "responseTime": 1681187502506,
            "catchQuestion": "How many <b class=\"r\">red<\/b> marbles did your opponent report drawing? ",
            "catchKey": -1,
            "catchResponse": -1,
            "catchTime": 1681187363382,
            "trialTime": 0
        },
        {
            "exptPart": "trial",
            "trialNumber": 76,
            "roleCurrent": "receiver",
            "marblesSampled": 100,
            "probRed": 0.5,
            "practiceLambda": 5,
            "trialLambda": 21.9,
            "instructedLambda": "dishonest_big",
            "drawnRed": 30,
            "reportedRed": 56,
            "inferredRed": 38,
            "playerTrialScore": -8,
            "oppTrialScore": 8,
            "playerTotalScore": -1309,
            "oppTotalScore": 1096,
            "waitTime": 5845.355306433768,
            "responseTime": 1681187511810,
            "catchQuestion": "How many <b class=\"r\">red<\/b> marbles did your opponent report drawing? ",
            "catchKey": -1,
            "catchResponse": -1,
            "catchTime": 1681187363382,
            "trialTime": 0
        },
        {
            "exptPart": "trial",
            "trialNumber": 77,
            "roleCurrent": "receiver",
            "marblesSampled": 100,
            "probRed": 0.5,
            "practiceLambda": 5,
            "trialLambda": 21.9,
            "instructedLambda": "dishonest_big",
            "drawnRed": 39,
            "reportedRed": 59,
            "inferredRed": 22,
            "playerTrialScore": -17,
            "oppTrialScore": 0,
            "playerTotalScore": -1326,
            "oppTotalScore": 1096,
            "waitTime": 7233.600857595493,
            "responseTime": 1681187522592,
            "catchQuestion": "How many <b class=\"r\">red<\/b> marbles did your opponent report drawing? ",
            "catchKey": -1,
            "catchResponse": -1,
            "catchTime": 1681187363382,
            "trialTime": 0
        },
        {
            "exptPart": "trial",
            "trialNumber": 78,
            "roleCurrent": "receiver",
            "marblesSampled": 100,
            "probRed": 0.5,
            "practiceLambda": 5,
            "trialLambda": 21.9,
            "instructedLambda": "dishonest_big",
            "drawnRed": 47,
            "reportedRed": 67,
            "inferredRed": 47,
            "playerTrialScore": 0,
            "oppTrialScore": 0,
            "playerTotalScore": -1326,
            "oppTotalScore": 1096,
            "waitTime": 7455.406844193929,
            "responseTime": 1681187536558,
            "catchQuestion": "How many <b class=\"r\">red<\/b> marbles did your opponent report drawing? ",
            "catchKey": -1,
            "catchResponse": -1,
            "catchTime": 1681187363382,
            "trialTime": 0
        },
        {
            "exptPart": "trial",
            "trialNumber": 79,
            "roleCurrent": "receiver",
            "marblesSampled": 100,
            "probRed": 0.5,
            "practiceLambda": 5,
            "trialLambda": 21.9,
            "instructedLambda": "dishonest_big",
            "drawnRed": 60,
            "reportedRed": 83,
            "inferredRed": 58,
            "playerTrialScore": -2,
            "oppTrialScore": 0,
            "playerTotalScore": -1328,
            "oppTotalScore": 1096,
            "waitTime": 6427.072922180552,
            "responseTime": 1681187547549,
            "catchQuestion": "How many <b class=\"r\">red<\/b> marbles did your opponent report drawing? ",
            "catchKey": -1,
            "catchResponse": -1,
            "catchTime": 1681187363382,
            "trialTime": 0
        },
        {
            "exptPart": "trial",
            "trialNumber": 80,
            "roleCurrent": "receiver",
            "marblesSampled": 100,
            "probRed": 0.5,
            "practiceLambda": 5,
            "trialLambda": 21.9,
            "instructedLambda": "dishonest_big",
            "drawnRed": 82,
            "reportedRed": 100,
            "inferredRed": 30,
            "playerTrialScore": -52,
            "oppTrialScore": 0,
            "playerTotalScore": -1380,
            "oppTotalScore": 1096,
            "waitTime": 6514.4688182184045,
            "responseTime": 1681187558209,
            "catchQuestion": "How many <b class=\"r\">red<\/b> marbles did your opponent report drawing? ",
            "catchKey": -1,
            "catchResponse": -1,
            "catchTime": 1681187558209,
            "trialTime": 0
        },
        {
            "exptPart": "trial",
            "trialNumber": 81,
            "roleCurrent": "receiver",
            "marblesSampled": 100,
            "probRed": 0.5,
            "practiceLambda": 5,
            "trialLambda": 21.9,
            "instructedLambda": "dishonest_big",
            "drawnRed": 48,
            "reportedRed": 64,
            "inferredRed": 30,
            "playerTrialScore": -18,
            "oppTrialScore": 0,
            "playerTotalScore": -1398,
            "oppTotalScore": 1096,
            "waitTime": 5994.982236409907,
            "responseTime": 1681187571980,
            "catchQuestion": "How many <b class=\"r\">red<\/b> marbles did your opponent report drawing? ",
            "catchKey": 64,
            "catchResponse": 64,
            "catchTime": 1681187571980,
            "trialTime": 0
        },
        {
            "exptPart": "trial",
            "trialNumber": 82,
            "roleCurrent": "receiver",
            "marblesSampled": 100,
            "probRed": 0.5,
            "practiceLambda": 5,
            "trialLambda": 21.9,
            "instructedLambda": "dishonest_big",
            "drawnRed": 51,
            "reportedRed": 76,
            "inferredRed": 45,
            "playerTrialScore": -6,
            "oppTrialScore": 0,
            "playerTotalScore": -1404,
            "oppTotalScore": 1096,
            "waitTime": 5993.799907529417,
            "responseTime": 1681187589396,
            "catchQuestion": "How many <b class=\"r\">red<\/b> marbles did your opponent report drawing? ",
            "catchKey": -1,
            "catchResponse": -1,
            "catchTime": 1681187571980,
            "trialTime": 0
        },
        {
            "exptPart": "trial",
            "trialNumber": 83,
            "roleCurrent": "receiver",
            "marblesSampled": 100,
            "probRed": 0.5,
            "practiceLambda": 5,
            "trialLambda": 21.9,
            "instructedLambda": "dishonest_big",
            "drawnRed": 12,
            "reportedRed": 27,
            "inferredRed": 13,
            "playerTrialScore": -1,
            "oppTrialScore": 1,
            "playerTotalScore": -1405,
            "oppTotalScore": 1097,
            "waitTime": 6108.208186092624,
            "responseTime": 1681187676841,
            "catchQuestion": "How many <b class=\"r\">red<\/b> marbles did your opponent report drawing? ",
            "catchKey": 27,
            "catchResponse": 27,
            "catchTime": 1681187676841,
            "trialTime": 0
        },
        {
            "exptPart": "trial",
            "trialNumber": 84,
            "roleCurrent": "receiver",
            "marblesSampled": 100,
            "probRed": 0.5,
            "practiceLambda": 5,
            "trialLambda": 21.9,
            "instructedLambda": "dishonest_big",
            "drawnRed": 34,
            "reportedRed": 62,
            "inferredRed": 44,
            "playerTrialScore": -10,
            "oppTrialScore": 10,
            "playerTotalScore": -1415,
            "oppTotalScore": 1107,
            "waitTime": 7000.958922452202,
            "responseTime": 1681187693142,
            "catchQuestion": "How many <b class=\"r\">red<\/b> marbles did your opponent report drawing? ",
            "catchKey": -1,
            "catchResponse": -1,
            "catchTime": 1681187676841,
            "trialTime": 0
        },
        {
            "exptPart": "trial",
            "trialNumber": 85,
            "roleCurrent": "receiver",
            "marblesSampled": 100,
            "probRed": 0.5,
            "practiceLambda": 5,
            "trialLambda": 21.9,
            "instructedLambda": "dishonest_big",
            "drawnRed": 52,
            "reportedRed": 74,
            "inferredRed": 45,
            "playerTrialScore": -7,
            "oppTrialScore": 0,
            "playerTotalScore": -1422,
            "oppTotalScore": 1107,
            "waitTime": 5524.041471771183,
            "responseTime": 1681187705543,
            "catchQuestion": "How many <b class=\"r\">red<\/b> marbles did your opponent report drawing? ",
            "catchKey": -1,
            "catchResponse": -1,
            "catchTime": 1681187676841,
            "trialTime": 0
        },
        {
            "exptPart": "trial",
            "trialNumber": 86,
            "roleCurrent": "receiver",
            "marblesSampled": 100,
            "probRed": 0.5,
            "practiceLambda": 5,
            "trialLambda": 21.9,
            "instructedLambda": "dishonest_big",
            "drawnRed": 48,
            "reportedRed": 70,
            "inferredRed": 55,
            "playerTrialScore": -7,
            "oppTrialScore": 7,
            "playerTotalScore": -1429,
            "oppTotalScore": 1114,
            "waitTime": 5418.0295301721,
            "responseTime": 1681187714759,
            "catchQuestion": "How many <b class=\"r\">red<\/b> marbles did your opponent report drawing? ",
            "catchKey": 70,
            "catchResponse": 70,
            "catchTime": 1681187714760,
            "trialTime": 0
        },
        {
            "exptPart": "trial",
            "trialNumber": 87,
            "roleCurrent": "receiver",
            "marblesSampled": 100,
            "probRed": 0.5,
            "practiceLambda": 5,
            "trialLambda": 21.9,
            "instructedLambda": "dishonest_big",
            "drawnRed": 60,
            "reportedRed": 81,
            "inferredRed": 33,
            "playerTrialScore": -27,
            "oppTrialScore": 0,
            "playerTotalScore": -1456,
            "oppTotalScore": 1114,
            "waitTime": 7051.060216460309,
            "responseTime": 1681187728427,
            "catchQuestion": "How many <b class=\"r\">red<\/b> marbles did your opponent report drawing? ",
            "catchKey": -1,
            "catchResponse": -1,
            "catchTime": 1681187714760,
            "trialTime": 0
        },
        {
            "exptPart": "trial",
            "trialNumber": 88,
            "roleCurrent": "receiver",
            "marblesSampled": 100,
            "probRed": 0.5,
            "practiceLambda": 5,
            "trialLambda": 21.9,
            "instructedLambda": "dishonest_big",
            "drawnRed": 73,
            "reportedRed": 97,
            "inferredRed": 33,
            "playerTrialScore": -40,
            "oppTrialScore": 0,
            "playerTotalScore": -1496,
            "oppTotalScore": 1114,
            "waitTime": 5336.522277834523,
            "responseTime": 1681187739377,
            "catchQuestion": "How many <b class=\"r\">red<\/b> marbles did your opponent report drawing? ",
            "catchKey": 97,
            "catchResponse": 97,
            "catchTime": 1681187739377,
            "trialTime": 0
        },
        {
            "exptPart": "trial",
            "trialNumber": 89,
            "roleCurrent": "receiver",
            "marblesSampled": 100,
            "probRed": 0.5,
            "practiceLambda": 5,
            "trialLambda": 21.9,
            "instructedLambda": "dishonest_big",
            "drawnRed": 54,
            "reportedRed": 76,
            "inferredRed": 35,
            "playerTrialScore": -19,
            "oppTrialScore": 0,
            "playerTotalScore": -1515,
            "oppTotalScore": 1114,
            "waitTime": 5166.058371492281,
            "responseTime": 1681187754861,
            "catchQuestion": "How many <b class=\"r\">red<\/b> marbles did your opponent report drawing? ",
            "catchKey": -1,
            "catchResponse": -1,
            "catchTime": 1681187739377,
            "trialTime": 0
        },
        {
            "exptPart": "trial",
            "trialNumber": 90,
            "roleCurrent": "receiver",
            "marblesSampled": 100,
            "probRed": 0.5,
            "practiceLambda": 5,
            "trialLambda": 21.9,
            "instructedLambda": "dishonest_big",
            "drawnRed": 29,
            "reportedRed": 50,
            "inferredRed": 20,
            "playerTrialScore": -9,
            "oppTrialScore": 0,
            "playerTotalScore": -1524,
            "oppTotalScore": 1114,
            "waitTime": 5324.168842092298,
            "responseTime": 1681187763793,
            "catchQuestion": "How many <b class=\"r\">red<\/b> marbles did your opponent report drawing? ",
            "catchKey": -1,
            "catchResponse": -1,
            "catchTime": 1681187763793,
            "trialTime": 0
        },
        {
            "exptPart": "trial",
            "trialNumber": 91,
            "roleCurrent": "receiver",
            "marblesSampled": 100,
            "probRed": 0.5,
            "practiceLambda": 5,
            "trialLambda": 21.9,
            "instructedLambda": "dishonest_big",
            "drawnRed": 39,
            "reportedRed": 59,
            "inferredRed": 44,
            "playerTrialScore": -5,
            "oppTrialScore": 5,
            "playerTotalScore": -1529,
            "oppTotalScore": 1119,
            "waitTime": 7339.811806671727,
            "responseTime": 1681187777796,
            "catchQuestion": "How many <b class=\"r\">red<\/b> marbles did your opponent report drawing? ",
            "catchKey": -1,
            "catchResponse": -1,
            "catchTime": 1681187763793,
            "trialTime": 0
        },
        {
            "exptPart": "trial",
            "trialNumber": 92,
            "roleCurrent": "receiver",
            "marblesSampled": 100,
            "probRed": 0.5,
            "practiceLambda": 5,
            "trialLambda": 21.9,
            "instructedLambda": "dishonest_big",
            "drawnRed": 20,
            "reportedRed": 38,
            "inferredRed": 11,
            "playerTrialScore": -9,
            "oppTrialScore": 0,
            "playerTotalScore": -1538,
            "oppTotalScore": 1119,
            "waitTime": 5192.161820361214,
            "responseTime": 1681187786131,
            "catchQuestion": "How many <b class=\"r\">red<\/b> marbles did your opponent report drawing? ",
            "catchKey": -1,
            "catchResponse": -1,
            "catchTime": 1681187763793,
            "trialTime": 0
        },
        {
            "exptPart": "trial",
            "trialNumber": 93,
            "roleCurrent": "receiver",
            "marblesSampled": 100,
            "probRed": 0.5,
            "practiceLambda": 5,
            "trialLambda": 21.9,
            "instructedLambda": "dishonest_big",
            "drawnRed": 37,
            "reportedRed": 53,
            "inferredRed": 34,
            "playerTrialScore": -3,
            "oppTrialScore": 0,
            "playerTotalScore": -1541,
            "oppTotalScore": 1119,
            "waitTime": 6190.825757535427,
            "responseTime": 1681187795764,
            "catchQuestion": "How many <b class=\"r\">red<\/b> marbles did your opponent report drawing? ",
            "catchKey": -1,
            "catchResponse": -1,
            "catchTime": 1681187763793,
            "trialTime": 0
        },
        {
            "exptPart": "trial",
            "trialNumber": 94,
            "roleCurrent": "receiver",
            "marblesSampled": 100,
            "probRed": 0.5,
            "practiceLambda": 5,
            "trialLambda": 21.9,
            "instructedLambda": "dishonest_big",
            "drawnRed": 53,
            "reportedRed": 71,
            "inferredRed": 44,
            "playerTrialScore": -9,
            "oppTrialScore": 0,
            "playerTotalScore": -1550,
            "oppTotalScore": 1119,
            "waitTime": 6011.296898337743,
            "responseTime": 1681187807799,
            "catchQuestion": "How many <b class=\"r\">red<\/b> marbles did your opponent report drawing? ",
            "catchKey": -1,
            "catchResponse": -1,
            "catchTime": 1681187763793,
            "trialTime": 0
        },
        {
            "exptPart": "trial",
            "trialNumber": 95,
            "roleCurrent": "receiver",
            "marblesSampled": 100,
            "probRed": 0.5,
            "practiceLambda": 5,
            "trialLambda": 21.9,
            "instructedLambda": "dishonest_big",
            "drawnRed": 79,
            "reportedRed": 98,
            "inferredRed": 39,
            "playerTrialScore": -40,
            "oppTrialScore": 0,
            "playerTotalScore": -1590,
            "oppTotalScore": 1119,
            "waitTime": 6123.424465993904,
            "responseTime": 1681187821966,
            "catchQuestion": "How many <b class=\"r\">red<\/b> marbles did your opponent report drawing? ",
            "catchKey": -1,
            "catchResponse": -1,
            "catchTime": 1681187763793,
            "trialTime": 0
        },
        {
            "exptPart": "trial",
            "trialNumber": 96,
            "roleCurrent": "receiver",
            "marblesSampled": 100,
            "probRed": 0.5,
            "practiceLambda": 5,
            "trialLambda": 21.9,
            "instructedLambda": "dishonest_big",
            "drawnRed": 73,
            "reportedRed": 84,
            "inferredRed": 55,
            "playerTrialScore": -18,
            "oppTrialScore": 0,
            "playerTotalScore": -1608,
            "oppTotalScore": 1119,
            "waitTime": 6702.2587756417,
            "responseTime": 1681187832083,
            "catchQuestion": "How many <b class=\"r\">red<\/b> marbles did your opponent report drawing? ",
            "catchKey": -1,
            "catchResponse": -1,
            "catchTime": 1681187763793,
            "trialTime": 0
        },
        {
            "exptPart": "trial",
            "trialNumber": 97,
            "roleCurrent": "receiver",
            "marblesSampled": 100,
            "probRed": 0.5,
            "practiceLambda": 5,
            "trialLambda": 21.9,
            "instructedLambda": "dishonest_big",
            "drawnRed": 61,
            "reportedRed": 83,
            "inferredRed": 33,
            "playerTrialScore": -28,
            "oppTrialScore": 0,
            "playerTotalScore": -1636,
            "oppTotalScore": 1119,
            "waitTime": 5504.617632562837,
            "responseTime": 1681187840117,
            "catchQuestion": "How many <b class=\"r\">red<\/b> marbles did your opponent report drawing? ",
            "catchKey": -1,
            "catchResponse": -1,
            "catchTime": 1681187763793,
            "trialTime": 0
        },
        {
            "exptPart": "trial",
            "trialNumber": 98,
            "roleCurrent": "receiver",
            "marblesSampled": 100,
            "probRed": 0.5,
            "practiceLambda": 5,
            "trialLambda": 21.9,
            "instructedLambda": "dishonest_big",
            "drawnRed": 25,
            "reportedRed": 49,
            "inferredRed": 22,
            "playerTrialScore": -3,
            "oppTrialScore": 0,
            "playerTotalScore": -1639,
            "oppTotalScore": 1119,
            "waitTime": 7478.409594580614,
            "responseTime": 1681187850447,
            "catchQuestion": "How many <b class=\"r\">red<\/b> marbles did your opponent report drawing? ",
            "catchKey": -1,
            "catchResponse": -1,
            "catchTime": 1681187763793,
            "trialTime": 0
        },
        {
            "exptPart": "trial",
            "trialNumber": 99,
            "roleCurrent": "receiver",
            "marblesSampled": 100,
            "probRed": 0.5,
            "practiceLambda": 5,
            "trialLambda": 21.9,
            "instructedLambda": "dishonest_big",
            "drawnRed": 69,
            "reportedRed": 100,
            "inferredRed": 38,
            "playerTrialScore": -31,
            "oppTrialScore": 0,
            "playerTotalScore": -1670,
            "oppTotalScore": 1119,
            "waitTime": 6101.3752957503875,
            "responseTime": 1681187862717,
            "catchQuestion": "How many <b class=\"r\">red<\/b> marbles did your opponent report drawing? ",
            "catchKey": -1,
            "catchResponse": -1,
            "catchTime": 1681187763793,
            "trialTime": 0
        },
        {
            "exptPart": "trial",
            "trialNumber": 100,
            "roleCurrent": "receiver",
            "marblesSampled": 100,
            "probRed": 0.5,
            "practiceLambda": 5,
            "trialLambda": 21.9,
            "instructedLambda": "dishonest_big",
            "drawnRed": 42,
            "reportedRed": 57,
            "inferredRed": 20,
            "playerTrialScore": -22,
            "oppTrialScore": 0,
            "playerTotalScore": -1692,
            "oppTotalScore": 1119,
            "waitTime": 5348.483232755445,
            "responseTime": 1681187876436,
            "catchQuestion": "How many <b class=\"r\">red<\/b> marbles did your opponent report drawing? ",
            "catchKey": -1,
            "catchResponse": -1,
            "catchTime": 1681187876436,
            "trialTime": 0
        }
    ]
}