{
    "client": {
        "type": "sona",
        "experiment_id": 2228,
        "credit_token": "b315147ae43241ea9c65086cb510cfb7",
        "survey_code": "46936",
        "sid": "sona-46936",
        "window": {
            "width": 1440,
            "height": 732
        },
        "screen": {
            "width": 1440,
            "height": 900
        },
        "userAgent": "Mozilla\/5.0 (Macintosh; Intel Mac OS X 10_15_7) AppleWebKit\/537.36 (KHTML, like Gecko) Chrome\/111.0.0.0 Safari\/537.36",
        "score": 0,
        "bonus": 0
    },
    "expt": {
        "saveURL": "submit.simple.php",
        "trials": 100,
        "practiceTrials": 2,
        "marblesSampled": 100,
        "probRed": 0.5,
        "practiceLambdaAI": 5,
        "lambdaAI": 21.9,
        "roles": [
            "sender",
            "receiver"
        ],
        "cost": "unif",
        "goal": "over",
        "oppDishonesty": "dishonest_small",
        "catchTrials": [
            14,
            43,
            63,
            90,
            59,
            30,
            97,
            2,
            80,
            61
        ],
        "scoreTotal": {
            "player": -2437,
            "opp": 1914
        },
        "sona": {
            "experiment_id": 2228,
            "credit_token": "b315147ae43241ea9c65086cb510cfb7"
        },
        "pilot": false,
        "debug": false
    },
    "trials": [
        {
            "exptPart": "practice",
            "trialNumber": 1,
            "roleCurrent": "sender",
            "marblesSampled": 100,
            "probRed": 0.5,
            "practiceLambda": 5,
            "trialLambda": 21.9,
            "instructedLambda": "dishonest_small",
            "drawnRed": 94,
            "reportedRed": 77,
            "inferredRed": 75,
            "playerTrialScore": 0,
            "oppTrialScore": -19,
            "playerTotalScore": 0,
            "oppTotalScore": -19,
            "waitTime": 3094.474619232391,
            "responseTime": 1680912833398,
            "catchQuestion": "How many <b class=\"r\">red<\/b> marbles did you actually draw (before any changes)? ",
            "catchKey": 94,
            "catchResponse": 97,
            "catchTime": 1680912833398,
            "trialTime": 0
        },
        {
            "exptPart": "practice",
            "trialNumber": 2,
            "roleCurrent": "receiver",
            "marblesSampled": 100,
            "probRed": 0.5,
            "practiceLambda": 5,
            "trialLambda": 21.9,
            "instructedLambda": "dishonest_small",
            "drawnRed": 59,
            "reportedRed": 64,
            "inferredRed": 55,
            "playerTrialScore": -4,
            "oppTrialScore": 0,
            "playerTotalScore": -4,
            "oppTotalScore": -19,
            "waitTime": 5194.867462307013,
            "responseTime": 1680912863192,
            "catchQuestion": "How many <b class=\"r\">red<\/b> marbles did your opponent report drawing? ",
            "catchKey": 64,
            "catchResponse": 97,
            "catchTime": 1680912863192,
            "trialTime": 0
        },
        {
            "exptPart": "trial",
            "trialNumber": 1,
            "roleCurrent": "receiver",
            "marblesSampled": 100,
            "probRed": 0.5,
            "practiceLambda": 5,
            "trialLambda": 21.9,
            "instructedLambda": "dishonest_small",
            "drawnRed": 57,
            "reportedRed": 76,
            "inferredRed": 77,
            "playerTrialScore": -20,
            "oppTrialScore": 20,
            "playerTotalScore": -20,
            "oppTotalScore": 20,
            "waitTime": 5382.859231786071,
            "responseTime": 1680912885273,
            "catchQuestion": "How many <b class=\"r\">red<\/b> marbles did your opponent report drawing? ",
            "catchKey": -1,
            "catchResponse": -1,
            "catchTime": 1680912863192,
            "trialTime": 0
        },
        {
            "exptPart": "trial",
            "trialNumber": 2,
            "roleCurrent": "receiver",
            "marblesSampled": 100,
            "probRed": 0.5,
            "practiceLambda": 5,
            "trialLambda": 21.9,
            "instructedLambda": "dishonest_small",
            "drawnRed": 80,
            "reportedRed": 95,
            "inferredRed": 90,
            "playerTrialScore": -10,
            "oppTrialScore": 10,
            "playerTotalScore": -30,
            "oppTotalScore": 30,
            "waitTime": 7292.459063108972,
            "responseTime": 1680912899473,
            "catchQuestion": "How many <b class=\"r\">red<\/b> marbles did your opponent report drawing? ",
            "catchKey": -1,
            "catchResponse": -1,
            "catchTime": 1680912863192,
            "trialTime": 0
        },
        {
            "exptPart": "trial",
            "trialNumber": 3,
            "roleCurrent": "receiver",
            "marblesSampled": 100,
            "probRed": 0.5,
            "practiceLambda": 5,
            "trialLambda": 21.9,
            "instructedLambda": "dishonest_small",
            "drawnRed": 67,
            "reportedRed": 90,
            "inferredRed": 100,
            "playerTrialScore": -33,
            "oppTrialScore": 33,
            "playerTotalScore": -63,
            "oppTotalScore": 63,
            "waitTime": 5828.379919980194,
            "responseTime": 1680912910394,
            "catchQuestion": "How many <b class=\"r\">red<\/b> marbles did your opponent report drawing? ",
            "catchKey": 90,
            "catchResponse": 96,
            "catchTime": 1680912910394,
            "trialTime": 0
        },
        {
            "exptPart": "trial",
            "trialNumber": 4,
            "roleCurrent": "receiver",
            "marblesSampled": 100,
            "probRed": 0.5,
            "practiceLambda": 5,
            "trialLambda": 21.9,
            "instructedLambda": "dishonest_small",
            "drawnRed": 51,
            "reportedRed": 75,
            "inferredRed": 77,
            "playerTrialScore": -26,
            "oppTrialScore": 26,
            "playerTotalScore": -89,
            "oppTotalScore": 89,
            "waitTime": 5361.622058703431,
            "responseTime": 1680912927173,
            "catchQuestion": "How many <b class=\"r\">red<\/b> marbles did your opponent report drawing? ",
            "catchKey": -1,
            "catchResponse": -1,
            "catchTime": 1680912910394,
            "trialTime": 0
        },
        {
            "exptPart": "trial",
            "trialNumber": 5,
            "roleCurrent": "receiver",
            "marblesSampled": 100,
            "probRed": 0.5,
            "practiceLambda": 5,
            "trialLambda": 21.9,
            "instructedLambda": "dishonest_small",
            "drawnRed": 43,
            "reportedRed": 69,
            "inferredRed": 55,
            "playerTrialScore": -12,
            "oppTrialScore": 12,
            "playerTotalScore": -101,
            "oppTotalScore": 101,
            "waitTime": 5856.444581553289,
            "responseTime": 1680912938394,
            "catchQuestion": "How many <b class=\"r\">red<\/b> marbles did your opponent report drawing? ",
            "catchKey": -1,
            "catchResponse": -1,
            "catchTime": 1680912910394,
            "trialTime": 0
        },
        {
            "exptPart": "trial",
            "trialNumber": 6,
            "roleCurrent": "receiver",
            "marblesSampled": 100,
            "probRed": 0.5,
            "practiceLambda": 5,
            "trialLambda": 21.9,
            "instructedLambda": "dishonest_small",
            "drawnRed": 44,
            "reportedRed": 71,
            "inferredRed": 54,
            "playerTrialScore": -10,
            "oppTrialScore": 10,
            "playerTotalScore": -111,
            "oppTotalScore": 111,
            "waitTime": 6208.775688428259,
            "responseTime": 1680912949421,
            "catchQuestion": "How many <b class=\"r\">red<\/b> marbles did your opponent report drawing? ",
            "catchKey": -1,
            "catchResponse": -1,
            "catchTime": 1680912910394,
            "trialTime": 0
        },
        {
            "exptPart": "trial",
            "trialNumber": 7,
            "roleCurrent": "receiver",
            "marblesSampled": 100,
            "probRed": 0.5,
            "practiceLambda": 5,
            "trialLambda": 21.9,
            "instructedLambda": "dishonest_small",
            "drawnRed": 49,
            "reportedRed": 71,
            "inferredRed": 70,
            "playerTrialScore": -21,
            "oppTrialScore": 21,
            "playerTotalScore": -132,
            "oppTotalScore": 132,
            "waitTime": 5657.281717703732,
            "responseTime": 1680912961780,
            "catchQuestion": "How many <b class=\"r\">red<\/b> marbles did your opponent report drawing? ",
            "catchKey": -1,
            "catchResponse": -1,
            "catchTime": 1680912910394,
            "trialTime": 0
        },
        {
            "exptPart": "trial",
            "trialNumber": 8,
            "roleCurrent": "receiver",
            "marblesSampled": 100,
            "probRed": 0.5,
            "practiceLambda": 5,
            "trialLambda": 21.9,
            "instructedLambda": "dishonest_small",
            "drawnRed": 50,
            "reportedRed": 71,
            "inferredRed": 72,
            "playerTrialScore": -22,
            "oppTrialScore": 22,
            "playerTotalScore": -154,
            "oppTotalScore": 154,
            "waitTime": 6909.894994496572,
            "responseTime": 1680912974784,
            "catchQuestion": "How many <b class=\"r\">red<\/b> marbles did your opponent report drawing? ",
            "catchKey": -1,
            "catchResponse": -1,
            "catchTime": 1680912910394,
            "trialTime": 0
        },
        {
            "exptPart": "trial",
            "trialNumber": 9,
            "roleCurrent": "receiver",
            "marblesSampled": 100,
            "probRed": 0.5,
            "practiceLambda": 5,
            "trialLambda": 21.9,
            "instructedLambda": "dishonest_small",
            "drawnRed": 30,
            "reportedRed": 54,
            "inferredRed": 50,
            "playerTrialScore": -20,
            "oppTrialScore": 20,
            "playerTotalScore": -174,
            "oppTotalScore": 174,
            "waitTime": 6962.500432926161,
            "responseTime": 1680912986278,
            "catchQuestion": "How many <b class=\"r\">red<\/b> marbles did your opponent report drawing? ",
            "catchKey": -1,
            "catchResponse": -1,
            "catchTime": 1680912910394,
            "trialTime": 0
        },
        {
            "exptPart": "trial",
            "trialNumber": 10,
            "roleCurrent": "receiver",
            "marblesSampled": 100,
            "probRed": 0.5,
            "practiceLambda": 5,
            "trialLambda": 21.9,
            "instructedLambda": "dishonest_small",
            "drawnRed": 82,
            "reportedRed": 100,
            "inferredRed": 57,
            "playerTrialScore": -25,
            "oppTrialScore": 0,
            "playerTotalScore": -199,
            "oppTotalScore": 174,
            "waitTime": 6349.282883407193,
            "responseTime": 1680912999021,
            "catchQuestion": "How many <b class=\"r\">red<\/b> marbles did your opponent report drawing? ",
            "catchKey": -1,
            "catchResponse": -1,
            "catchTime": 1680912999021,
            "trialTime": 0
        },
        {
            "exptPart": "trial",
            "trialNumber": 11,
            "roleCurrent": "receiver",
            "marblesSampled": 100,
            "probRed": 0.5,
            "practiceLambda": 5,
            "trialLambda": 21.9,
            "instructedLambda": "dishonest_small",
            "drawnRed": 64,
            "reportedRed": 89,
            "inferredRed": 99,
            "playerTrialScore": -35,
            "oppTrialScore": 35,
            "playerTotalScore": -234,
            "oppTotalScore": 209,
            "waitTime": 5213.194979025522,
            "responseTime": 1680913034010,
            "catchQuestion": "How many <b class=\"r\">red<\/b> marbles did your opponent report drawing? ",
            "catchKey": -1,
            "catchResponse": -1,
            "catchTime": 1680912999021,
            "trialTime": 0
        },
        {
            "exptPart": "trial",
            "trialNumber": 12,
            "roleCurrent": "receiver",
            "marblesSampled": 100,
            "probRed": 0.5,
            "practiceLambda": 5,
            "trialLambda": 21.9,
            "instructedLambda": "dishonest_small",
            "drawnRed": 48,
            "reportedRed": 68,
            "inferredRed": 63,
            "playerTrialScore": -15,
            "oppTrialScore": 15,
            "playerTotalScore": -249,
            "oppTotalScore": 224,
            "waitTime": 5405.221973544033,
            "responseTime": 1680913045692,
            "catchQuestion": "How many <b class=\"r\">red<\/b> marbles did your opponent report drawing? ",
            "catchKey": -1,
            "catchResponse": -1,
            "catchTime": 1680912999021,
            "trialTime": 0
        },
        {
            "exptPart": "trial",
            "trialNumber": 13,
            "roleCurrent": "receiver",
            "marblesSampled": 100,
            "probRed": 0.5,
            "practiceLambda": 5,
            "trialLambda": 21.9,
            "instructedLambda": "dishonest_small",
            "drawnRed": 71,
            "reportedRed": 89,
            "inferredRed": 92,
            "playerTrialScore": -21,
            "oppTrialScore": 21,
            "playerTotalScore": -270,
            "oppTotalScore": 245,
            "waitTime": 5259.315949599082,
            "responseTime": 1680913055751,
            "catchQuestion": "How many <b class=\"r\">red<\/b> marbles did your opponent report drawing? ",
            "catchKey": -1,
            "catchResponse": -1,
            "catchTime": 1680912999021,
            "trialTime": 0
        },
        {
            "exptPart": "trial",
            "trialNumber": 14,
            "roleCurrent": "receiver",
            "marblesSampled": 100,
            "probRed": 0.5,
            "practiceLambda": 5,
            "trialLambda": 21.9,
            "instructedLambda": "dishonest_small",
            "drawnRed": 39,
            "reportedRed": 66,
            "inferredRed": 75,
            "playerTrialScore": -36,
            "oppTrialScore": 36,
            "playerTotalScore": -306,
            "oppTotalScore": 281,
            "waitTime": 6131.931564413948,
            "responseTime": 1680913077120,
            "catchQuestion": "How many <b class=\"r\">red<\/b> marbles did your opponent report drawing? ",
            "catchKey": -1,
            "catchResponse": -1,
            "catchTime": 1680912999021,
            "trialTime": 0
        },
        {
            "exptPart": "trial",
            "trialNumber": 15,
            "roleCurrent": "receiver",
            "marblesSampled": 100,
            "probRed": 0.5,
            "practiceLambda": 5,
            "trialLambda": 21.9,
            "instructedLambda": "dishonest_small",
            "drawnRed": 57,
            "reportedRed": 78,
            "inferredRed": 80,
            "playerTrialScore": -23,
            "oppTrialScore": 23,
            "playerTotalScore": -329,
            "oppTotalScore": 304,
            "waitTime": 6806.6904987322505,
            "responseTime": 1680913087124,
            "catchQuestion": "How many <b class=\"r\">red<\/b> marbles did your opponent report drawing? ",
            "catchKey": 78,
            "catchResponse": 78,
            "catchTime": 1680913087124,
            "trialTime": 0
        },
        {
            "exptPart": "trial",
            "trialNumber": 16,
            "roleCurrent": "receiver",
            "marblesSampled": 100,
            "probRed": 0.5,
            "practiceLambda": 5,
            "trialLambda": 21.9,
            "instructedLambda": "dishonest_small",
            "drawnRed": 19,
            "reportedRed": 39,
            "inferredRed": 33,
            "playerTrialScore": -14,
            "oppTrialScore": 14,
            "playerTotalScore": -343,
            "oppTotalScore": 318,
            "waitTime": 5700.494816547054,
            "responseTime": 1680913110366,
            "catchQuestion": "How many <b class=\"r\">red<\/b> marbles did your opponent report drawing? ",
            "catchKey": -1,
            "catchResponse": -1,
            "catchTime": 1680913087124,
            "trialTime": 0
        },
        {
            "exptPart": "trial",
            "trialNumber": 17,
            "roleCurrent": "receiver",
            "marblesSampled": 100,
            "probRed": 0.5,
            "practiceLambda": 5,
            "trialLambda": 21.9,
            "instructedLambda": "dishonest_small",
            "drawnRed": 44,
            "reportedRed": 58,
            "inferredRed": 70,
            "playerTrialScore": -26,
            "oppTrialScore": 26,
            "playerTotalScore": -369,
            "oppTotalScore": 344,
            "waitTime": 7479.40570635133,
            "responseTime": 1680913121809,
            "catchQuestion": "How many <b class=\"r\">red<\/b> marbles did your opponent report drawing? ",
            "catchKey": -1,
            "catchResponse": -1,
            "catchTime": 1680913087124,
            "trialTime": 0
        },
        {
            "exptPart": "trial",
            "trialNumber": 18,
            "roleCurrent": "receiver",
            "marblesSampled": 100,
            "probRed": 0.5,
            "practiceLambda": 5,
            "trialLambda": 21.9,
            "instructedLambda": "dishonest_small",
            "drawnRed": 75,
            "reportedRed": 97,
            "inferredRed": 99,
            "playerTrialScore": -24,
            "oppTrialScore": 24,
            "playerTotalScore": -393,
            "oppTotalScore": 368,
            "waitTime": 5452.419109379733,
            "responseTime": 1680913131768,
            "catchQuestion": "How many <b class=\"r\">red<\/b> marbles did your opponent report drawing? ",
            "catchKey": -1,
            "catchResponse": -1,
            "catchTime": 1680913087124,
            "trialTime": 0
        },
        {
            "exptPart": "trial",
            "trialNumber": 19,
            "roleCurrent": "receiver",
            "marblesSampled": 100,
            "probRed": 0.5,
            "practiceLambda": 5,
            "trialLambda": 21.9,
            "instructedLambda": "dishonest_small",
            "drawnRed": 66,
            "reportedRed": 84,
            "inferredRed": 89,
            "playerTrialScore": -23,
            "oppTrialScore": 23,
            "playerTotalScore": -416,
            "oppTotalScore": 391,
            "waitTime": 5246.812509952125,
            "responseTime": 1680913145058,
            "catchQuestion": "How many <b class=\"r\">red<\/b> marbles did your opponent report drawing? ",
            "catchKey": -1,
            "catchResponse": -1,
            "catchTime": 1680913087124,
            "trialTime": 0
        },
        {
            "exptPart": "trial",
            "trialNumber": 20,
            "roleCurrent": "receiver",
            "marblesSampled": 100,
            "probRed": 0.5,
            "practiceLambda": 5,
            "trialLambda": 21.9,
            "instructedLambda": "dishonest_small",
            "drawnRed": 44,
            "reportedRed": 65,
            "inferredRed": 62,
            "playerTrialScore": -18,
            "oppTrialScore": 18,
            "playerTotalScore": -434,
            "oppTotalScore": 409,
            "waitTime": 5593.511244458026,
            "responseTime": 1680913157570,
            "catchQuestion": "How many <b class=\"r\">red<\/b> marbles did your opponent report drawing? ",
            "catchKey": -1,
            "catchResponse": -1,
            "catchTime": 1680913157570,
            "trialTime": 0
        },
        {
            "exptPart": "trial",
            "trialNumber": 21,
            "roleCurrent": "receiver",
            "marblesSampled": 100,
            "probRed": 0.5,
            "practiceLambda": 5,
            "trialLambda": 21.9,
            "instructedLambda": "dishonest_small",
            "drawnRed": 50,
            "reportedRed": 63,
            "inferredRed": 60,
            "playerTrialScore": -10,
            "oppTrialScore": 10,
            "playerTotalScore": -444,
            "oppTotalScore": 419,
            "waitTime": 6513.989298873152,
            "responseTime": 1680913172357,
            "catchQuestion": "How many <b class=\"r\">red<\/b> marbles did your opponent report drawing? ",
            "catchKey": -1,
            "catchResponse": -1,
            "catchTime": 1680913157570,
            "trialTime": 0
        },
        {
            "exptPart": "trial",
            "trialNumber": 22,
            "roleCurrent": "receiver",
            "marblesSampled": 100,
            "probRed": 0.5,
            "practiceLambda": 5,
            "trialLambda": 21.9,
            "instructedLambda": "dishonest_small",
            "drawnRed": 51,
            "reportedRed": 66,
            "inferredRed": 66,
            "playerTrialScore": -15,
            "oppTrialScore": 15,
            "playerTotalScore": -459,
            "oppTotalScore": 434,
            "waitTime": 5284.782397691001,
            "responseTime": 1680913183007,
            "catchQuestion": "How many <b class=\"r\">red<\/b> marbles did your opponent report drawing? ",
            "catchKey": -1,
            "catchResponse": -1,
            "catchTime": 1680913157570,
            "trialTime": 0
        },
        {
            "exptPart": "trial",
            "trialNumber": 23,
            "roleCurrent": "receiver",
            "marblesSampled": 100,
            "probRed": 0.5,
            "practiceLambda": 5,
            "trialLambda": 21.9,
            "instructedLambda": "dishonest_small",
            "drawnRed": 49,
            "reportedRed": 69,
            "inferredRed": 69,
            "playerTrialScore": -20,
            "oppTrialScore": 20,
            "playerTotalScore": -479,
            "oppTotalScore": 454,
            "waitTime": 6715.631409927321,
            "responseTime": 1680913195391,
            "catchQuestion": "How many <b class=\"r\">red<\/b> marbles did your opponent report drawing? ",
            "catchKey": -1,
            "catchResponse": -1,
            "catchTime": 1680913157570,
            "trialTime": 0
        },
        {
            "exptPart": "trial",
            "trialNumber": 24,
            "roleCurrent": "receiver",
            "marblesSampled": 100,
            "probRed": 0.5,
            "practiceLambda": 5,
            "trialLambda": 21.9,
            "instructedLambda": "dishonest_small",
            "drawnRed": 23,
            "reportedRed": 49,
            "inferredRed": 52,
            "playerTrialScore": -29,
            "oppTrialScore": 29,
            "playerTotalScore": -508,
            "oppTotalScore": 483,
            "waitTime": 7404.571088340858,
            "responseTime": 1680913208663,
            "catchQuestion": "How many <b class=\"r\">red<\/b> marbles did your opponent report drawing? ",
            "catchKey": -1,
            "catchResponse": -1,
            "catchTime": 1680913157570,
            "trialTime": 0
        },
        {
            "exptPart": "trial",
            "trialNumber": 25,
            "roleCurrent": "receiver",
            "marblesSampled": 100,
            "probRed": 0.5,
            "practiceLambda": 5,
            "trialLambda": 21.9,
            "instructedLambda": "dishonest_small",
            "drawnRed": 83,
            "reportedRed": 100,
            "inferredRed": 98,
            "playerTrialScore": -15,
            "oppTrialScore": 15,
            "playerTotalScore": -523,
            "oppTotalScore": 498,
            "waitTime": 5785.358226837323,
            "responseTime": 1680913219791,
            "catchQuestion": "How many <b class=\"r\">red<\/b> marbles did your opponent report drawing? ",
            "catchKey": -1,
            "catchResponse": -1,
            "catchTime": 1680913157570,
            "trialTime": 0
        },
        {
            "exptPart": "trial",
            "trialNumber": 26,
            "roleCurrent": "receiver",
            "marblesSampled": 100,
            "probRed": 0.5,
            "practiceLambda": 5,
            "trialLambda": 21.9,
            "instructedLambda": "dishonest_small",
            "drawnRed": 64,
            "reportedRed": 82,
            "inferredRed": 85,
            "playerTrialScore": -21,
            "oppTrialScore": 21,
            "playerTotalScore": -544,
            "oppTotalScore": 519,
            "waitTime": 6902.343589248398,
            "responseTime": 1680913232790,
            "catchQuestion": "How many <b class=\"r\">red<\/b> marbles did your opponent report drawing? ",
            "catchKey": -1,
            "catchResponse": -1,
            "catchTime": 1680913157570,
            "trialTime": 0
        },
        {
            "exptPart": "trial",
            "trialNumber": 27,
            "roleCurrent": "receiver",
            "marblesSampled": 100,
            "probRed": 0.5,
            "practiceLambda": 5,
            "trialLambda": 21.9,
            "instructedLambda": "dishonest_small",
            "drawnRed": 81,
            "reportedRed": 100,
            "inferredRed": 100,
            "playerTrialScore": -19,
            "oppTrialScore": 19,
            "playerTotalScore": -563,
            "oppTotalScore": 538,
            "waitTime": 5244.990812736549,
            "responseTime": 1680913242725,
            "catchQuestion": "How many <b class=\"r\">red<\/b> marbles did your opponent report drawing? ",
            "catchKey": -1,
            "catchResponse": -1,
            "catchTime": 1680913157570,
            "trialTime": 0
        },
        {
            "exptPart": "trial",
            "trialNumber": 28,
            "roleCurrent": "receiver",
            "marblesSampled": 100,
            "probRed": 0.5,
            "practiceLambda": 5,
            "trialLambda": 21.9,
            "instructedLambda": "dishonest_small",
            "drawnRed": 93,
            "reportedRed": 100,
            "inferredRed": 12,
            "playerTrialScore": -81,
            "oppTrialScore": 0,
            "playerTotalScore": -644,
            "oppTotalScore": 538,
            "waitTime": 6672.041974906622,
            "responseTime": 1680913255084,
            "catchQuestion": "How many <b class=\"r\">red<\/b> marbles did your opponent report drawing? ",
            "catchKey": -1,
            "catchResponse": -1,
            "catchTime": 1680913157570,
            "trialTime": 0
        },
        {
            "exptPart": "trial",
            "trialNumber": 29,
            "roleCurrent": "receiver",
            "marblesSampled": 100,
            "probRed": 0.5,
            "practiceLambda": 5,
            "trialLambda": 21.9,
            "instructedLambda": "dishonest_small",
            "drawnRed": 71,
            "reportedRed": 95,
            "inferredRed": 94,
            "playerTrialScore": -23,
            "oppTrialScore": 23,
            "playerTotalScore": -667,
            "oppTotalScore": 561,
            "waitTime": 6223.00900693557,
            "responseTime": 1680913266535,
            "catchQuestion": "How many <b class=\"r\">red<\/b> marbles did your opponent report drawing? ",
            "catchKey": -1,
            "catchResponse": -1,
            "catchTime": 1680913157570,
            "trialTime": 0
        },
        {
            "exptPart": "trial",
            "trialNumber": 30,
            "roleCurrent": "receiver",
            "marblesSampled": 100,
            "probRed": 0.5,
            "practiceLambda": 5,
            "trialLambda": 21.9,
            "instructedLambda": "dishonest_small",
            "drawnRed": 73,
            "reportedRed": 100,
            "inferredRed": 99,
            "playerTrialScore": -26,
            "oppTrialScore": 26,
            "playerTotalScore": -693,
            "oppTotalScore": 587,
            "waitTime": 6186.049129789821,
            "responseTime": 1680913276422,
            "catchQuestion": "How many <b class=\"r\">red<\/b> marbles did your opponent report drawing? ",
            "catchKey": -1,
            "catchResponse": -1,
            "catchTime": 1680913276423,
            "trialTime": 0
        },
        {
            "exptPart": "trial",
            "trialNumber": 31,
            "roleCurrent": "receiver",
            "marblesSampled": 100,
            "probRed": 0.5,
            "practiceLambda": 5,
            "trialLambda": 21.9,
            "instructedLambda": "dishonest_small",
            "drawnRed": 39,
            "reportedRed": 63,
            "inferredRed": 45,
            "playerTrialScore": -6,
            "oppTrialScore": 6,
            "playerTotalScore": -699,
            "oppTotalScore": 593,
            "waitTime": 5342.762798520855,
            "responseTime": 1680913287078,
            "catchQuestion": "How many <b class=\"r\">red<\/b> marbles did your opponent report drawing? ",
            "catchKey": 63,
            "catchResponse": 63,
            "catchTime": 1680913287078,
            "trialTime": 0
        },
        {
            "exptPart": "trial",
            "trialNumber": 32,
            "roleCurrent": "receiver",
            "marblesSampled": 100,
            "probRed": 0.5,
            "practiceLambda": 5,
            "trialLambda": 21.9,
            "instructedLambda": "dishonest_small",
            "drawnRed": 48,
            "reportedRed": 76,
            "inferredRed": 72,
            "playerTrialScore": -24,
            "oppTrialScore": 24,
            "playerTotalScore": -723,
            "oppTotalScore": 617,
            "waitTime": 5641.542846487184,
            "responseTime": 1680913305325,
            "catchQuestion": "How many <b class=\"r\">red<\/b> marbles did your opponent report drawing? ",
            "catchKey": -1,
            "catchResponse": -1,
            "catchTime": 1680913287078,
            "trialTime": 0
        },
        {
            "exptPart": "trial",
            "trialNumber": 33,
            "roleCurrent": "receiver",
            "marblesSampled": 100,
            "probRed": 0.5,
            "practiceLambda": 5,
            "trialLambda": 21.9,
            "instructedLambda": "dishonest_small",
            "drawnRed": 51,
            "reportedRed": 73,
            "inferredRed": 70,
            "playerTrialScore": -19,
            "oppTrialScore": 19,
            "playerTotalScore": -742,
            "oppTotalScore": 636,
            "waitTime": 6553.434850353564,
            "responseTime": 1680913315664,
            "catchQuestion": "How many <b class=\"r\">red<\/b> marbles did your opponent report drawing? ",
            "catchKey": -1,
            "catchResponse": -1,
            "catchTime": 1680913287078,
            "trialTime": 0
        },
        {
            "exptPart": "trial",
            "trialNumber": 34,
            "roleCurrent": "receiver",
            "marblesSampled": 100,
            "probRed": 0.5,
            "practiceLambda": 5,
            "trialLambda": 21.9,
            "instructedLambda": "dishonest_small",
            "drawnRed": 49,
            "reportedRed": 68,
            "inferredRed": 66,
            "playerTrialScore": -17,
            "oppTrialScore": 17,
            "playerTotalScore": -759,
            "oppTotalScore": 653,
            "waitTime": 6393.84340284381,
            "responseTime": 1680913328271,
            "catchQuestion": "How many <b class=\"r\">red<\/b> marbles did your opponent report drawing? ",
            "catchKey": -1,
            "catchResponse": -1,
            "catchTime": 1680913287078,
            "trialTime": 0
        },
        {
            "exptPart": "trial",
            "trialNumber": 35,
            "roleCurrent": "receiver",
            "marblesSampled": 100,
            "probRed": 0.5,
            "practiceLambda": 5,
            "trialLambda": 21.9,
            "instructedLambda": "dishonest_small",
            "drawnRed": 64,
            "reportedRed": 85,
            "inferredRed": 80,
            "playerTrialScore": -16,
            "oppTrialScore": 16,
            "playerTotalScore": -775,
            "oppTotalScore": 669,
            "waitTime": 5399.92440268082,
            "responseTime": 1680913337693,
            "catchQuestion": "How many <b class=\"r\">red<\/b> marbles did your opponent report drawing? ",
            "catchKey": -1,
            "catchResponse": -1,
            "catchTime": 1680913287078,
            "trialTime": 0
        },
        {
            "exptPart": "trial",
            "trialNumber": 36,
            "roleCurrent": "receiver",
            "marblesSampled": 100,
            "probRed": 0.5,
            "practiceLambda": 5,
            "trialLambda": 21.9,
            "instructedLambda": "dishonest_small",
            "drawnRed": 17,
            "reportedRed": 41,
            "inferredRed": 50,
            "playerTrialScore": -33,
            "oppTrialScore": 33,
            "playerTotalScore": -808,
            "oppTotalScore": 702,
            "waitTime": 5146.02969022541,
            "responseTime": 1680913346859,
            "catchQuestion": "How many <b class=\"r\">red<\/b> marbles did your opponent report drawing? ",
            "catchKey": -1,
            "catchResponse": -1,
            "catchTime": 1680913287078,
            "trialTime": 0
        },
        {
            "exptPart": "trial",
            "trialNumber": 37,
            "roleCurrent": "receiver",
            "marblesSampled": 100,
            "probRed": 0.5,
            "practiceLambda": 5,
            "trialLambda": 21.9,
            "instructedLambda": "dishonest_small",
            "drawnRed": 52,
            "reportedRed": 76,
            "inferredRed": 67,
            "playerTrialScore": -15,
            "oppTrialScore": 15,
            "playerTotalScore": -823,
            "oppTotalScore": 717,
            "waitTime": 5258.77067512777,
            "responseTime": 1680913357469,
            "catchQuestion": "How many <b class=\"r\">red<\/b> marbles did your opponent report drawing? ",
            "catchKey": -1,
            "catchResponse": -1,
            "catchTime": 1680913287078,
            "trialTime": 0
        },
        {
            "exptPart": "trial",
            "trialNumber": 38,
            "roleCurrent": "receiver",
            "marblesSampled": 100,
            "probRed": 0.5,
            "practiceLambda": 5,
            "trialLambda": 21.9,
            "instructedLambda": "dishonest_small",
            "drawnRed": 3,
            "reportedRed": 20,
            "inferredRed": 25,
            "playerTrialScore": -22,
            "oppTrialScore": 22,
            "playerTotalScore": -845,
            "oppTotalScore": 739,
            "waitTime": 5311.5207427669775,
            "responseTime": 1680913370458,
            "catchQuestion": "How many <b class=\"r\">red<\/b> marbles did your opponent report drawing? ",
            "catchKey": -1,
            "catchResponse": -1,
            "catchTime": 1680913287078,
            "trialTime": 0
        },
        {
            "exptPart": "trial",
            "trialNumber": 39,
            "roleCurrent": "receiver",
            "marblesSampled": 100,
            "probRed": 0.5,
            "practiceLambda": 5,
            "trialLambda": 21.9,
            "instructedLambda": "dishonest_small",
            "drawnRed": 25,
            "reportedRed": 43,
            "inferredRed": 40,
            "playerTrialScore": -15,
            "oppTrialScore": 15,
            "playerTotalScore": -860,
            "oppTotalScore": 754,
            "waitTime": 5234.3172671424945,
            "responseTime": 1680913379870,
            "catchQuestion": "How many <b class=\"r\">red<\/b> marbles did your opponent report drawing? ",
            "catchKey": -1,
            "catchResponse": -1,
            "catchTime": 1680913287078,
            "trialTime": 0
        },
        {
            "exptPart": "trial",
            "trialNumber": 40,
            "roleCurrent": "receiver",
            "marblesSampled": 100,
            "probRed": 0.5,
            "practiceLambda": 5,
            "trialLambda": 21.9,
            "instructedLambda": "dishonest_small",
            "drawnRed": 48,
            "reportedRed": 69,
            "inferredRed": 90,
            "playerTrialScore": -42,
            "oppTrialScore": 42,
            "playerTotalScore": -902,
            "oppTotalScore": 796,
            "waitTime": 5495.03086550578,
            "responseTime": 1680913389265,
            "catchQuestion": "How many <b class=\"r\">red<\/b> marbles did your opponent report drawing? ",
            "catchKey": -1,
            "catchResponse": -1,
            "catchTime": 1680913389265,
            "trialTime": 0
        },
        {
            "exptPart": "trial",
            "trialNumber": 41,
            "roleCurrent": "receiver",
            "marblesSampled": 100,
            "probRed": 0.5,
            "practiceLambda": 5,
            "trialLambda": 21.9,
            "instructedLambda": "dishonest_small",
            "drawnRed": 39,
            "reportedRed": 61,
            "inferredRed": 60,
            "playerTrialScore": -21,
            "oppTrialScore": 21,
            "playerTotalScore": -923,
            "oppTotalScore": 817,
            "waitTime": 5894.192090399743,
            "responseTime": 1680913408766,
            "catchQuestion": "How many <b class=\"r\">red<\/b> marbles did your opponent report drawing? ",
            "catchKey": -1,
            "catchResponse": -1,
            "catchTime": 1680913389265,
            "trialTime": 0
        },
        {
            "exptPart": "trial",
            "trialNumber": 42,
            "roleCurrent": "receiver",
            "marblesSampled": 100,
            "probRed": 0.5,
            "practiceLambda": 5,
            "trialLambda": 21.9,
            "instructedLambda": "dishonest_small",
            "drawnRed": 89,
            "reportedRed": 100,
            "inferredRed": 95,
            "playerTrialScore": -6,
            "oppTrialScore": 6,
            "playerTotalScore": -929,
            "oppTotalScore": 823,
            "waitTime": 5424.363403737916,
            "responseTime": 1680913424088,
            "catchQuestion": "How many <b class=\"r\">red<\/b> marbles did your opponent report drawing? ",
            "catchKey": -1,
            "catchResponse": -1,
            "catchTime": 1680913389265,
            "trialTime": 0
        },
        {
            "exptPart": "trial",
            "trialNumber": 43,
            "roleCurrent": "receiver",
            "marblesSampled": 100,
            "probRed": 0.5,
            "practiceLambda": 5,
            "trialLambda": 21.9,
            "instructedLambda": "dishonest_small",
            "drawnRed": 53,
            "reportedRed": 70,
            "inferredRed": 70,
            "playerTrialScore": -17,
            "oppTrialScore": 17,
            "playerTotalScore": -946,
            "oppTotalScore": 840,
            "waitTime": 6673.013493419401,
            "responseTime": 1680913434492,
            "catchQuestion": "How many <b class=\"r\">red<\/b> marbles did your opponent report drawing? ",
            "catchKey": -1,
            "catchResponse": -1,
            "catchTime": 1680913389265,
            "trialTime": 0
        },
        {
            "exptPart": "trial",
            "trialNumber": 44,
            "roleCurrent": "receiver",
            "marblesSampled": 100,
            "probRed": 0.5,
            "practiceLambda": 5,
            "trialLambda": 21.9,
            "instructedLambda": "dishonest_small",
            "drawnRed": 20,
            "reportedRed": 36,
            "inferredRed": 36,
            "playerTrialScore": -16,
            "oppTrialScore": 16,
            "playerTotalScore": -962,
            "oppTotalScore": 856,
            "waitTime": 6553.218459679575,
            "responseTime": 1680913445279,
            "catchQuestion": "How many <b class=\"r\">red<\/b> marbles did your opponent report drawing? ",
            "catchKey": 36,
            "catchResponse": 36,
            "catchTime": 1680913445279,
            "trialTime": 0
        },
        {
            "exptPart": "trial",
            "trialNumber": 45,
            "roleCurrent": "receiver",
            "marblesSampled": 100,
            "probRed": 0.5,
            "practiceLambda": 5,
            "trialLambda": 21.9,
            "instructedLambda": "dishonest_small",
            "drawnRed": 51,
            "reportedRed": 63,
            "inferredRed": 63,
            "playerTrialScore": -12,
            "oppTrialScore": 12,
            "playerTotalScore": -974,
            "oppTotalScore": 868,
            "waitTime": 5396.313268089141,
            "responseTime": 1680913458999,
            "catchQuestion": "How many <b class=\"r\">red<\/b> marbles did your opponent report drawing? ",
            "catchKey": -1,
            "catchResponse": -1,
            "catchTime": 1680913445279,
            "trialTime": 0
        },
        {
            "exptPart": "trial",
            "trialNumber": 46,
            "roleCurrent": "receiver",
            "marblesSampled": 100,
            "probRed": 0.5,
            "practiceLambda": 5,
            "trialLambda": 21.9,
            "instructedLambda": "dishonest_small",
            "drawnRed": 33,
            "reportedRed": 52,
            "inferredRed": 52,
            "playerTrialScore": -19,
            "oppTrialScore": 19,
            "playerTotalScore": -993,
            "oppTotalScore": 887,
            "waitTime": 7034.067180465421,
            "responseTime": 1680913469361,
            "catchQuestion": "How many <b class=\"r\">red<\/b> marbles did your opponent report drawing? ",
            "catchKey": -1,
            "catchResponse": -1,
            "catchTime": 1680913445279,
            "trialTime": 0
        },
        {
            "exptPart": "trial",
            "trialNumber": 47,
            "roleCurrent": "receiver",
            "marblesSampled": 100,
            "probRed": 0.5,
            "practiceLambda": 5,
            "trialLambda": 21.9,
            "instructedLambda": "dishonest_small",
            "drawnRed": 77,
            "reportedRed": 100,
            "inferredRed": 100,
            "playerTrialScore": -23,
            "oppTrialScore": 23,
            "playerTotalScore": -1016,
            "oppTotalScore": 910,
            "waitTime": 5710.507999570249,
            "responseTime": 1680913478103,
            "catchQuestion": "How many <b class=\"r\">red<\/b> marbles did your opponent report drawing? ",
            "catchKey": -1,
            "catchResponse": -1,
            "catchTime": 1680913445279,
            "trialTime": 0
        },
        {
            "exptPart": "trial",
            "trialNumber": 48,
            "roleCurrent": "receiver",
            "marblesSampled": 100,
            "probRed": 0.5,
            "practiceLambda": 5,
            "trialLambda": 21.9,
            "instructedLambda": "dishonest_small",
            "drawnRed": 51,
            "reportedRed": 71,
            "inferredRed": 72,
            "playerTrialScore": -21,
            "oppTrialScore": 21,
            "playerTotalScore": -1037,
            "oppTotalScore": 931,
            "waitTime": 7277.149160177149,
            "responseTime": 1680913489669,
            "catchQuestion": "How many <b class=\"r\">red<\/b> marbles did your opponent report drawing? ",
            "catchKey": -1,
            "catchResponse": -1,
            "catchTime": 1680913445279,
            "trialTime": 0
        },
        {
            "exptPart": "trial",
            "trialNumber": 49,
            "roleCurrent": "receiver",
            "marblesSampled": 100,
            "probRed": 0.5,
            "practiceLambda": 5,
            "trialLambda": 21.9,
            "instructedLambda": "dishonest_small",
            "drawnRed": 41,
            "reportedRed": 69,
            "inferredRed": 69,
            "playerTrialScore": -28,
            "oppTrialScore": 28,
            "playerTotalScore": -1065,
            "oppTotalScore": 959,
            "waitTime": 6268.084516136858,
            "responseTime": 1680913499592,
            "catchQuestion": "How many <b class=\"r\">red<\/b> marbles did your opponent report drawing? ",
            "catchKey": -1,
            "catchResponse": -1,
            "catchTime": 1680913445279,
            "trialTime": 0
        },
        {
            "exptPart": "trial",
            "trialNumber": 50,
            "roleCurrent": "receiver",
            "marblesSampled": 100,
            "probRed": 0.5,
            "practiceLambda": 5,
            "trialLambda": 21.9,
            "instructedLambda": "dishonest_small",
            "drawnRed": 72,
            "reportedRed": 99,
            "inferredRed": 99,
            "playerTrialScore": -27,
            "oppTrialScore": 27,
            "playerTotalScore": -1092,
            "oppTotalScore": 986,
            "waitTime": 6160.818992424818,
            "responseTime": 1680913509058,
            "catchQuestion": "How many <b class=\"r\">red<\/b> marbles did your opponent report drawing? ",
            "catchKey": -1,
            "catchResponse": -1,
            "catchTime": 1680913509058,
            "trialTime": 0
        },
        {
            "exptPart": "trial",
            "trialNumber": 51,
            "roleCurrent": "receiver",
            "marblesSampled": 100,
            "probRed": 0.5,
            "practiceLambda": 5,
            "trialLambda": 21.9,
            "instructedLambda": "dishonest_small",
            "drawnRed": 38,
            "reportedRed": 57,
            "inferredRed": 57,
            "playerTrialScore": -19,
            "oppTrialScore": 19,
            "playerTotalScore": -1111,
            "oppTotalScore": 1005,
            "waitTime": 5460.614943091188,
            "responseTime": 1680913528937,
            "catchQuestion": "How many <b class=\"r\">red<\/b> marbles did your opponent report drawing? ",
            "catchKey": -1,
            "catchResponse": -1,
            "catchTime": 1680913509058,
            "trialTime": 0
        },
        {
            "exptPart": "trial",
            "trialNumber": 52,
            "roleCurrent": "receiver",
            "marblesSampled": 100,
            "probRed": 0.5,
            "practiceLambda": 5,
            "trialLambda": 21.9,
            "instructedLambda": "dishonest_small",
            "drawnRed": 81,
            "reportedRed": 100,
            "inferredRed": 100,
            "playerTrialScore": -19,
            "oppTrialScore": 19,
            "playerTotalScore": -1130,
            "oppTotalScore": 1024,
            "waitTime": 6710.022128311709,
            "responseTime": 1680913539225,
            "catchQuestion": "How many <b class=\"r\">red<\/b> marbles did your opponent report drawing? ",
            "catchKey": -1,
            "catchResponse": -1,
            "catchTime": 1680913509058,
            "trialTime": 0
        },
        {
            "exptPart": "trial",
            "trialNumber": 53,
            "roleCurrent": "receiver",
            "marblesSampled": 100,
            "probRed": 0.5,
            "practiceLambda": 5,
            "trialLambda": 21.9,
            "instructedLambda": "dishonest_small",
            "drawnRed": 40,
            "reportedRed": 64,
            "inferredRed": 64,
            "playerTrialScore": -24,
            "oppTrialScore": 24,
            "playerTotalScore": -1154,
            "oppTotalScore": 1048,
            "waitTime": 6499.636130348297,
            "responseTime": 1680913552731,
            "catchQuestion": "How many <b class=\"r\">red<\/b> marbles did your opponent report drawing? ",
            "catchKey": -1,
            "catchResponse": -1,
            "catchTime": 1680913509058,
            "trialTime": 0
        },
        {
            "exptPart": "trial",
            "trialNumber": 54,
            "roleCurrent": "receiver",
            "marblesSampled": 100,
            "probRed": 0.5,
            "practiceLambda": 5,
            "trialLambda": 21.9,
            "instructedLambda": "dishonest_small",
            "drawnRed": 66,
            "reportedRed": 94,
            "inferredRed": 94,
            "playerTrialScore": -28,
            "oppTrialScore": 28,
            "playerTotalScore": -1182,
            "oppTotalScore": 1076,
            "waitTime": 6554.474263151098,
            "responseTime": 1680913562920,
            "catchQuestion": "How many <b class=\"r\">red<\/b> marbles did your opponent report drawing? ",
            "catchKey": -1,
            "catchResponse": -1,
            "catchTime": 1680913509058,
            "trialTime": 0
        },
        {
            "exptPart": "trial",
            "trialNumber": 55,
            "roleCurrent": "receiver",
            "marblesSampled": 100,
            "probRed": 0.5,
            "practiceLambda": 5,
            "trialLambda": 21.9,
            "instructedLambda": "dishonest_small",
            "drawnRed": 66,
            "reportedRed": 84,
            "inferredRed": 84,
            "playerTrialScore": -18,
            "oppTrialScore": 18,
            "playerTotalScore": -1200,
            "oppTotalScore": 1094,
            "waitTime": 5359.853816694114,
            "responseTime": 1680913571980,
            "catchQuestion": "How many <b class=\"r\">red<\/b> marbles did your opponent report drawing? ",
            "catchKey": -1,
            "catchResponse": -1,
            "catchTime": 1680913509058,
            "trialTime": 0
        },
        {
            "exptPart": "trial",
            "trialNumber": 56,
            "roleCurrent": "receiver",
            "marblesSampled": 100,
            "probRed": 0.5,
            "practiceLambda": 5,
            "trialLambda": 21.9,
            "instructedLambda": "dishonest_small",
            "drawnRed": 73,
            "reportedRed": 90,
            "inferredRed": 90,
            "playerTrialScore": -17,
            "oppTrialScore": 17,
            "playerTotalScore": -1217,
            "oppTotalScore": 1111,
            "waitTime": 5252.111676723223,
            "responseTime": 1680913580704,
            "catchQuestion": "How many <b class=\"r\">red<\/b> marbles did your opponent report drawing? ",
            "catchKey": -1,
            "catchResponse": -1,
            "catchTime": 1680913509058,
            "trialTime": 0
        },
        {
            "exptPart": "trial",
            "trialNumber": 57,
            "roleCurrent": "receiver",
            "marblesSampled": 100,
            "probRed": 0.5,
            "practiceLambda": 5,
            "trialLambda": 21.9,
            "instructedLambda": "dishonest_small",
            "drawnRed": 57,
            "reportedRed": 83,
            "inferredRed": 83,
            "playerTrialScore": -26,
            "oppTrialScore": 26,
            "playerTotalScore": -1243,
            "oppTotalScore": 1137,
            "waitTime": 6228.683476837647,
            "responseTime": 1680913593659,
            "catchQuestion": "How many <b class=\"r\">red<\/b> marbles did your opponent report drawing? ",
            "catchKey": -1,
            "catchResponse": -1,
            "catchTime": 1680913509058,
            "trialTime": 0
        },
        {
            "exptPart": "trial",
            "trialNumber": 58,
            "roleCurrent": "receiver",
            "marblesSampled": 100,
            "probRed": 0.5,
            "practiceLambda": 5,
            "trialLambda": 21.9,
            "instructedLambda": "dishonest_small",
            "drawnRed": 24,
            "reportedRed": 42,
            "inferredRed": 40,
            "playerTrialScore": -16,
            "oppTrialScore": 16,
            "playerTotalScore": -1259,
            "oppTotalScore": 1153,
            "waitTime": 5585.596861198419,
            "responseTime": 1680913602733,
            "catchQuestion": "How many <b class=\"r\">red<\/b> marbles did your opponent report drawing? ",
            "catchKey": -1,
            "catchResponse": -1,
            "catchTime": 1680913509058,
            "trialTime": 0
        },
        {
            "exptPart": "trial",
            "trialNumber": 59,
            "roleCurrent": "receiver",
            "marblesSampled": 100,
            "probRed": 0.5,
            "practiceLambda": 5,
            "trialLambda": 21.9,
            "instructedLambda": "dishonest_small",
            "drawnRed": 63,
            "reportedRed": 78,
            "inferredRed": 78,
            "playerTrialScore": -15,
            "oppTrialScore": 15,
            "playerTotalScore": -1274,
            "oppTotalScore": 1168,
            "waitTime": 6391.953302842753,
            "responseTime": 1680913613305,
            "catchQuestion": "How many <b class=\"r\">red<\/b> marbles did your opponent report drawing? ",
            "catchKey": -1,
            "catchResponse": -1,
            "catchTime": 1680913509058,
            "trialTime": 0
        },
        {
            "exptPart": "trial",
            "trialNumber": 60,
            "roleCurrent": "receiver",
            "marblesSampled": 100,
            "probRed": 0.5,
            "practiceLambda": 5,
            "trialLambda": 21.9,
            "instructedLambda": "dishonest_small",
            "drawnRed": 97,
            "reportedRed": 100,
            "inferredRed": 100,
            "playerTrialScore": -3,
            "oppTrialScore": 3,
            "playerTotalScore": -1277,
            "oppTotalScore": 1171,
            "waitTime": 5866.46192213114,
            "responseTime": 1680913622469,
            "catchQuestion": "How many <b class=\"r\">red<\/b> marbles did your opponent report drawing? ",
            "catchKey": 100,
            "catchResponse": 100,
            "catchTime": 1680913622469,
            "trialTime": 0
        },
        {
            "exptPart": "trial",
            "trialNumber": 61,
            "roleCurrent": "receiver",
            "marblesSampled": 100,
            "probRed": 0.5,
            "practiceLambda": 5,
            "trialLambda": 21.9,
            "instructedLambda": "dishonest_small",
            "drawnRed": 28,
            "reportedRed": 46,
            "inferredRed": 46,
            "playerTrialScore": -18,
            "oppTrialScore": 18,
            "playerTotalScore": -1295,
            "oppTotalScore": 1189,
            "waitTime": 6683.443851747709,
            "responseTime": 1680913641083,
            "catchQuestion": "How many <b class=\"r\">red<\/b> marbles did your opponent report drawing? ",
            "catchKey": -1,
            "catchResponse": -1,
            "catchTime": 1680913622469,
            "trialTime": 0
        },
        {
            "exptPart": "trial",
            "trialNumber": 62,
            "roleCurrent": "receiver",
            "marblesSampled": 100,
            "probRed": 0.5,
            "practiceLambda": 5,
            "trialLambda": 21.9,
            "instructedLambda": "dishonest_small",
            "drawnRed": 55,
            "reportedRed": 79,
            "inferredRed": 77,
            "playerTrialScore": -22,
            "oppTrialScore": 22,
            "playerTotalScore": -1317,
            "oppTotalScore": 1211,
            "waitTime": 5682.636252142896,
            "responseTime": 1680913649807,
            "catchQuestion": "How many <b class=\"r\">red<\/b> marbles did your opponent report drawing? ",
            "catchKey": 79,
            "catchResponse": 79,
            "catchTime": 1680913649807,
            "trialTime": 0
        },
        {
            "exptPart": "trial",
            "trialNumber": 63,
            "roleCurrent": "receiver",
            "marblesSampled": 100,
            "probRed": 0.5,
            "practiceLambda": 5,
            "trialLambda": 21.9,
            "instructedLambda": "dishonest_small",
            "drawnRed": 44,
            "reportedRed": 70,
            "inferredRed": 77,
            "playerTrialScore": -33,
            "oppTrialScore": 33,
            "playerTotalScore": -1350,
            "oppTotalScore": 1244,
            "waitTime": 7077.099509392969,
            "responseTime": 1680913668430,
            "catchQuestion": "How many <b class=\"r\">red<\/b> marbles did your opponent report drawing? ",
            "catchKey": -1,
            "catchResponse": -1,
            "catchTime": 1680913649807,
            "trialTime": 0
        },
        {
            "exptPart": "trial",
            "trialNumber": 64,
            "roleCurrent": "receiver",
            "marblesSampled": 100,
            "probRed": 0.5,
            "practiceLambda": 5,
            "trialLambda": 21.9,
            "instructedLambda": "dishonest_small",
            "drawnRed": 67,
            "reportedRed": 89,
            "inferredRed": 98,
            "playerTrialScore": -31,
            "oppTrialScore": 31,
            "playerTotalScore": -1381,
            "oppTotalScore": 1275,
            "waitTime": 5206.768421057377,
            "responseTime": 1680913677241,
            "catchQuestion": "How many <b class=\"r\">red<\/b> marbles did your opponent report drawing? ",
            "catchKey": 89,
            "catchResponse": 89,
            "catchTime": 1680913677241,
            "trialTime": 0
        },
        {
            "exptPart": "trial",
            "trialNumber": 65,
            "roleCurrent": "receiver",
            "marblesSampled": 100,
            "probRed": 0.5,
            "practiceLambda": 5,
            "trialLambda": 21.9,
            "instructedLambda": "dishonest_small",
            "drawnRed": 38,
            "reportedRed": 64,
            "inferredRed": 65,
            "playerTrialScore": -27,
            "oppTrialScore": 27,
            "playerTotalScore": -1408,
            "oppTotalScore": 1302,
            "waitTime": 6193.326124198924,
            "responseTime": 1680913697979,
            "catchQuestion": "How many <b class=\"r\">red<\/b> marbles did your opponent report drawing? ",
            "catchKey": -1,
            "catchResponse": -1,
            "catchTime": 1680913677241,
            "trialTime": 0
        },
        {
            "exptPart": "trial",
            "trialNumber": 66,
            "roleCurrent": "receiver",
            "marblesSampled": 100,
            "probRed": 0.5,
            "practiceLambda": 5,
            "trialLambda": 21.9,
            "instructedLambda": "dishonest_small",
            "drawnRed": 84,
            "reportedRed": 100,
            "inferredRed": 80,
            "playerTrialScore": -4,
            "oppTrialScore": 0,
            "playerTotalScore": -1412,
            "oppTotalScore": 1302,
            "waitTime": 6294.834190515141,
            "responseTime": 1680913707559,
            "catchQuestion": "How many <b class=\"r\">red<\/b> marbles did your opponent report drawing? ",
            "catchKey": -1,
            "catchResponse": -1,
            "catchTime": 1680913677241,
            "trialTime": 0
        },
        {
            "exptPart": "trial",
            "trialNumber": 67,
            "roleCurrent": "receiver",
            "marblesSampled": 100,
            "probRed": 0.5,
            "practiceLambda": 5,
            "trialLambda": 21.9,
            "instructedLambda": "dishonest_small",
            "drawnRed": 10,
            "reportedRed": 33,
            "inferredRed": 33,
            "playerTrialScore": -23,
            "oppTrialScore": 23,
            "playerTotalScore": -1435,
            "oppTotalScore": 1325,
            "waitTime": 5813.887784405674,
            "responseTime": 1680913716188,
            "catchQuestion": "How many <b class=\"r\">red<\/b> marbles did your opponent report drawing? ",
            "catchKey": -1,
            "catchResponse": -1,
            "catchTime": 1680913677241,
            "trialTime": 0
        },
        {
            "exptPart": "trial",
            "trialNumber": 68,
            "roleCurrent": "receiver",
            "marblesSampled": 100,
            "probRed": 0.5,
            "practiceLambda": 5,
            "trialLambda": 21.9,
            "instructedLambda": "dishonest_small",
            "drawnRed": 25,
            "reportedRed": 50,
            "inferredRed": 50,
            "playerTrialScore": -25,
            "oppTrialScore": 25,
            "playerTotalScore": -1460,
            "oppTotalScore": 1350,
            "waitTime": 5150.880030036011,
            "responseTime": 1680913725130,
            "catchQuestion": "How many <b class=\"r\">red<\/b> marbles did your opponent report drawing? ",
            "catchKey": -1,
            "catchResponse": -1,
            "catchTime": 1680913677241,
            "trialTime": 0
        },
        {
            "exptPart": "trial",
            "trialNumber": 69,
            "roleCurrent": "receiver",
            "marblesSampled": 100,
            "probRed": 0.5,
            "practiceLambda": 5,
            "trialLambda": 21.9,
            "instructedLambda": "dishonest_small",
            "drawnRed": 58,
            "reportedRed": 77,
            "inferredRed": 77,
            "playerTrialScore": -19,
            "oppTrialScore": 19,
            "playerTotalScore": -1479,
            "oppTotalScore": 1369,
            "waitTime": 5740.856394833601,
            "responseTime": 1680913733492,
            "catchQuestion": "How many <b class=\"r\">red<\/b> marbles did your opponent report drawing? ",
            "catchKey": -1,
            "catchResponse": -1,
            "catchTime": 1680913677241,
            "trialTime": 0
        },
        {
            "exptPart": "trial",
            "trialNumber": 70,
            "roleCurrent": "receiver",
            "marblesSampled": 100,
            "probRed": 0.5,
            "practiceLambda": 5,
            "trialLambda": 21.9,
            "instructedLambda": "dishonest_small",
            "drawnRed": 56,
            "reportedRed": 82,
            "inferredRed": 84,
            "playerTrialScore": -28,
            "oppTrialScore": 28,
            "playerTotalScore": -1507,
            "oppTotalScore": 1397,
            "waitTime": 5209.86246740521,
            "responseTime": 1680913741904,
            "catchQuestion": "How many <b class=\"r\">red<\/b> marbles did your opponent report drawing? ",
            "catchKey": -1,
            "catchResponse": -1,
            "catchTime": 1680913741904,
            "trialTime": 0
        },
        {
            "exptPart": "trial",
            "trialNumber": 71,
            "roleCurrent": "receiver",
            "marblesSampled": 100,
            "probRed": 0.5,
            "practiceLambda": 5,
            "trialLambda": 21.9,
            "instructedLambda": "dishonest_small",
            "drawnRed": 55,
            "reportedRed": 76,
            "inferredRed": 100,
            "playerTrialScore": -45,
            "oppTrialScore": 45,
            "playerTotalScore": -1552,
            "oppTotalScore": 1442,
            "waitTime": 6969.232271543858,
            "responseTime": 1680913752585,
            "catchQuestion": "How many <b class=\"r\">red<\/b> marbles did your opponent report drawing? ",
            "catchKey": -1,
            "catchResponse": -1,
            "catchTime": 1680913741904,
            "trialTime": 0
        },
        {
            "exptPart": "trial",
            "trialNumber": 72,
            "roleCurrent": "receiver",
            "marblesSampled": 100,
            "probRed": 0.5,
            "practiceLambda": 5,
            "trialLambda": 21.9,
            "instructedLambda": "dishonest_small",
            "drawnRed": 58,
            "reportedRed": 81,
            "inferredRed": 100,
            "playerTrialScore": -42,
            "oppTrialScore": 42,
            "playerTotalScore": -1594,
            "oppTotalScore": 1484,
            "waitTime": 5977.5348642597655,
            "responseTime": 1680913760692,
            "catchQuestion": "How many <b class=\"r\">red<\/b> marbles did your opponent report drawing? ",
            "catchKey": -1,
            "catchResponse": -1,
            "catchTime": 1680913741904,
            "trialTime": 0
        },
        {
            "exptPart": "trial",
            "trialNumber": 73,
            "roleCurrent": "receiver",
            "marblesSampled": 100,
            "probRed": 0.5,
            "practiceLambda": 5,
            "trialLambda": 21.9,
            "instructedLambda": "dishonest_small",
            "drawnRed": 73,
            "reportedRed": 94,
            "inferredRed": 100,
            "playerTrialScore": -27,
            "oppTrialScore": 27,
            "playerTotalScore": -1621,
            "oppTotalScore": 1511,
            "waitTime": 6546.179179313506,
            "responseTime": 1680913770086,
            "catchQuestion": "How many <b class=\"r\">red<\/b> marbles did your opponent report drawing? ",
            "catchKey": -1,
            "catchResponse": -1,
            "catchTime": 1680913741904,
            "trialTime": 0
        },
        {
            "exptPart": "trial",
            "trialNumber": 74,
            "roleCurrent": "receiver",
            "marblesSampled": 100,
            "probRed": 0.5,
            "practiceLambda": 5,
            "trialLambda": 21.9,
            "instructedLambda": "dishonest_small",
            "drawnRed": 46,
            "reportedRed": 77,
            "inferredRed": 100,
            "playerTrialScore": -54,
            "oppTrialScore": 54,
            "playerTotalScore": -1675,
            "oppTotalScore": 1565,
            "waitTime": 7447.6712175345365,
            "responseTime": 1680913781052,
            "catchQuestion": "How many <b class=\"r\">red<\/b> marbles did your opponent report drawing? ",
            "catchKey": -1,
            "catchResponse": -1,
            "catchTime": 1680913741904,
            "trialTime": 0
        },
        {
            "exptPart": "trial",
            "trialNumber": 75,
            "roleCurrent": "receiver",
            "marblesSampled": 100,
            "probRed": 0.5,
            "practiceLambda": 5,
            "trialLambda": 21.9,
            "instructedLambda": "dishonest_small",
            "drawnRed": 78,
            "reportedRed": 100,
            "inferredRed": 100,
            "playerTrialScore": -22,
            "oppTrialScore": 22,
            "playerTotalScore": -1697,
            "oppTotalScore": 1587,
            "waitTime": 6592.740286481094,
            "responseTime": 1680913798460,
            "catchQuestion": "How many <b class=\"r\">red<\/b> marbles did your opponent report drawing? ",
            "catchKey": -1,
            "catchResponse": -1,
            "catchTime": 1680913741904,
            "trialTime": 0
        },
        {
            "exptPart": "trial",
            "trialNumber": 76,
            "roleCurrent": "receiver",
            "marblesSampled": 100,
            "probRed": 0.5,
            "practiceLambda": 5,
            "trialLambda": 21.9,
            "instructedLambda": "dishonest_small",
            "drawnRed": 79,
            "reportedRed": 100,
            "inferredRed": 100,
            "playerTrialScore": -21,
            "oppTrialScore": 21,
            "playerTotalScore": -1718,
            "oppTotalScore": 1608,
            "waitTime": 7002.694196231876,
            "responseTime": 1680913810258,
            "catchQuestion": "How many <b class=\"r\">red<\/b> marbles did your opponent report drawing? ",
            "catchKey": -1,
            "catchResponse": -1,
            "catchTime": 1680913741904,
            "trialTime": 0
        },
        {
            "exptPart": "trial",
            "trialNumber": 77,
            "roleCurrent": "receiver",
            "marblesSampled": 100,
            "probRed": 0.5,
            "practiceLambda": 5,
            "trialLambda": 21.9,
            "instructedLambda": "dishonest_small",
            "drawnRed": 76,
            "reportedRed": 98,
            "inferredRed": 100,
            "playerTrialScore": -24,
            "oppTrialScore": 24,
            "playerTotalScore": -1742,
            "oppTotalScore": 1632,
            "waitTime": 6159.487026963562,
            "responseTime": 1680913819421,
            "catchQuestion": "How many <b class=\"r\">red<\/b> marbles did your opponent report drawing? ",
            "catchKey": -1,
            "catchResponse": -1,
            "catchTime": 1680913741904,
            "trialTime": 0
        },
        {
            "exptPart": "trial",
            "trialNumber": 78,
            "roleCurrent": "receiver",
            "marblesSampled": 100,
            "probRed": 0.5,
            "practiceLambda": 5,
            "trialLambda": 21.9,
            "instructedLambda": "dishonest_small",
            "drawnRed": 60,
            "reportedRed": 84,
            "inferredRed": 100,
            "playerTrialScore": -40,
            "oppTrialScore": 40,
            "playerTotalScore": -1782,
            "oppTotalScore": 1672,
            "waitTime": 6345.526220339848,
            "responseTime": 1680913828921,
            "catchQuestion": "How many <b class=\"r\">red<\/b> marbles did your opponent report drawing? ",
            "catchKey": -1,
            "catchResponse": -1,
            "catchTime": 1680913741904,
            "trialTime": 0
        },
        {
            "exptPart": "trial",
            "trialNumber": 79,
            "roleCurrent": "receiver",
            "marblesSampled": 100,
            "probRed": 0.5,
            "practiceLambda": 5,
            "trialLambda": 21.9,
            "instructedLambda": "dishonest_small",
            "drawnRed": 68,
            "reportedRed": 82,
            "inferredRed": 100,
            "playerTrialScore": -32,
            "oppTrialScore": 32,
            "playerTotalScore": -1814,
            "oppTotalScore": 1704,
            "waitTime": 7453.479808519718,
            "responseTime": 1680913839109,
            "catchQuestion": "How many <b class=\"r\">red<\/b> marbles did your opponent report drawing? ",
            "catchKey": -1,
            "catchResponse": -1,
            "catchTime": 1680913741904,
            "trialTime": 0
        },
        {
            "exptPart": "trial",
            "trialNumber": 80,
            "roleCurrent": "receiver",
            "marblesSampled": 100,
            "probRed": 0.5,
            "practiceLambda": 5,
            "trialLambda": 21.9,
            "instructedLambda": "dishonest_small",
            "drawnRed": 41,
            "reportedRed": 70,
            "inferredRed": 100,
            "playerTrialScore": -59,
            "oppTrialScore": 59,
            "playerTotalScore": -1873,
            "oppTotalScore": 1763,
            "waitTime": 5375.9169896746325,
            "responseTime": 1680913847448,
            "catchQuestion": "How many <b class=\"r\">red<\/b> marbles did your opponent report drawing? ",
            "catchKey": -1,
            "catchResponse": -1,
            "catchTime": 1680913847448,
            "trialTime": 0
        },
        {
            "exptPart": "trial",
            "trialNumber": 81,
            "roleCurrent": "receiver",
            "marblesSampled": 100,
            "probRed": 0.5,
            "practiceLambda": 5,
            "trialLambda": 21.9,
            "instructedLambda": "dishonest_small",
            "drawnRed": 43,
            "reportedRed": 61,
            "inferredRed": 10,
            "playerTrialScore": -33,
            "oppTrialScore": 0,
            "playerTotalScore": -1906,
            "oppTotalScore": 1763,
            "waitTime": 5476.89431067698,
            "responseTime": 1680913857827,
            "catchQuestion": "How many <b class=\"r\">red<\/b> marbles did your opponent report drawing? ",
            "catchKey": 61,
            "catchResponse": 84,
            "catchTime": 1680913857827,
            "trialTime": 0
        },
        {
            "exptPart": "trial",
            "trialNumber": 82,
            "roleCurrent": "receiver",
            "marblesSampled": 100,
            "probRed": 0.5,
            "practiceLambda": 5,
            "trialLambda": 21.9,
            "instructedLambda": "dishonest_small",
            "drawnRed": 92,
            "reportedRed": 100,
            "inferredRed": 10,
            "playerTrialScore": -82,
            "oppTrialScore": 0,
            "playerTotalScore": -1988,
            "oppTotalScore": 1763,
            "waitTime": 5158.25980103083,
            "responseTime": 1680913874033,
            "catchQuestion": "How many <b class=\"r\">red<\/b> marbles did your opponent report drawing? ",
            "catchKey": -1,
            "catchResponse": -1,
            "catchTime": 1680913857827,
            "trialTime": 0
        },
        {
            "exptPart": "trial",
            "trialNumber": 83,
            "roleCurrent": "receiver",
            "marblesSampled": 100,
            "probRed": 0.5,
            "practiceLambda": 5,
            "trialLambda": 21.9,
            "instructedLambda": "dishonest_small",
            "drawnRed": 41,
            "reportedRed": 62,
            "inferredRed": 10,
            "playerTrialScore": -31,
            "oppTrialScore": 0,
            "playerTotalScore": -2019,
            "oppTotalScore": 1763,
            "waitTime": 5972.13501324298,
            "responseTime": 1680913883906,
            "catchQuestion": "How many <b class=\"r\">red<\/b> marbles did your opponent report drawing? ",
            "catchKey": -1,
            "catchResponse": -1,
            "catchTime": 1680913857827,
            "trialTime": 0
        },
        {
            "exptPart": "trial",
            "trialNumber": 84,
            "roleCurrent": "receiver",
            "marblesSampled": 100,
            "probRed": 0.5,
            "practiceLambda": 5,
            "trialLambda": 21.9,
            "instructedLambda": "dishonest_small",
            "drawnRed": 53,
            "reportedRed": 77,
            "inferredRed": 10,
            "playerTrialScore": -43,
            "oppTrialScore": 0,
            "playerTotalScore": -2062,
            "oppTotalScore": 1763,
            "waitTime": 5687.017375149797,
            "responseTime": 1680913893660,
            "catchQuestion": "How many <b class=\"r\">red<\/b> marbles did your opponent report drawing? ",
            "catchKey": -1,
            "catchResponse": -1,
            "catchTime": 1680913857827,
            "trialTime": 0
        },
        {
            "exptPart": "trial",
            "trialNumber": 85,
            "roleCurrent": "receiver",
            "marblesSampled": 100,
            "probRed": 0.5,
            "practiceLambda": 5,
            "trialLambda": 21.9,
            "instructedLambda": "dishonest_small",
            "drawnRed": 61,
            "reportedRed": 83,
            "inferredRed": 10,
            "playerTrialScore": -51,
            "oppTrialScore": 0,
            "playerTotalScore": -2113,
            "oppTotalScore": 1763,
            "waitTime": 7476.392762885986,
            "responseTime": 1680913903952,
            "catchQuestion": "How many <b class=\"r\">red<\/b> marbles did your opponent report drawing? ",
            "catchKey": -1,
            "catchResponse": -1,
            "catchTime": 1680913857827,
            "trialTime": 0
        },
        {
            "exptPart": "trial",
            "trialNumber": 86,
            "roleCurrent": "receiver",
            "marblesSampled": 100,
            "probRed": 0.5,
            "practiceLambda": 5,
            "trialLambda": 21.9,
            "instructedLambda": "dishonest_small",
            "drawnRed": 76,
            "reportedRed": 94,
            "inferredRed": 12,
            "playerTrialScore": -64,
            "oppTrialScore": 0,
            "playerTotalScore": -2177,
            "oppTotalScore": 1763,
            "waitTime": 5463.933949402007,
            "responseTime": 1680913913894,
            "catchQuestion": "How many <b class=\"r\">red<\/b> marbles did your opponent report drawing? ",
            "catchKey": -1,
            "catchResponse": -1,
            "catchTime": 1680913857827,
            "trialTime": 0
        },
        {
            "exptPart": "trial",
            "trialNumber": 87,
            "roleCurrent": "receiver",
            "marblesSampled": 100,
            "probRed": 0.5,
            "practiceLambda": 5,
            "trialLambda": 21.9,
            "instructedLambda": "dishonest_small",
            "drawnRed": 45,
            "reportedRed": 71,
            "inferredRed": 13,
            "playerTrialScore": -32,
            "oppTrialScore": 0,
            "playerTotalScore": -2209,
            "oppTotalScore": 1763,
            "waitTime": 5944.357607581358,
            "responseTime": 1680913922624,
            "catchQuestion": "How many <b class=\"r\">red<\/b> marbles did your opponent report drawing? ",
            "catchKey": -1,
            "catchResponse": -1,
            "catchTime": 1680913857827,
            "trialTime": 0
        },
        {
            "exptPart": "trial",
            "trialNumber": 88,
            "roleCurrent": "receiver",
            "marblesSampled": 100,
            "probRed": 0.5,
            "practiceLambda": 5,
            "trialLambda": 21.9,
            "instructedLambda": "dishonest_small",
            "drawnRed": 27,
            "reportedRed": 44,
            "inferredRed": 15,
            "playerTrialScore": -12,
            "oppTrialScore": 0,
            "playerTotalScore": -2221,
            "oppTotalScore": 1763,
            "waitTime": 6726.254995227508,
            "responseTime": 1680913932710,
            "catchQuestion": "How many <b class=\"r\">red<\/b> marbles did your opponent report drawing? ",
            "catchKey": -1,
            "catchResponse": -1,
            "catchTime": 1680913857827,
            "trialTime": 0
        },
        {
            "exptPart": "trial",
            "trialNumber": 89,
            "roleCurrent": "receiver",
            "marblesSampled": 100,
            "probRed": 0.5,
            "practiceLambda": 5,
            "trialLambda": 21.9,
            "instructedLambda": "dishonest_small",
            "drawnRed": 52,
            "reportedRed": 78,
            "inferredRed": 16,
            "playerTrialScore": -36,
            "oppTrialScore": 0,
            "playerTotalScore": -2257,
            "oppTotalScore": 1763,
            "waitTime": 6137.101349883171,
            "responseTime": 1680913943542,
            "catchQuestion": "How many <b class=\"r\">red<\/b> marbles did your opponent report drawing? ",
            "catchKey": -1,
            "catchResponse": -1,
            "catchTime": 1680913857827,
            "trialTime": 0
        },
        {
            "exptPart": "trial",
            "trialNumber": 90,
            "roleCurrent": "receiver",
            "marblesSampled": 100,
            "probRed": 0.5,
            "practiceLambda": 5,
            "trialLambda": 21.9,
            "instructedLambda": "dishonest_small",
            "drawnRed": 9,
            "reportedRed": 30,
            "inferredRed": 17,
            "playerTrialScore": -8,
            "oppTrialScore": 8,
            "playerTotalScore": -2265,
            "oppTotalScore": 1771,
            "waitTime": 6719.813076343365,
            "responseTime": 1680913953956,
            "catchQuestion": "How many <b class=\"r\">red<\/b> marbles did your opponent report drawing? ",
            "catchKey": -1,
            "catchResponse": -1,
            "catchTime": 1680913953956,
            "trialTime": 0
        },
        {
            "exptPart": "trial",
            "trialNumber": 91,
            "roleCurrent": "receiver",
            "marblesSampled": 100,
            "probRed": 0.5,
            "practiceLambda": 5,
            "trialLambda": 21.9,
            "instructedLambda": "dishonest_small",
            "drawnRed": 66,
            "reportedRed": 86,
            "inferredRed": 55,
            "playerTrialScore": -11,
            "oppTrialScore": 0,
            "playerTotalScore": -2276,
            "oppTotalScore": 1771,
            "waitTime": 5971.832672386485,
            "responseTime": 1680913966590,
            "catchQuestion": "How many <b class=\"r\">red<\/b> marbles did your opponent report drawing? ",
            "catchKey": 86,
            "catchResponse": 68,
            "catchTime": 1680913966590,
            "trialTime": 0
        },
        {
            "exptPart": "trial",
            "trialNumber": 92,
            "roleCurrent": "receiver",
            "marblesSampled": 100,
            "probRed": 0.5,
            "practiceLambda": 5,
            "trialLambda": 21.9,
            "instructedLambda": "dishonest_small",
            "drawnRed": 50,
            "reportedRed": 75,
            "inferredRed": 55,
            "playerTrialScore": -5,
            "oppTrialScore": 5,
            "playerTotalScore": -2281,
            "oppTotalScore": 1776,
            "waitTime": 5263.273424560468,
            "responseTime": 1680913984212,
            "catchQuestion": "How many <b class=\"r\">red<\/b> marbles did your opponent report drawing? ",
            "catchKey": -1,
            "catchResponse": -1,
            "catchTime": 1680913966590,
            "trialTime": 0
        },
        {
            "exptPart": "trial",
            "trialNumber": 93,
            "roleCurrent": "receiver",
            "marblesSampled": 100,
            "probRed": 0.5,
            "practiceLambda": 5,
            "trialLambda": 21.9,
            "instructedLambda": "dishonest_small",
            "drawnRed": 30,
            "reportedRed": 53,
            "inferredRed": 55,
            "playerTrialScore": -25,
            "oppTrialScore": 25,
            "playerTotalScore": -2306,
            "oppTotalScore": 1801,
            "waitTime": 6867.469136373671,
            "responseTime": 1680913994390,
            "catchQuestion": "How many <b class=\"r\">red<\/b> marbles did your opponent report drawing? ",
            "catchKey": -1,
            "catchResponse": -1,
            "catchTime": 1680913966590,
            "trialTime": 0
        },
        {
            "exptPart": "trial",
            "trialNumber": 94,
            "roleCurrent": "receiver",
            "marblesSampled": 100,
            "probRed": 0.5,
            "practiceLambda": 5,
            "trialLambda": 21.9,
            "instructedLambda": "dishonest_small",
            "drawnRed": 20,
            "reportedRed": 38,
            "inferredRed": 56,
            "playerTrialScore": -36,
            "oppTrialScore": 36,
            "playerTotalScore": -2342,
            "oppTotalScore": 1837,
            "waitTime": 7240.087004024319,
            "responseTime": 1680914005286,
            "catchQuestion": "How many <b class=\"r\">red<\/b> marbles did your opponent report drawing? ",
            "catchKey": -1,
            "catchResponse": -1,
            "catchTime": 1680913966590,
            "trialTime": 0
        },
        {
            "exptPart": "trial",
            "trialNumber": 95,
            "roleCurrent": "receiver",
            "marblesSampled": 100,
            "probRed": 0.5,
            "practiceLambda": 5,
            "trialLambda": 21.9,
            "instructedLambda": "dishonest_small",
            "drawnRed": 73,
            "reportedRed": 93,
            "inferredRed": 55,
            "playerTrialScore": -18,
            "oppTrialScore": 0,
            "playerTotalScore": -2360,
            "oppTotalScore": 1837,
            "waitTime": 7042.44521288903,
            "responseTime": 1680914015693,
            "catchQuestion": "How many <b class=\"r\">red<\/b> marbles did your opponent report drawing? ",
            "catchKey": -1,
            "catchResponse": -1,
            "catchTime": 1680913966590,
            "trialTime": 0
        },
        {
            "exptPart": "trial",
            "trialNumber": 96,
            "roleCurrent": "receiver",
            "marblesSampled": 100,
            "probRed": 0.5,
            "practiceLambda": 5,
            "trialLambda": 21.9,
            "instructedLambda": "dishonest_small",
            "drawnRed": 24,
            "reportedRed": 42,
            "inferredRed": 57,
            "playerTrialScore": -33,
            "oppTrialScore": 33,
            "playerTotalScore": -2393,
            "oppTotalScore": 1870,
            "waitTime": 6063.404683193453,
            "responseTime": 1680914024713,
            "catchQuestion": "How many <b class=\"r\">red<\/b> marbles did your opponent report drawing? ",
            "catchKey": -1,
            "catchResponse": -1,
            "catchTime": 1680913966590,
            "trialTime": 0
        },
        {
            "exptPart": "trial",
            "trialNumber": 97,
            "roleCurrent": "receiver",
            "marblesSampled": 100,
            "probRed": 0.5,
            "practiceLambda": 5,
            "trialLambda": 21.9,
            "instructedLambda": "dishonest_small",
            "drawnRed": 38,
            "reportedRed": 63,
            "inferredRed": 60,
            "playerTrialScore": -22,
            "oppTrialScore": 22,
            "playerTotalScore": -2415,
            "oppTotalScore": 1892,
            "waitTime": 7066.800051729974,
            "responseTime": 1680914040479,
            "catchQuestion": "How many <b class=\"r\">red<\/b> marbles did your opponent report drawing? ",
            "catchKey": -1,
            "catchResponse": -1,
            "catchTime": 1680913966590,
            "trialTime": 0
        },
        {
            "exptPart": "trial",
            "trialNumber": 98,
            "roleCurrent": "receiver",
            "marblesSampled": 100,
            "probRed": 0.5,
            "practiceLambda": 5,
            "trialLambda": 21.9,
            "instructedLambda": "dishonest_small",
            "drawnRed": 42,
            "reportedRed": 63,
            "inferredRed": 44,
            "playerTrialScore": -2,
            "oppTrialScore": 2,
            "playerTotalScore": -2417,
            "oppTotalScore": 1894,
            "waitTime": 6259.009118752602,
            "responseTime": 1680914049570,
            "catchQuestion": "How many <b class=\"r\">red<\/b> marbles did your opponent report drawing? ",
            "catchKey": 63,
            "catchResponse": 63,
            "catchTime": 1680914049570,
            "trialTime": 0
        },
        {
            "exptPart": "trial",
            "trialNumber": 99,
            "roleCurrent": "receiver",
            "marblesSampled": 100,
            "probRed": 0.5,
            "practiceLambda": 5,
            "trialLambda": 21.9,
            "instructedLambda": "dishonest_small",
            "drawnRed": 79,
            "reportedRed": 99,
            "inferredRed": 90,
            "playerTrialScore": -11,
            "oppTrialScore": 11,
            "playerTotalScore": -2428,
            "oppTotalScore": 1905,
            "waitTime": 6917.693000569701,
            "responseTime": 1680914065679,
            "catchQuestion": "How many <b class=\"r\">red<\/b> marbles did your opponent report drawing? ",
            "catchKey": -1,
            "catchResponse": -1,
            "catchTime": 1680914049570,
            "trialTime": 0
        },
        {
            "exptPart": "trial",
            "trialNumber": 100,
            "roleCurrent": "receiver",
            "marblesSampled": 100,
            "probRed": 0.5,
            "practiceLambda": 5,
            "trialLambda": 21.9,
            "instructedLambda": "dishonest_small",
            "drawnRed": 61,
            "reportedRed": 73,
            "inferredRed": 70,
            "playerTrialScore": -9,
            "oppTrialScore": 9,
            "playerTotalScore": -2437,
            "oppTotalScore": 1914,
            "waitTime": 5967.205825877809,
            "responseTime": 1680914074587,
            "catchQuestion": "How many <b class=\"r\">red<\/b> marbles did your opponent report drawing? ",
            "catchKey": -1,
            "catchResponse": -1,
            "catchTime": 1680914074589,
            "trialTime": 0
        }
    ]
}