{
    "client": {
        "type": "sona",
        "experiment_id": 2228,
        "credit_token": "b315147ae43241ea9c65086cb510cfb7",
        "survey_code": "44273",
        "sid": "sona-44273",
        "window": {
            "width": 1440,
            "height": 821
        },
        "screen": {
            "width": 1440,
            "height": 900
        },
        "userAgent": "Mozilla\/5.0 (Macintosh; Intel Mac OS X 10_15_7) AppleWebKit\/537.36 (KHTML, like Gecko) Chrome\/111.0.0.0 Safari\/537.36",
        "score": 0,
        "bonus": 0
    },
    "expt": {
        "saveURL": "submit.simple.php",
        "trials": 100,
        "practiceTrials": 2,
        "marblesSampled": 100,
        "probRed": 0.5,
        "practiceLambdaAI": 5,
        "lambdaAI": 0.3,
        "roles": [
            "sender",
            "receiver"
        ],
        "cost": "unif",
        "goal": "over",
        "oppDishonesty": "dishonest_small",
        "catchTrials": [
            93,
            63,
            5,
            18,
            15,
            13,
            98,
            35,
            71,
            37
        ],
        "scoreTotal": {
            "player": -1211,
            "opp": 515
        },
        "sona": {
            "experiment_id": 2228,
            "credit_token": "b315147ae43241ea9c65086cb510cfb7"
        },
        "pilot": false,
        "debug": false
    },
    "trials": [
        {
            "exptPart": "practice",
            "trialNumber": 1,
            "roleCurrent": "sender",
            "marblesSampled": 100,
            "probRed": 0.5,
            "practiceLambda": 5,
            "trialLambda": 0.3,
            "instructedLambda": "dishonest_small",
            "drawnRed": 23,
            "reportedRed": 34,
            "inferredRed": 30,
            "playerTrialScore": 7,
            "oppTrialScore": -7,
            "playerTotalScore": 7,
            "oppTotalScore": -7,
            "waitTime": 2296.7457024277137,
            "responseTime": 1680742244346,
            "catchQuestion": "How many <b class=\"r\">red<\/b> marbles did you actually draw (before any changes)? ",
            "catchKey": 23,
            "catchResponse": 30,
            "catchTime": 1680742244347,
            "trialTime": 0
        },
        {
            "exptPart": "practice",
            "trialNumber": 2,
            "roleCurrent": "receiver",
            "marblesSampled": 100,
            "probRed": 0.5,
            "practiceLambda": 5,
            "trialLambda": 0.3,
            "instructedLambda": "dishonest_small",
            "drawnRed": 48,
            "reportedRed": 50,
            "inferredRed": 51,
            "playerTrialScore": -3,
            "oppTrialScore": 3,
            "playerTotalScore": 4,
            "oppTotalScore": -4,
            "waitTime": 6430.491023001481,
            "responseTime": 1680742306663,
            "catchQuestion": "How many <b class=\"r\">red<\/b> marbles did your opponent report drawing? ",
            "catchKey": 50,
            "catchResponse": 50,
            "catchTime": 1680742306663,
            "trialTime": 0
        },
        {
            "exptPart": "trial",
            "trialNumber": 1,
            "roleCurrent": "receiver",
            "marblesSampled": 100,
            "probRed": 0.5,
            "practiceLambda": 5,
            "trialLambda": 0.3,
            "instructedLambda": "dishonest_small",
            "drawnRed": 47,
            "reportedRed": 47,
            "inferredRed": 38,
            "playerTrialScore": -9,
            "oppTrialScore": 0,
            "playerTotalScore": -9,
            "oppTotalScore": 0,
            "waitTime": 5558.903261109326,
            "responseTime": 1680742364930,
            "catchQuestion": "How many <b class=\"r\">red<\/b> marbles did your opponent report drawing? ",
            "catchKey": -1,
            "catchResponse": -1,
            "catchTime": 1680742306663,
            "trialTime": 0
        },
        {
            "exptPart": "trial",
            "trialNumber": 2,
            "roleCurrent": "receiver",
            "marblesSampled": 100,
            "probRed": 0.5,
            "practiceLambda": 5,
            "trialLambda": 0.3,
            "instructedLambda": "dishonest_small",
            "drawnRed": 34,
            "reportedRed": 34,
            "inferredRed": 28,
            "playerTrialScore": -6,
            "oppTrialScore": 0,
            "playerTotalScore": -15,
            "oppTotalScore": 0,
            "waitTime": 6632.507687114941,
            "responseTime": 1680742385996,
            "catchQuestion": "How many <b class=\"r\">red<\/b> marbles did your opponent report drawing? ",
            "catchKey": -1,
            "catchResponse": -1,
            "catchTime": 1680742306663,
            "trialTime": 0
        },
        {
            "exptPart": "trial",
            "trialNumber": 3,
            "roleCurrent": "receiver",
            "marblesSampled": 100,
            "probRed": 0.5,
            "practiceLambda": 5,
            "trialLambda": 0.3,
            "instructedLambda": "dishonest_small",
            "drawnRed": 74,
            "reportedRed": 74,
            "inferredRed": 50,
            "playerTrialScore": -24,
            "oppTrialScore": 0,
            "playerTotalScore": -39,
            "oppTotalScore": 0,
            "waitTime": 5815.9178682979455,
            "responseTime": 1680742402546,
            "catchQuestion": "How many <b class=\"r\">red<\/b> marbles did your opponent report drawing? ",
            "catchKey": -1,
            "catchResponse": -1,
            "catchTime": 1680742306663,
            "trialTime": 0
        },
        {
            "exptPart": "trial",
            "trialNumber": 4,
            "roleCurrent": "receiver",
            "marblesSampled": 100,
            "probRed": 0.5,
            "practiceLambda": 5,
            "trialLambda": 0.3,
            "instructedLambda": "dishonest_small",
            "drawnRed": 20,
            "reportedRed": 20,
            "inferredRed": 27,
            "playerTrialScore": -7,
            "oppTrialScore": 7,
            "playerTotalScore": -46,
            "oppTotalScore": 7,
            "waitTime": 5878.422917551552,
            "responseTime": 1680742421014,
            "catchQuestion": "How many <b class=\"r\">red<\/b> marbles did your opponent report drawing? ",
            "catchKey": -1,
            "catchResponse": -1,
            "catchTime": 1680742306663,
            "trialTime": 0
        },
        {
            "exptPart": "trial",
            "trialNumber": 5,
            "roleCurrent": "receiver",
            "marblesSampled": 100,
            "probRed": 0.5,
            "practiceLambda": 5,
            "trialLambda": 0.3,
            "instructedLambda": "dishonest_small",
            "drawnRed": 71,
            "reportedRed": 71,
            "inferredRed": 57,
            "playerTrialScore": -14,
            "oppTrialScore": 0,
            "playerTotalScore": -60,
            "oppTotalScore": 7,
            "waitTime": 6541.580019502052,
            "responseTime": 1680742443997,
            "catchQuestion": "How many <b class=\"r\">red<\/b> marbles did your opponent report drawing? ",
            "catchKey": -1,
            "catchResponse": -1,
            "catchTime": 1680742306663,
            "trialTime": 0
        },
        {
            "exptPart": "trial",
            "trialNumber": 6,
            "roleCurrent": "receiver",
            "marblesSampled": 100,
            "probRed": 0.5,
            "practiceLambda": 5,
            "trialLambda": 0.3,
            "instructedLambda": "dishonest_small",
            "drawnRed": 56,
            "reportedRed": 56,
            "inferredRed": 45,
            "playerTrialScore": -11,
            "oppTrialScore": 0,
            "playerTotalScore": -71,
            "oppTotalScore": 7,
            "waitTime": 5852.304093419965,
            "responseTime": 1680742461514,
            "catchQuestion": "How many <b class=\"r\">red<\/b> marbles did your opponent report drawing? ",
            "catchKey": 56,
            "catchResponse": 56,
            "catchTime": 1680742461514,
            "trialTime": 0
        },
        {
            "exptPart": "trial",
            "trialNumber": 7,
            "roleCurrent": "receiver",
            "marblesSampled": 100,
            "probRed": 0.5,
            "practiceLambda": 5,
            "trialLambda": 0.3,
            "instructedLambda": "dishonest_small",
            "drawnRed": 43,
            "reportedRed": 44,
            "inferredRed": 37,
            "playerTrialScore": -6,
            "oppTrialScore": 0,
            "playerTotalScore": -77,
            "oppTotalScore": 7,
            "waitTime": 6043.8642342037265,
            "responseTime": 1680742513066,
            "catchQuestion": "How many <b class=\"r\">red<\/b> marbles did your opponent report drawing? ",
            "catchKey": -1,
            "catchResponse": -1,
            "catchTime": 1680742461514,
            "trialTime": 0
        },
        {
            "exptPart": "trial",
            "trialNumber": 8,
            "roleCurrent": "receiver",
            "marblesSampled": 100,
            "probRed": 0.5,
            "practiceLambda": 5,
            "trialLambda": 0.3,
            "instructedLambda": "dishonest_small",
            "drawnRed": 27,
            "reportedRed": 27,
            "inferredRed": 30,
            "playerTrialScore": -3,
            "oppTrialScore": 3,
            "playerTotalScore": -80,
            "oppTotalScore": 10,
            "waitTime": 5816.270835925836,
            "responseTime": 1680742526664,
            "catchQuestion": "How many <b class=\"r\">red<\/b> marbles did your opponent report drawing? ",
            "catchKey": -1,
            "catchResponse": -1,
            "catchTime": 1680742461514,
            "trialTime": 0
        },
        {
            "exptPart": "trial",
            "trialNumber": 9,
            "roleCurrent": "receiver",
            "marblesSampled": 100,
            "probRed": 0.5,
            "practiceLambda": 5,
            "trialLambda": 0.3,
            "instructedLambda": "dishonest_small",
            "drawnRed": 46,
            "reportedRed": 46,
            "inferredRed": 30,
            "playerTrialScore": -16,
            "oppTrialScore": 0,
            "playerTotalScore": -96,
            "oppTotalScore": 10,
            "waitTime": 5449.243967842788,
            "responseTime": 1680742538751,
            "catchQuestion": "How many <b class=\"r\">red<\/b> marbles did your opponent report drawing? ",
            "catchKey": -1,
            "catchResponse": -1,
            "catchTime": 1680742461514,
            "trialTime": 0
        },
        {
            "exptPart": "trial",
            "trialNumber": 10,
            "roleCurrent": "receiver",
            "marblesSampled": 100,
            "probRed": 0.5,
            "practiceLambda": 5,
            "trialLambda": 0.3,
            "instructedLambda": "dishonest_small",
            "drawnRed": 78,
            "reportedRed": 78,
            "inferredRed": 46,
            "playerTrialScore": -32,
            "oppTrialScore": 0,
            "playerTotalScore": -128,
            "oppTotalScore": 10,
            "waitTime": 5327.620650451739,
            "responseTime": 1680742548882,
            "catchQuestion": "How many <b class=\"r\">red<\/b> marbles did your opponent report drawing? ",
            "catchKey": -1,
            "catchResponse": -1,
            "catchTime": 1680742548882,
            "trialTime": 0
        },
        {
            "exptPart": "trial",
            "trialNumber": 11,
            "roleCurrent": "receiver",
            "marblesSampled": 100,
            "probRed": 0.5,
            "practiceLambda": 5,
            "trialLambda": 0.3,
            "instructedLambda": "dishonest_small",
            "drawnRed": 16,
            "reportedRed": 17,
            "inferredRed": 23,
            "playerTrialScore": -7,
            "oppTrialScore": 7,
            "playerTotalScore": -135,
            "oppTotalScore": 17,
            "waitTime": 6395.030290433179,
            "responseTime": 1680742563500,
            "catchQuestion": "How many <b class=\"r\">red<\/b> marbles did your opponent report drawing? ",
            "catchKey": -1,
            "catchResponse": -1,
            "catchTime": 1680742548882,
            "trialTime": 0
        },
        {
            "exptPart": "trial",
            "trialNumber": 12,
            "roleCurrent": "receiver",
            "marblesSampled": 100,
            "probRed": 0.5,
            "practiceLambda": 5,
            "trialLambda": 0.3,
            "instructedLambda": "dishonest_small",
            "drawnRed": 81,
            "reportedRed": 82,
            "inferredRed": 60,
            "playerTrialScore": -21,
            "oppTrialScore": 0,
            "playerTotalScore": -156,
            "oppTotalScore": 17,
            "waitTime": 7436.458241671103,
            "responseTime": 1680742577018,
            "catchQuestion": "How many <b class=\"r\">red<\/b> marbles did your opponent report drawing? ",
            "catchKey": -1,
            "catchResponse": -1,
            "catchTime": 1680742548882,
            "trialTime": 0
        },
        {
            "exptPart": "trial",
            "trialNumber": 13,
            "roleCurrent": "receiver",
            "marblesSampled": 100,
            "probRed": 0.5,
            "practiceLambda": 5,
            "trialLambda": 0.3,
            "instructedLambda": "dishonest_small",
            "drawnRed": 66,
            "reportedRed": 66,
            "inferredRed": 50,
            "playerTrialScore": -16,
            "oppTrialScore": 0,
            "playerTotalScore": -172,
            "oppTotalScore": 17,
            "waitTime": 5149.801982687133,
            "responseTime": 1680742587932,
            "catchQuestion": "How many <b class=\"r\">red<\/b> marbles did your opponent report drawing? ",
            "catchKey": -1,
            "catchResponse": -1,
            "catchTime": 1680742548882,
            "trialTime": 0
        },
        {
            "exptPart": "trial",
            "trialNumber": 14,
            "roleCurrent": "receiver",
            "marblesSampled": 100,
            "probRed": 0.5,
            "practiceLambda": 5,
            "trialLambda": 0.3,
            "instructedLambda": "dishonest_small",
            "drawnRed": 36,
            "reportedRed": 36,
            "inferredRed": 50,
            "playerTrialScore": -14,
            "oppTrialScore": 14,
            "playerTotalScore": -186,
            "oppTotalScore": 31,
            "waitTime": 6029.891979554586,
            "responseTime": 1680742599916,
            "catchQuestion": "How many <b class=\"r\">red<\/b> marbles did your opponent report drawing? ",
            "catchKey": 36,
            "catchResponse": 36,
            "catchTime": 1680742599916,
            "trialTime": 0
        },
        {
            "exptPart": "trial",
            "trialNumber": 15,
            "roleCurrent": "receiver",
            "marblesSampled": 100,
            "probRed": 0.5,
            "practiceLambda": 5,
            "trialLambda": 0.3,
            "instructedLambda": "dishonest_small",
            "drawnRed": 35,
            "reportedRed": 35,
            "inferredRed": 27,
            "playerTrialScore": -8,
            "oppTrialScore": 0,
            "playerTotalScore": -194,
            "oppTotalScore": 31,
            "waitTime": 5645.455651962294,
            "responseTime": 1680742624666,
            "catchQuestion": "How many <b class=\"r\">red<\/b> marbles did your opponent report drawing? ",
            "catchKey": -1,
            "catchResponse": -1,
            "catchTime": 1680742599916,
            "trialTime": 0
        },
        {
            "exptPart": "trial",
            "trialNumber": 16,
            "roleCurrent": "receiver",
            "marblesSampled": 100,
            "probRed": 0.5,
            "practiceLambda": 5,
            "trialLambda": 0.3,
            "instructedLambda": "dishonest_small",
            "drawnRed": 33,
            "reportedRed": 34,
            "inferredRed": 27,
            "playerTrialScore": -6,
            "oppTrialScore": 0,
            "playerTotalScore": -200,
            "oppTotalScore": 31,
            "waitTime": 7471.20235101315,
            "responseTime": 1680742650317,
            "catchQuestion": "How many <b class=\"r\">red<\/b> marbles did your opponent report drawing? ",
            "catchKey": 34,
            "catchResponse": 34,
            "catchTime": 1680742650318,
            "trialTime": 0
        },
        {
            "exptPart": "trial",
            "trialNumber": 17,
            "roleCurrent": "receiver",
            "marblesSampled": 100,
            "probRed": 0.5,
            "practiceLambda": 5,
            "trialLambda": 0.3,
            "instructedLambda": "dishonest_small",
            "drawnRed": 38,
            "reportedRed": 38,
            "inferredRed": 35,
            "playerTrialScore": -3,
            "oppTrialScore": 0,
            "playerTotalScore": -203,
            "oppTotalScore": 31,
            "waitTime": 5656.400972093452,
            "responseTime": 1680742668683,
            "catchQuestion": "How many <b class=\"r\">red<\/b> marbles did your opponent report drawing? ",
            "catchKey": -1,
            "catchResponse": -1,
            "catchTime": 1680742650318,
            "trialTime": 0
        },
        {
            "exptPart": "trial",
            "trialNumber": 18,
            "roleCurrent": "receiver",
            "marblesSampled": 100,
            "probRed": 0.5,
            "practiceLambda": 5,
            "trialLambda": 0.3,
            "instructedLambda": "dishonest_small",
            "drawnRed": 45,
            "reportedRed": 45,
            "inferredRed": 50,
            "playerTrialScore": -5,
            "oppTrialScore": 5,
            "playerTotalScore": -208,
            "oppTotalScore": 36,
            "waitTime": 5857.222458045944,
            "responseTime": 1680742690267,
            "catchQuestion": "How many <b class=\"r\">red<\/b> marbles did your opponent report drawing? ",
            "catchKey": -1,
            "catchResponse": -1,
            "catchTime": 1680742650318,
            "trialTime": 0
        },
        {
            "exptPart": "trial",
            "trialNumber": 19,
            "roleCurrent": "receiver",
            "marblesSampled": 100,
            "probRed": 0.5,
            "practiceLambda": 5,
            "trialLambda": 0.3,
            "instructedLambda": "dishonest_small",
            "drawnRed": 40,
            "reportedRed": 40,
            "inferredRed": 27,
            "playerTrialScore": -13,
            "oppTrialScore": 0,
            "playerTotalScore": -221,
            "oppTotalScore": 36,
            "waitTime": 5180.635935767781,
            "responseTime": 1680742699867,
            "catchQuestion": "How many <b class=\"r\">red<\/b> marbles did your opponent report drawing? ",
            "catchKey": 40,
            "catchResponse": 40,
            "catchTime": 1680742699867,
            "trialTime": 0
        },
        {
            "exptPart": "trial",
            "trialNumber": 20,
            "roleCurrent": "receiver",
            "marblesSampled": 100,
            "probRed": 0.5,
            "practiceLambda": 5,
            "trialLambda": 0.3,
            "instructedLambda": "dishonest_small",
            "drawnRed": 56,
            "reportedRed": 56,
            "inferredRed": 60,
            "playerTrialScore": -4,
            "oppTrialScore": 4,
            "playerTotalScore": -225,
            "oppTotalScore": 40,
            "waitTime": 5405.97714639376,
            "responseTime": 1680742715384,
            "catchQuestion": "How many <b class=\"r\">red<\/b> marbles did your opponent report drawing? ",
            "catchKey": -1,
            "catchResponse": -1,
            "catchTime": 1680742715384,
            "trialTime": 0
        },
        {
            "exptPart": "trial",
            "trialNumber": 21,
            "roleCurrent": "receiver",
            "marblesSampled": 100,
            "probRed": 0.5,
            "practiceLambda": 5,
            "trialLambda": 0.3,
            "instructedLambda": "dishonest_small",
            "drawnRed": 43,
            "reportedRed": 43,
            "inferredRed": 37,
            "playerTrialScore": -6,
            "oppTrialScore": 0,
            "playerTotalScore": -231,
            "oppTotalScore": 40,
            "waitTime": 5778.918530877129,
            "responseTime": 1680742752417,
            "catchQuestion": "How many <b class=\"r\">red<\/b> marbles did your opponent report drawing? ",
            "catchKey": -1,
            "catchResponse": -1,
            "catchTime": 1680742715384,
            "trialTime": 0
        },
        {
            "exptPart": "trial",
            "trialNumber": 22,
            "roleCurrent": "receiver",
            "marblesSampled": 100,
            "probRed": 0.5,
            "practiceLambda": 5,
            "trialLambda": 0.3,
            "instructedLambda": "dishonest_small",
            "drawnRed": 58,
            "reportedRed": 58,
            "inferredRed": 50,
            "playerTrialScore": -8,
            "oppTrialScore": 0,
            "playerTotalScore": -239,
            "oppTotalScore": 40,
            "waitTime": 5354.422044270155,
            "responseTime": 1680742761269,
            "catchQuestion": "How many <b class=\"r\">red<\/b> marbles did your opponent report drawing? ",
            "catchKey": -1,
            "catchResponse": -1,
            "catchTime": 1680742715384,
            "trialTime": 0
        },
        {
            "exptPart": "trial",
            "trialNumber": 23,
            "roleCurrent": "receiver",
            "marblesSampled": 100,
            "probRed": 0.5,
            "practiceLambda": 5,
            "trialLambda": 0.3,
            "instructedLambda": "dishonest_small",
            "drawnRed": 72,
            "reportedRed": 72,
            "inferredRed": 60,
            "playerTrialScore": -12,
            "oppTrialScore": 0,
            "playerTotalScore": -251,
            "oppTotalScore": 40,
            "waitTime": 7491.48255104863,
            "responseTime": 1680742777318,
            "catchQuestion": "How many <b class=\"r\">red<\/b> marbles did your opponent report drawing? ",
            "catchKey": -1,
            "catchResponse": -1,
            "catchTime": 1680742715384,
            "trialTime": 0
        },
        {
            "exptPart": "trial",
            "trialNumber": 24,
            "roleCurrent": "receiver",
            "marblesSampled": 100,
            "probRed": 0.5,
            "practiceLambda": 5,
            "trialLambda": 0.3,
            "instructedLambda": "dishonest_small",
            "drawnRed": 70,
            "reportedRed": 70,
            "inferredRed": 60,
            "playerTrialScore": -10,
            "oppTrialScore": 0,
            "playerTotalScore": -261,
            "oppTotalScore": 40,
            "waitTime": 5619.288767136713,
            "responseTime": 1680742829535,
            "catchQuestion": "How many <b class=\"r\">red<\/b> marbles did your opponent report drawing? ",
            "catchKey": -1,
            "catchResponse": -1,
            "catchTime": 1680742715384,
            "trialTime": 0
        },
        {
            "exptPart": "trial",
            "trialNumber": 25,
            "roleCurrent": "receiver",
            "marblesSampled": 100,
            "probRed": 0.5,
            "practiceLambda": 5,
            "trialLambda": 0.3,
            "instructedLambda": "dishonest_small",
            "drawnRed": 16,
            "reportedRed": 18,
            "inferredRed": 23,
            "playerTrialScore": -7,
            "oppTrialScore": 7,
            "playerTotalScore": -268,
            "oppTotalScore": 47,
            "waitTime": 7111.896735095078,
            "responseTime": 1680742950635,
            "catchQuestion": "How many <b class=\"r\">red<\/b> marbles did your opponent report drawing? ",
            "catchKey": -1,
            "catchResponse": -1,
            "catchTime": 1680742715384,
            "trialTime": 0
        },
        {
            "exptPart": "trial",
            "trialNumber": 26,
            "roleCurrent": "receiver",
            "marblesSampled": 100,
            "probRed": 0.5,
            "practiceLambda": 5,
            "trialLambda": 0.3,
            "instructedLambda": "dishonest_small",
            "drawnRed": 32,
            "reportedRed": 32,
            "inferredRed": 50,
            "playerTrialScore": -18,
            "oppTrialScore": 18,
            "playerTotalScore": -286,
            "oppTotalScore": 65,
            "waitTime": 6963.954101886846,
            "responseTime": 1680742965987,
            "catchQuestion": "How many <b class=\"r\">red<\/b> marbles did your opponent report drawing? ",
            "catchKey": -1,
            "catchResponse": -1,
            "catchTime": 1680742715384,
            "trialTime": 0
        },
        {
            "exptPart": "trial",
            "trialNumber": 27,
            "roleCurrent": "receiver",
            "marblesSampled": 100,
            "probRed": 0.5,
            "practiceLambda": 5,
            "trialLambda": 0.3,
            "instructedLambda": "dishonest_small",
            "drawnRed": 55,
            "reportedRed": 55,
            "inferredRed": 60,
            "playerTrialScore": -5,
            "oppTrialScore": 5,
            "playerTotalScore": -291,
            "oppTotalScore": 70,
            "waitTime": 6452.616470711162,
            "responseTime": 1680742978503,
            "catchQuestion": "How many <b class=\"r\">red<\/b> marbles did your opponent report drawing? ",
            "catchKey": -1,
            "catchResponse": -1,
            "catchTime": 1680742715384,
            "trialTime": 0
        },
        {
            "exptPart": "trial",
            "trialNumber": 28,
            "roleCurrent": "receiver",
            "marblesSampled": 100,
            "probRed": 0.5,
            "practiceLambda": 5,
            "trialLambda": 0.3,
            "instructedLambda": "dishonest_small",
            "drawnRed": 34,
            "reportedRed": 34,
            "inferredRed": 40,
            "playerTrialScore": -6,
            "oppTrialScore": 6,
            "playerTotalScore": -297,
            "oppTotalScore": 76,
            "waitTime": 5368.043101409183,
            "responseTime": 1680742989920,
            "catchQuestion": "How many <b class=\"r\">red<\/b> marbles did your opponent report drawing? ",
            "catchKey": -1,
            "catchResponse": -1,
            "catchTime": 1680742715384,
            "trialTime": 0
        },
        {
            "exptPart": "trial",
            "trialNumber": 29,
            "roleCurrent": "receiver",
            "marblesSampled": 100,
            "probRed": 0.5,
            "practiceLambda": 5,
            "trialLambda": 0.3,
            "instructedLambda": "dishonest_small",
            "drawnRed": 47,
            "reportedRed": 47,
            "inferredRed": 50,
            "playerTrialScore": -3,
            "oppTrialScore": 3,
            "playerTotalScore": -300,
            "oppTotalScore": 79,
            "waitTime": 6830.782680446896,
            "responseTime": 1680743001120,
            "catchQuestion": "How many <b class=\"r\">red<\/b> marbles did your opponent report drawing? ",
            "catchKey": -1,
            "catchResponse": -1,
            "catchTime": 1680742715384,
            "trialTime": 0
        },
        {
            "exptPart": "trial",
            "trialNumber": 30,
            "roleCurrent": "receiver",
            "marblesSampled": 100,
            "probRed": 0.5,
            "practiceLambda": 5,
            "trialLambda": 0.3,
            "instructedLambda": "dishonest_small",
            "drawnRed": 34,
            "reportedRed": 34,
            "inferredRed": 70,
            "playerTrialScore": -36,
            "oppTrialScore": 36,
            "playerTotalScore": -336,
            "oppTotalScore": 115,
            "waitTime": 6470.569049055437,
            "responseTime": 1680743013686,
            "catchQuestion": "How many <b class=\"r\">red<\/b> marbles did your opponent report drawing? ",
            "catchKey": -1,
            "catchResponse": -1,
            "catchTime": 1680743013686,
            "trialTime": 0
        },
        {
            "exptPart": "trial",
            "trialNumber": 31,
            "roleCurrent": "receiver",
            "marblesSampled": 100,
            "probRed": 0.5,
            "practiceLambda": 5,
            "trialLambda": 0.3,
            "instructedLambda": "dishonest_small",
            "drawnRed": 49,
            "reportedRed": 49,
            "inferredRed": 50,
            "playerTrialScore": -1,
            "oppTrialScore": 1,
            "playerTotalScore": -337,
            "oppTotalScore": 116,
            "waitTime": 5762.267407201454,
            "responseTime": 1680743086570,
            "catchQuestion": "How many <b class=\"r\">red<\/b> marbles did your opponent report drawing? ",
            "catchKey": -1,
            "catchResponse": -1,
            "catchTime": 1680743013686,
            "trialTime": 0
        },
        {
            "exptPart": "trial",
            "trialNumber": 32,
            "roleCurrent": "receiver",
            "marblesSampled": 100,
            "probRed": 0.5,
            "practiceLambda": 5,
            "trialLambda": 0.3,
            "instructedLambda": "dishonest_small",
            "drawnRed": 8,
            "reportedRed": 8,
            "inferredRed": 10,
            "playerTrialScore": -2,
            "oppTrialScore": 2,
            "playerTotalScore": -339,
            "oppTotalScore": 118,
            "waitTime": 5992.393450440464,
            "responseTime": 1680743100053,
            "catchQuestion": "How many <b class=\"r\">red<\/b> marbles did your opponent report drawing? ",
            "catchKey": -1,
            "catchResponse": -1,
            "catchTime": 1680743013686,
            "trialTime": 0
        },
        {
            "exptPart": "trial",
            "trialNumber": 33,
            "roleCurrent": "receiver",
            "marblesSampled": 100,
            "probRed": 0.5,
            "practiceLambda": 5,
            "trialLambda": 0.3,
            "instructedLambda": "dishonest_small",
            "drawnRed": 43,
            "reportedRed": 43,
            "inferredRed": 50,
            "playerTrialScore": -7,
            "oppTrialScore": 7,
            "playerTotalScore": -346,
            "oppTotalScore": 125,
            "waitTime": 6305.281385810429,
            "responseTime": 1680743110454,
            "catchQuestion": "How many <b class=\"r\">red<\/b> marbles did your opponent report drawing? ",
            "catchKey": -1,
            "catchResponse": -1,
            "catchTime": 1680743013686,
            "trialTime": 0
        },
        {
            "exptPart": "trial",
            "trialNumber": 34,
            "roleCurrent": "receiver",
            "marblesSampled": 100,
            "probRed": 0.5,
            "practiceLambda": 5,
            "trialLambda": 0.3,
            "instructedLambda": "dishonest_small",
            "drawnRed": 70,
            "reportedRed": 71,
            "inferredRed": 30,
            "playerTrialScore": -40,
            "oppTrialScore": 0,
            "playerTotalScore": -386,
            "oppTotalScore": 125,
            "waitTime": 6571.494370128742,
            "responseTime": 1680743123403,
            "catchQuestion": "How many <b class=\"r\">red<\/b> marbles did your opponent report drawing? ",
            "catchKey": -1,
            "catchResponse": -1,
            "catchTime": 1680743013686,
            "trialTime": 0
        },
        {
            "exptPart": "trial",
            "trialNumber": 35,
            "roleCurrent": "receiver",
            "marblesSampled": 100,
            "probRed": 0.5,
            "practiceLambda": 5,
            "trialLambda": 0.3,
            "instructedLambda": "dishonest_small",
            "drawnRed": 41,
            "reportedRed": 42,
            "inferredRed": 27,
            "playerTrialScore": -14,
            "oppTrialScore": 0,
            "playerTotalScore": -400,
            "oppTotalScore": 125,
            "waitTime": 5559.366201066363,
            "responseTime": 1680743136872,
            "catchQuestion": "How many <b class=\"r\">red<\/b> marbles did your opponent report drawing? ",
            "catchKey": -1,
            "catchResponse": -1,
            "catchTime": 1680743013686,
            "trialTime": 0
        },
        {
            "exptPart": "trial",
            "trialNumber": 36,
            "roleCurrent": "receiver",
            "marblesSampled": 100,
            "probRed": 0.5,
            "practiceLambda": 5,
            "trialLambda": 0.3,
            "instructedLambda": "dishonest_small",
            "drawnRed": 20,
            "reportedRed": 22,
            "inferredRed": 30,
            "playerTrialScore": -10,
            "oppTrialScore": 10,
            "playerTotalScore": -410,
            "oppTotalScore": 135,
            "waitTime": 6465.601197151076,
            "responseTime": 1680743149471,
            "catchQuestion": "How many <b class=\"r\">red<\/b> marbles did your opponent report drawing? ",
            "catchKey": 22,
            "catchResponse": 22,
            "catchTime": 1680743149471,
            "trialTime": 0
        },
        {
            "exptPart": "trial",
            "trialNumber": 37,
            "roleCurrent": "receiver",
            "marblesSampled": 100,
            "probRed": 0.5,
            "practiceLambda": 5,
            "trialLambda": 0.3,
            "instructedLambda": "dishonest_small",
            "drawnRed": 39,
            "reportedRed": 40,
            "inferredRed": 30,
            "playerTrialScore": -9,
            "oppTrialScore": 0,
            "playerTotalScore": -419,
            "oppTotalScore": 135,
            "waitTime": 7449.236520560917,
            "responseTime": 1680743173905,
            "catchQuestion": "How many <b class=\"r\">red<\/b> marbles did your opponent report drawing? ",
            "catchKey": -1,
            "catchResponse": -1,
            "catchTime": 1680743149471,
            "trialTime": 0
        },
        {
            "exptPart": "trial",
            "trialNumber": 38,
            "roleCurrent": "receiver",
            "marblesSampled": 100,
            "probRed": 0.5,
            "practiceLambda": 5,
            "trialLambda": 0.3,
            "instructedLambda": "dishonest_small",
            "drawnRed": 46,
            "reportedRed": 46,
            "inferredRed": 40,
            "playerTrialScore": -6,
            "oppTrialScore": 0,
            "playerTotalScore": -425,
            "oppTotalScore": 135,
            "waitTime": 6990.550869067843,
            "responseTime": 1680743184739,
            "catchQuestion": "How many <b class=\"r\">red<\/b> marbles did your opponent report drawing? ",
            "catchKey": 46,
            "catchResponse": 46,
            "catchTime": 1680743184739,
            "trialTime": 0
        },
        {
            "exptPart": "trial",
            "trialNumber": 39,
            "roleCurrent": "receiver",
            "marblesSampled": 100,
            "probRed": 0.5,
            "practiceLambda": 5,
            "trialLambda": 0.3,
            "instructedLambda": "dishonest_small",
            "drawnRed": 60,
            "reportedRed": 60,
            "inferredRed": 50,
            "playerTrialScore": -10,
            "oppTrialScore": 0,
            "playerTotalScore": -435,
            "oppTotalScore": 135,
            "waitTime": 7049.664573176903,
            "responseTime": 1680743429274,
            "catchQuestion": "How many <b class=\"r\">red<\/b> marbles did your opponent report drawing? ",
            "catchKey": -1,
            "catchResponse": -1,
            "catchTime": 1680743184739,
            "trialTime": 0
        },
        {
            "exptPart": "trial",
            "trialNumber": 40,
            "roleCurrent": "receiver",
            "marblesSampled": 100,
            "probRed": 0.5,
            "practiceLambda": 5,
            "trialLambda": 0.3,
            "instructedLambda": "dishonest_small",
            "drawnRed": 88,
            "reportedRed": 88,
            "inferredRed": 60,
            "playerTrialScore": -28,
            "oppTrialScore": 0,
            "playerTotalScore": -463,
            "oppTotalScore": 135,
            "waitTime": 5796.7539633051165,
            "responseTime": 1680743444808,
            "catchQuestion": "How many <b class=\"r\">red<\/b> marbles did your opponent report drawing? ",
            "catchKey": -1,
            "catchResponse": -1,
            "catchTime": 1680743444808,
            "trialTime": 0
        },
        {
            "exptPart": "trial",
            "trialNumber": 41,
            "roleCurrent": "receiver",
            "marblesSampled": 100,
            "probRed": 0.5,
            "practiceLambda": 5,
            "trialLambda": 0.3,
            "instructedLambda": "dishonest_small",
            "drawnRed": 72,
            "reportedRed": 72,
            "inferredRed": 60,
            "playerTrialScore": -12,
            "oppTrialScore": 0,
            "playerTotalScore": -475,
            "oppTotalScore": 135,
            "waitTime": 6559.783931014759,
            "responseTime": 1680743457625,
            "catchQuestion": "How many <b class=\"r\">red<\/b> marbles did your opponent report drawing? ",
            "catchKey": -1,
            "catchResponse": -1,
            "catchTime": 1680743444808,
            "trialTime": 0
        },
        {
            "exptPart": "trial",
            "trialNumber": 42,
            "roleCurrent": "receiver",
            "marblesSampled": 100,
            "probRed": 0.5,
            "practiceLambda": 5,
            "trialLambda": 0.3,
            "instructedLambda": "dishonest_small",
            "drawnRed": 25,
            "reportedRed": 25,
            "inferredRed": 50,
            "playerTrialScore": -25,
            "oppTrialScore": 25,
            "playerTotalScore": -500,
            "oppTotalScore": 160,
            "waitTime": 6205.583270094679,
            "responseTime": 1680743467691,
            "catchQuestion": "How many <b class=\"r\">red<\/b> marbles did your opponent report drawing? ",
            "catchKey": -1,
            "catchResponse": -1,
            "catchTime": 1680743444808,
            "trialTime": 0
        },
        {
            "exptPart": "trial",
            "trialNumber": 43,
            "roleCurrent": "receiver",
            "marblesSampled": 100,
            "probRed": 0.5,
            "practiceLambda": 5,
            "trialLambda": 0.3,
            "instructedLambda": "dishonest_small",
            "drawnRed": 56,
            "reportedRed": 56,
            "inferredRed": 40,
            "playerTrialScore": -16,
            "oppTrialScore": 0,
            "playerTotalScore": -516,
            "oppTotalScore": 160,
            "waitTime": 5306.781011606716,
            "responseTime": 1680743477158,
            "catchQuestion": "How many <b class=\"r\">red<\/b> marbles did your opponent report drawing? ",
            "catchKey": -1,
            "catchResponse": -1,
            "catchTime": 1680743444808,
            "trialTime": 0
        },
        {
            "exptPart": "trial",
            "trialNumber": 44,
            "roleCurrent": "receiver",
            "marblesSampled": 100,
            "probRed": 0.5,
            "practiceLambda": 5,
            "trialLambda": 0.3,
            "instructedLambda": "dishonest_small",
            "drawnRed": 58,
            "reportedRed": 58,
            "inferredRed": 60,
            "playerTrialScore": -2,
            "oppTrialScore": 2,
            "playerTotalScore": -518,
            "oppTotalScore": 162,
            "waitTime": 5649.480932569653,
            "responseTime": 1680743485975,
            "catchQuestion": "How many <b class=\"r\">red<\/b> marbles did your opponent report drawing? ",
            "catchKey": -1,
            "catchResponse": -1,
            "catchTime": 1680743444808,
            "trialTime": 0
        },
        {
            "exptPart": "trial",
            "trialNumber": 45,
            "roleCurrent": "receiver",
            "marblesSampled": 100,
            "probRed": 0.5,
            "practiceLambda": 5,
            "trialLambda": 0.3,
            "instructedLambda": "dishonest_small",
            "drawnRed": 90,
            "reportedRed": 91,
            "inferredRed": 45,
            "playerTrialScore": -45,
            "oppTrialScore": 0,
            "playerTotalScore": -563,
            "oppTotalScore": 162,
            "waitTime": 5364.512338746852,
            "responseTime": 1680743495442,
            "catchQuestion": "How many <b class=\"r\">red<\/b> marbles did your opponent report drawing? ",
            "catchKey": -1,
            "catchResponse": -1,
            "catchTime": 1680743444808,
            "trialTime": 0
        },
        {
            "exptPart": "trial",
            "trialNumber": 46,
            "roleCurrent": "receiver",
            "marblesSampled": 100,
            "probRed": 0.5,
            "practiceLambda": 5,
            "trialLambda": 0.3,
            "instructedLambda": "dishonest_small",
            "drawnRed": 46,
            "reportedRed": 46,
            "inferredRed": 50,
            "playerTrialScore": -4,
            "oppTrialScore": 4,
            "playerTotalScore": -567,
            "oppTotalScore": 166,
            "waitTime": 6981.367427882338,
            "responseTime": 1680743506058,
            "catchQuestion": "How many <b class=\"r\">red<\/b> marbles did your opponent report drawing? ",
            "catchKey": -1,
            "catchResponse": -1,
            "catchTime": 1680743444808,
            "trialTime": 0
        },
        {
            "exptPart": "trial",
            "trialNumber": 47,
            "roleCurrent": "receiver",
            "marblesSampled": 100,
            "probRed": 0.5,
            "practiceLambda": 5,
            "trialLambda": 0.3,
            "instructedLambda": "dishonest_small",
            "drawnRed": 37,
            "reportedRed": 37,
            "inferredRed": 43,
            "playerTrialScore": -6,
            "oppTrialScore": 6,
            "playerTotalScore": -573,
            "oppTotalScore": 172,
            "waitTime": 6098.527290088675,
            "responseTime": 1680743520908,
            "catchQuestion": "How many <b class=\"r\">red<\/b> marbles did your opponent report drawing? ",
            "catchKey": -1,
            "catchResponse": -1,
            "catchTime": 1680743444808,
            "trialTime": 0
        },
        {
            "exptPart": "trial",
            "trialNumber": 48,
            "roleCurrent": "receiver",
            "marblesSampled": 100,
            "probRed": 0.5,
            "practiceLambda": 5,
            "trialLambda": 0.3,
            "instructedLambda": "dishonest_small",
            "drawnRed": 70,
            "reportedRed": 70,
            "inferredRed": 45,
            "playerTrialScore": -25,
            "oppTrialScore": 0,
            "playerTotalScore": -598,
            "oppTotalScore": 172,
            "waitTime": 6826.385852882597,
            "responseTime": 1680743531376,
            "catchQuestion": "How many <b class=\"r\">red<\/b> marbles did your opponent report drawing? ",
            "catchKey": -1,
            "catchResponse": -1,
            "catchTime": 1680743444808,
            "trialTime": 0
        },
        {
            "exptPart": "trial",
            "trialNumber": 49,
            "roleCurrent": "receiver",
            "marblesSampled": 100,
            "probRed": 0.5,
            "practiceLambda": 5,
            "trialLambda": 0.3,
            "instructedLambda": "dishonest_small",
            "drawnRed": 58,
            "reportedRed": 60,
            "inferredRed": 30,
            "playerTrialScore": -28,
            "oppTrialScore": 0,
            "playerTotalScore": -626,
            "oppTotalScore": 172,
            "waitTime": 5405.916517322188,
            "responseTime": 1680743540326,
            "catchQuestion": "How many <b class=\"r\">red<\/b> marbles did your opponent report drawing? ",
            "catchKey": -1,
            "catchResponse": -1,
            "catchTime": 1680743444808,
            "trialTime": 0
        },
        {
            "exptPart": "trial",
            "trialNumber": 50,
            "roleCurrent": "receiver",
            "marblesSampled": 100,
            "probRed": 0.5,
            "practiceLambda": 5,
            "trialLambda": 0.3,
            "instructedLambda": "dishonest_small",
            "drawnRed": 28,
            "reportedRed": 28,
            "inferredRed": 23,
            "playerTrialScore": -5,
            "oppTrialScore": 0,
            "playerTotalScore": -631,
            "oppTotalScore": 172,
            "waitTime": 5792.3238686583445,
            "responseTime": 1680743550392,
            "catchQuestion": "How many <b class=\"r\">red<\/b> marbles did your opponent report drawing? ",
            "catchKey": -1,
            "catchResponse": -1,
            "catchTime": 1680743550392,
            "trialTime": 0
        },
        {
            "exptPart": "trial",
            "trialNumber": 51,
            "roleCurrent": "receiver",
            "marblesSampled": 100,
            "probRed": 0.5,
            "practiceLambda": 5,
            "trialLambda": 0.3,
            "instructedLambda": "dishonest_small",
            "drawnRed": 55,
            "reportedRed": 55,
            "inferredRed": 50,
            "playerTrialScore": -5,
            "oppTrialScore": 0,
            "playerTotalScore": -636,
            "oppTotalScore": 172,
            "waitTime": 5820.916296518732,
            "responseTime": 1680743688611,
            "catchQuestion": "How many <b class=\"r\">red<\/b> marbles did your opponent report drawing? ",
            "catchKey": -1,
            "catchResponse": -1,
            "catchTime": 1680743550392,
            "trialTime": 0
        },
        {
            "exptPart": "trial",
            "trialNumber": 52,
            "roleCurrent": "receiver",
            "marblesSampled": 100,
            "probRed": 0.5,
            "practiceLambda": 5,
            "trialLambda": 0.3,
            "instructedLambda": "dishonest_small",
            "drawnRed": 83,
            "reportedRed": 83,
            "inferredRed": 70,
            "playerTrialScore": -13,
            "oppTrialScore": 0,
            "playerTotalScore": -649,
            "oppTotalScore": 172,
            "waitTime": 5811.893399554356,
            "responseTime": 1680743700877,
            "catchQuestion": "How many <b class=\"r\">red<\/b> marbles did your opponent report drawing? ",
            "catchKey": -1,
            "catchResponse": -1,
            "catchTime": 1680743550392,
            "trialTime": 0
        },
        {
            "exptPart": "trial",
            "trialNumber": 53,
            "roleCurrent": "receiver",
            "marblesSampled": 100,
            "probRed": 0.5,
            "practiceLambda": 5,
            "trialLambda": 0.3,
            "instructedLambda": "dishonest_small",
            "drawnRed": 53,
            "reportedRed": 53,
            "inferredRed": 50,
            "playerTrialScore": -3,
            "oppTrialScore": 0,
            "playerTotalScore": -652,
            "oppTotalScore": 172,
            "waitTime": 5316.09605930213,
            "responseTime": 1680743709511,
            "catchQuestion": "How many <b class=\"r\">red<\/b> marbles did your opponent report drawing? ",
            "catchKey": -1,
            "catchResponse": -1,
            "catchTime": 1680743550392,
            "trialTime": 0
        },
        {
            "exptPart": "trial",
            "trialNumber": 54,
            "roleCurrent": "receiver",
            "marblesSampled": 100,
            "probRed": 0.5,
            "practiceLambda": 5,
            "trialLambda": 0.3,
            "instructedLambda": "dishonest_small",
            "drawnRed": 62,
            "reportedRed": 63,
            "inferredRed": 75,
            "playerTrialScore": -13,
            "oppTrialScore": 13,
            "playerTotalScore": -665,
            "oppTotalScore": 185,
            "waitTime": 6366.337353501354,
            "responseTime": 1680743720427,
            "catchQuestion": "How many <b class=\"r\">red<\/b> marbles did your opponent report drawing? ",
            "catchKey": -1,
            "catchResponse": -1,
            "catchTime": 1680743550392,
            "trialTime": 0
        },
        {
            "exptPart": "trial",
            "trialNumber": 55,
            "roleCurrent": "receiver",
            "marblesSampled": 100,
            "probRed": 0.5,
            "practiceLambda": 5,
            "trialLambda": 0.3,
            "instructedLambda": "dishonest_small",
            "drawnRed": 33,
            "reportedRed": 33,
            "inferredRed": 50,
            "playerTrialScore": -17,
            "oppTrialScore": 17,
            "playerTotalScore": -682,
            "oppTotalScore": 202,
            "waitTime": 5742.26169072147,
            "responseTime": 1680743732111,
            "catchQuestion": "How many <b class=\"r\">red<\/b> marbles did your opponent report drawing? ",
            "catchKey": -1,
            "catchResponse": -1,
            "catchTime": 1680743550392,
            "trialTime": 0
        },
        {
            "exptPart": "trial",
            "trialNumber": 56,
            "roleCurrent": "receiver",
            "marblesSampled": 100,
            "probRed": 0.5,
            "practiceLambda": 5,
            "trialLambda": 0.3,
            "instructedLambda": "dishonest_small",
            "drawnRed": 61,
            "reportedRed": 61,
            "inferredRed": 46,
            "playerTrialScore": -15,
            "oppTrialScore": 0,
            "playerTotalScore": -697,
            "oppTotalScore": 202,
            "waitTime": 6307.411782966399,
            "responseTime": 1680743743477,
            "catchQuestion": "How many <b class=\"r\">red<\/b> marbles did your opponent report drawing? ",
            "catchKey": -1,
            "catchResponse": -1,
            "catchTime": 1680743550392,
            "trialTime": 0
        },
        {
            "exptPart": "trial",
            "trialNumber": 57,
            "roleCurrent": "receiver",
            "marblesSampled": 100,
            "probRed": 0.5,
            "practiceLambda": 5,
            "trialLambda": 0.3,
            "instructedLambda": "dishonest_small",
            "drawnRed": 51,
            "reportedRed": 51,
            "inferredRed": 30,
            "playerTrialScore": -21,
            "oppTrialScore": 0,
            "playerTotalScore": -718,
            "oppTotalScore": 202,
            "waitTime": 5237.87878799001,
            "responseTime": 1680743752911,
            "catchQuestion": "How many <b class=\"r\">red<\/b> marbles did your opponent report drawing? ",
            "catchKey": -1,
            "catchResponse": -1,
            "catchTime": 1680743550392,
            "trialTime": 0
        },
        {
            "exptPart": "trial",
            "trialNumber": 58,
            "roleCurrent": "receiver",
            "marblesSampled": 100,
            "probRed": 0.5,
            "practiceLambda": 5,
            "trialLambda": 0.3,
            "instructedLambda": "dishonest_small",
            "drawnRed": 53,
            "reportedRed": 53,
            "inferredRed": 60,
            "playerTrialScore": -7,
            "oppTrialScore": 7,
            "playerTotalScore": -725,
            "oppTotalScore": 209,
            "waitTime": 6311.52974539305,
            "responseTime": 1680743763811,
            "catchQuestion": "How many <b class=\"r\">red<\/b> marbles did your opponent report drawing? ",
            "catchKey": -1,
            "catchResponse": -1,
            "catchTime": 1680743550392,
            "trialTime": 0
        },
        {
            "exptPart": "trial",
            "trialNumber": 59,
            "roleCurrent": "receiver",
            "marblesSampled": 100,
            "probRed": 0.5,
            "practiceLambda": 5,
            "trialLambda": 0.3,
            "instructedLambda": "dishonest_small",
            "drawnRed": 25,
            "reportedRed": 25,
            "inferredRed": 70,
            "playerTrialScore": -45,
            "oppTrialScore": 45,
            "playerTotalScore": -770,
            "oppTotalScore": 254,
            "waitTime": 5369.403939719931,
            "responseTime": 1680743773361,
            "catchQuestion": "How many <b class=\"r\">red<\/b> marbles did your opponent report drawing? ",
            "catchKey": -1,
            "catchResponse": -1,
            "catchTime": 1680743550392,
            "trialTime": 0
        },
        {
            "exptPart": "trial",
            "trialNumber": 60,
            "roleCurrent": "receiver",
            "marblesSampled": 100,
            "probRed": 0.5,
            "practiceLambda": 5,
            "trialLambda": 0.3,
            "instructedLambda": "dishonest_small",
            "drawnRed": 40,
            "reportedRed": 40,
            "inferredRed": 60,
            "playerTrialScore": -20,
            "oppTrialScore": 20,
            "playerTotalScore": -790,
            "oppTotalScore": 274,
            "waitTime": 5538.171789055492,
            "responseTime": 1680743783127,
            "catchQuestion": "How many <b class=\"r\">red<\/b> marbles did your opponent report drawing? ",
            "catchKey": -1,
            "catchResponse": -1,
            "catchTime": 1680743783127,
            "trialTime": 0
        },
        {
            "exptPart": "trial",
            "trialNumber": 61,
            "roleCurrent": "receiver",
            "marblesSampled": 100,
            "probRed": 0.5,
            "practiceLambda": 5,
            "trialLambda": 0.3,
            "instructedLambda": "dishonest_small",
            "drawnRed": 49,
            "reportedRed": 49,
            "inferredRed": 50,
            "playerTrialScore": -1,
            "oppTrialScore": 1,
            "playerTotalScore": -791,
            "oppTotalScore": 275,
            "waitTime": 5464.597070278007,
            "responseTime": 1680743830878,
            "catchQuestion": "How many <b class=\"r\">red<\/b> marbles did your opponent report drawing? ",
            "catchKey": -1,
            "catchResponse": -1,
            "catchTime": 1680743783127,
            "trialTime": 0
        },
        {
            "exptPart": "trial",
            "trialNumber": 62,
            "roleCurrent": "receiver",
            "marblesSampled": 100,
            "probRed": 0.5,
            "practiceLambda": 5,
            "trialLambda": 0.3,
            "instructedLambda": "dishonest_small",
            "drawnRed": 22,
            "reportedRed": 23,
            "inferredRed": 40,
            "playerTrialScore": -18,
            "oppTrialScore": 18,
            "playerTotalScore": -809,
            "oppTotalScore": 293,
            "waitTime": 6829.058724802797,
            "responseTime": 1680743841861,
            "catchQuestion": "How many <b class=\"r\">red<\/b> marbles did your opponent report drawing? ",
            "catchKey": -1,
            "catchResponse": -1,
            "catchTime": 1680743783127,
            "trialTime": 0
        },
        {
            "exptPart": "trial",
            "trialNumber": 63,
            "roleCurrent": "receiver",
            "marblesSampled": 100,
            "probRed": 0.5,
            "practiceLambda": 5,
            "trialLambda": 0.3,
            "instructedLambda": "dishonest_small",
            "drawnRed": 27,
            "reportedRed": 28,
            "inferredRed": 40,
            "playerTrialScore": -13,
            "oppTrialScore": 13,
            "playerTotalScore": -822,
            "oppTotalScore": 306,
            "waitTime": 6577.4398867966165,
            "responseTime": 1680743851461,
            "catchQuestion": "How many <b class=\"r\">red<\/b> marbles did your opponent report drawing? ",
            "catchKey": -1,
            "catchResponse": -1,
            "catchTime": 1680743783127,
            "trialTime": 0
        },
        {
            "exptPart": "trial",
            "trialNumber": 64,
            "roleCurrent": "receiver",
            "marblesSampled": 100,
            "probRed": 0.5,
            "practiceLambda": 5,
            "trialLambda": 0.3,
            "instructedLambda": "dishonest_small",
            "drawnRed": 36,
            "reportedRed": 36,
            "inferredRed": 50,
            "playerTrialScore": -14,
            "oppTrialScore": 14,
            "playerTotalScore": -836,
            "oppTotalScore": 320,
            "waitTime": 6523.870068085184,
            "responseTime": 1680743860696,
            "catchQuestion": "How many <b class=\"r\">red<\/b> marbles did your opponent report drawing? ",
            "catchKey": 36,
            "catchResponse": 36,
            "catchTime": 1680743860697,
            "trialTime": 0
        },
        {
            "exptPart": "trial",
            "trialNumber": 65,
            "roleCurrent": "receiver",
            "marblesSampled": 100,
            "probRed": 0.5,
            "practiceLambda": 5,
            "trialLambda": 0.3,
            "instructedLambda": "dishonest_small",
            "drawnRed": 71,
            "reportedRed": 72,
            "inferredRed": 45,
            "playerTrialScore": -26,
            "oppTrialScore": 0,
            "playerTotalScore": -862,
            "oppTotalScore": 320,
            "waitTime": 7154.043889549381,
            "responseTime": 1680743878580,
            "catchQuestion": "How many <b class=\"r\">red<\/b> marbles did your opponent report drawing? ",
            "catchKey": -1,
            "catchResponse": -1,
            "catchTime": 1680743860697,
            "trialTime": 0
        },
        {
            "exptPart": "trial",
            "trialNumber": 66,
            "roleCurrent": "receiver",
            "marblesSampled": 100,
            "probRed": 0.5,
            "practiceLambda": 5,
            "trialLambda": 0.3,
            "instructedLambda": "dishonest_small",
            "drawnRed": 66,
            "reportedRed": 67,
            "inferredRed": 60,
            "playerTrialScore": -6,
            "oppTrialScore": 0,
            "playerTotalScore": -868,
            "oppTotalScore": 320,
            "waitTime": 6290.340225235217,
            "responseTime": 1680743889929,
            "catchQuestion": "How many <b class=\"r\">red<\/b> marbles did your opponent report drawing? ",
            "catchKey": -1,
            "catchResponse": -1,
            "catchTime": 1680743860697,
            "trialTime": 0
        },
        {
            "exptPart": "trial",
            "trialNumber": 67,
            "roleCurrent": "receiver",
            "marblesSampled": 100,
            "probRed": 0.5,
            "practiceLambda": 5,
            "trialLambda": 0.3,
            "instructedLambda": "dishonest_small",
            "drawnRed": 45,
            "reportedRed": 46,
            "inferredRed": 50,
            "playerTrialScore": -5,
            "oppTrialScore": 5,
            "playerTotalScore": -873,
            "oppTotalScore": 325,
            "waitTime": 5473.82155106188,
            "responseTime": 1680744021964,
            "catchQuestion": "How many <b class=\"r\">red<\/b> marbles did your opponent report drawing? ",
            "catchKey": -1,
            "catchResponse": -1,
            "catchTime": 1680743860697,
            "trialTime": 0
        },
        {
            "exptPart": "trial",
            "trialNumber": 68,
            "roleCurrent": "receiver",
            "marblesSampled": 100,
            "probRed": 0.5,
            "practiceLambda": 5,
            "trialLambda": 0.3,
            "instructedLambda": "dishonest_small",
            "drawnRed": 30,
            "reportedRed": 30,
            "inferredRed": 45,
            "playerTrialScore": -15,
            "oppTrialScore": 15,
            "playerTotalScore": -888,
            "oppTotalScore": 340,
            "waitTime": 5326.668446391056,
            "responseTime": 1680744031031,
            "catchQuestion": "How many <b class=\"r\">red<\/b> marbles did your opponent report drawing? ",
            "catchKey": -1,
            "catchResponse": -1,
            "catchTime": 1680743860697,
            "trialTime": 0
        },
        {
            "exptPart": "trial",
            "trialNumber": 69,
            "roleCurrent": "receiver",
            "marblesSampled": 100,
            "probRed": 0.5,
            "practiceLambda": 5,
            "trialLambda": 0.3,
            "instructedLambda": "dishonest_small",
            "drawnRed": 68,
            "reportedRed": 68,
            "inferredRed": 70,
            "playerTrialScore": -2,
            "oppTrialScore": 2,
            "playerTotalScore": -890,
            "oppTotalScore": 342,
            "waitTime": 5693.783665349472,
            "responseTime": 1680744041064,
            "catchQuestion": "How many <b class=\"r\">red<\/b> marbles did your opponent report drawing? ",
            "catchKey": -1,
            "catchResponse": -1,
            "catchTime": 1680743860697,
            "trialTime": 0
        },
        {
            "exptPart": "trial",
            "trialNumber": 70,
            "roleCurrent": "receiver",
            "marblesSampled": 100,
            "probRed": 0.5,
            "practiceLambda": 5,
            "trialLambda": 0.3,
            "instructedLambda": "dishonest_small",
            "drawnRed": 60,
            "reportedRed": 60,
            "inferredRed": 50,
            "playerTrialScore": -10,
            "oppTrialScore": 0,
            "playerTotalScore": -900,
            "oppTotalScore": 342,
            "waitTime": 6042.1736771870765,
            "responseTime": 1680744050997,
            "catchQuestion": "How many <b class=\"r\">red<\/b> marbles did your opponent report drawing? ",
            "catchKey": -1,
            "catchResponse": -1,
            "catchTime": 1680744050997,
            "trialTime": 0
        },
        {
            "exptPart": "trial",
            "trialNumber": 71,
            "roleCurrent": "receiver",
            "marblesSampled": 100,
            "probRed": 0.5,
            "practiceLambda": 5,
            "trialLambda": 0.3,
            "instructedLambda": "dishonest_small",
            "drawnRed": 94,
            "reportedRed": 94,
            "inferredRed": 100,
            "playerTrialScore": -6,
            "oppTrialScore": 6,
            "playerTotalScore": -906,
            "oppTotalScore": 348,
            "waitTime": 5764.124257645589,
            "responseTime": 1680744062898,
            "catchQuestion": "How many <b class=\"r\">red<\/b> marbles did your opponent report drawing? ",
            "catchKey": -1,
            "catchResponse": -1,
            "catchTime": 1680744050997,
            "trialTime": 0
        },
        {
            "exptPart": "trial",
            "trialNumber": 72,
            "roleCurrent": "receiver",
            "marblesSampled": 100,
            "probRed": 0.5,
            "practiceLambda": 5,
            "trialLambda": 0.3,
            "instructedLambda": "dishonest_small",
            "drawnRed": 25,
            "reportedRed": 25,
            "inferredRed": 27,
            "playerTrialScore": -2,
            "oppTrialScore": 2,
            "playerTotalScore": -908,
            "oppTotalScore": 350,
            "waitTime": 5951.561647554249,
            "responseTime": 1680744073781,
            "catchQuestion": "How many <b class=\"r\">red<\/b> marbles did your opponent report drawing? ",
            "catchKey": 25,
            "catchResponse": 25,
            "catchTime": 1680744073782,
            "trialTime": 0
        },
        {
            "exptPart": "trial",
            "trialNumber": 73,
            "roleCurrent": "receiver",
            "marblesSampled": 100,
            "probRed": 0.5,
            "practiceLambda": 5,
            "trialLambda": 0.3,
            "instructedLambda": "dishonest_small",
            "drawnRed": 54,
            "reportedRed": 55,
            "inferredRed": 40,
            "playerTrialScore": -14,
            "oppTrialScore": 0,
            "playerTotalScore": -922,
            "oppTotalScore": 350,
            "waitTime": 5815.5444792596945,
            "responseTime": 1680744089649,
            "catchQuestion": "How many <b class=\"r\">red<\/b> marbles did your opponent report drawing? ",
            "catchKey": -1,
            "catchResponse": -1,
            "catchTime": 1680744073782,
            "trialTime": 0
        },
        {
            "exptPart": "trial",
            "trialNumber": 74,
            "roleCurrent": "receiver",
            "marblesSampled": 100,
            "probRed": 0.5,
            "practiceLambda": 5,
            "trialLambda": 0.3,
            "instructedLambda": "dishonest_small",
            "drawnRed": 50,
            "reportedRed": 50,
            "inferredRed": 43,
            "playerTrialScore": -7,
            "oppTrialScore": 0,
            "playerTotalScore": -929,
            "oppTotalScore": 350,
            "waitTime": 7201.751510788629,
            "responseTime": 1680744102614,
            "catchQuestion": "How many <b class=\"r\">red<\/b> marbles did your opponent report drawing? ",
            "catchKey": -1,
            "catchResponse": -1,
            "catchTime": 1680744073782,
            "trialTime": 0
        },
        {
            "exptPart": "trial",
            "trialNumber": 75,
            "roleCurrent": "receiver",
            "marblesSampled": 100,
            "probRed": 0.5,
            "practiceLambda": 5,
            "trialLambda": 0.3,
            "instructedLambda": "dishonest_small",
            "drawnRed": 29,
            "reportedRed": 29,
            "inferredRed": 22,
            "playerTrialScore": -7,
            "oppTrialScore": 0,
            "playerTotalScore": -936,
            "oppTotalScore": 350,
            "waitTime": 5463.6144890944215,
            "responseTime": 1680744112049,
            "catchQuestion": "How many <b class=\"r\">red<\/b> marbles did your opponent report drawing? ",
            "catchKey": -1,
            "catchResponse": -1,
            "catchTime": 1680744073782,
            "trialTime": 0
        },
        {
            "exptPart": "trial",
            "trialNumber": 76,
            "roleCurrent": "receiver",
            "marblesSampled": 100,
            "probRed": 0.5,
            "practiceLambda": 5,
            "trialLambda": 0.3,
            "instructedLambda": "dishonest_small",
            "drawnRed": 44,
            "reportedRed": 44,
            "inferredRed": 50,
            "playerTrialScore": -6,
            "oppTrialScore": 6,
            "playerTotalScore": -942,
            "oppTotalScore": 356,
            "waitTime": 5717.676272556975,
            "responseTime": 1680744121532,
            "catchQuestion": "How many <b class=\"r\">red<\/b> marbles did your opponent report drawing? ",
            "catchKey": -1,
            "catchResponse": -1,
            "catchTime": 1680744073782,
            "trialTime": 0
        },
        {
            "exptPart": "trial",
            "trialNumber": 77,
            "roleCurrent": "receiver",
            "marblesSampled": 100,
            "probRed": 0.5,
            "practiceLambda": 5,
            "trialLambda": 0.3,
            "instructedLambda": "dishonest_small",
            "drawnRed": 44,
            "reportedRed": 44,
            "inferredRed": 51,
            "playerTrialScore": -7,
            "oppTrialScore": 7,
            "playerTotalScore": -949,
            "oppTotalScore": 363,
            "waitTime": 5506.330187990847,
            "responseTime": 1680744131398,
            "catchQuestion": "How many <b class=\"r\">red<\/b> marbles did your opponent report drawing? ",
            "catchKey": -1,
            "catchResponse": -1,
            "catchTime": 1680744073782,
            "trialTime": 0
        },
        {
            "exptPart": "trial",
            "trialNumber": 78,
            "roleCurrent": "receiver",
            "marblesSampled": 100,
            "probRed": 0.5,
            "practiceLambda": 5,
            "trialLambda": 0.3,
            "instructedLambda": "dishonest_small",
            "drawnRed": 38,
            "reportedRed": 38,
            "inferredRed": 50,
            "playerTrialScore": -12,
            "oppTrialScore": 12,
            "playerTotalScore": -961,
            "oppTotalScore": 375,
            "waitTime": 6574.440236880253,
            "responseTime": 1680744141700,
            "catchQuestion": "How many <b class=\"r\">red<\/b> marbles did your opponent report drawing? ",
            "catchKey": -1,
            "catchResponse": -1,
            "catchTime": 1680744073782,
            "trialTime": 0
        },
        {
            "exptPart": "trial",
            "trialNumber": 79,
            "roleCurrent": "receiver",
            "marblesSampled": 100,
            "probRed": 0.5,
            "practiceLambda": 5,
            "trialLambda": 0.3,
            "instructedLambda": "dishonest_small",
            "drawnRed": 45,
            "reportedRed": 46,
            "inferredRed": 50,
            "playerTrialScore": -5,
            "oppTrialScore": 5,
            "playerTotalScore": -966,
            "oppTotalScore": 380,
            "waitTime": 5135.639146578498,
            "responseTime": 1680744159824,
            "catchQuestion": "How many <b class=\"r\">red<\/b> marbles did your opponent report drawing? ",
            "catchKey": -1,
            "catchResponse": -1,
            "catchTime": 1680744073782,
            "trialTime": 0
        },
        {
            "exptPart": "trial",
            "trialNumber": 80,
            "roleCurrent": "receiver",
            "marblesSampled": 100,
            "probRed": 0.5,
            "practiceLambda": 5,
            "trialLambda": 0.3,
            "instructedLambda": "dishonest_small",
            "drawnRed": 8,
            "reportedRed": 8,
            "inferredRed": 12,
            "playerTrialScore": -4,
            "oppTrialScore": 4,
            "playerTotalScore": -970,
            "oppTotalScore": 384,
            "waitTime": 6812.2141280912165,
            "responseTime": 1680744172166,
            "catchQuestion": "How many <b class=\"r\">red<\/b> marbles did your opponent report drawing? ",
            "catchKey": -1,
            "catchResponse": -1,
            "catchTime": 1680744172166,
            "trialTime": 0
        },
        {
            "exptPart": "trial",
            "trialNumber": 81,
            "roleCurrent": "receiver",
            "marblesSampled": 100,
            "probRed": 0.5,
            "practiceLambda": 5,
            "trialLambda": 0.3,
            "instructedLambda": "dishonest_small",
            "drawnRed": 41,
            "reportedRed": 41,
            "inferredRed": 50,
            "playerTrialScore": -9,
            "oppTrialScore": 9,
            "playerTotalScore": -979,
            "oppTotalScore": 393,
            "waitTime": 7409.542285242963,
            "responseTime": 1680744184753,
            "catchQuestion": "How many <b class=\"r\">red<\/b> marbles did your opponent report drawing? ",
            "catchKey": -1,
            "catchResponse": -1,
            "catchTime": 1680744172166,
            "trialTime": 0
        },
        {
            "exptPart": "trial",
            "trialNumber": 82,
            "roleCurrent": "receiver",
            "marblesSampled": 100,
            "probRed": 0.5,
            "practiceLambda": 5,
            "trialLambda": 0.3,
            "instructedLambda": "dishonest_small",
            "drawnRed": 31,
            "reportedRed": 31,
            "inferredRed": 40,
            "playerTrialScore": -9,
            "oppTrialScore": 9,
            "playerTotalScore": -988,
            "oppTotalScore": 402,
            "waitTime": 6679.076048138653,
            "responseTime": 1680744196122,
            "catchQuestion": "How many <b class=\"r\">red<\/b> marbles did your opponent report drawing? ",
            "catchKey": -1,
            "catchResponse": -1,
            "catchTime": 1680744172166,
            "trialTime": 0
        },
        {
            "exptPart": "trial",
            "trialNumber": 83,
            "roleCurrent": "receiver",
            "marblesSampled": 100,
            "probRed": 0.5,
            "practiceLambda": 5,
            "trialLambda": 0.3,
            "instructedLambda": "dishonest_small",
            "drawnRed": 41,
            "reportedRed": 41,
            "inferredRed": 45,
            "playerTrialScore": -4,
            "oppTrialScore": 4,
            "playerTotalScore": -992,
            "oppTotalScore": 406,
            "waitTime": 6435.915951663156,
            "responseTime": 1680744206489,
            "catchQuestion": "How many <b class=\"r\">red<\/b> marbles did your opponent report drawing? ",
            "catchKey": -1,
            "catchResponse": -1,
            "catchTime": 1680744172166,
            "trialTime": 0
        },
        {
            "exptPart": "trial",
            "trialNumber": 84,
            "roleCurrent": "receiver",
            "marblesSampled": 100,
            "probRed": 0.5,
            "practiceLambda": 5,
            "trialLambda": 0.3,
            "instructedLambda": "dishonest_small",
            "drawnRed": 40,
            "reportedRed": 40,
            "inferredRed": 50,
            "playerTrialScore": -10,
            "oppTrialScore": 10,
            "playerTotalScore": -1002,
            "oppTotalScore": 416,
            "waitTime": 5567.632182525205,
            "responseTime": 1680744216122,
            "catchQuestion": "How many <b class=\"r\">red<\/b> marbles did your opponent report drawing? ",
            "catchKey": -1,
            "catchResponse": -1,
            "catchTime": 1680744172166,
            "trialTime": 0
        },
        {
            "exptPart": "trial",
            "trialNumber": 85,
            "roleCurrent": "receiver",
            "marblesSampled": 100,
            "probRed": 0.5,
            "practiceLambda": 5,
            "trialLambda": 0.3,
            "instructedLambda": "dishonest_small",
            "drawnRed": 74,
            "reportedRed": 74,
            "inferredRed": 80,
            "playerTrialScore": -6,
            "oppTrialScore": 6,
            "playerTotalScore": -1008,
            "oppTotalScore": 422,
            "waitTime": 5908.086270050169,
            "responseTime": 1680744227207,
            "catchQuestion": "How many <b class=\"r\">red<\/b> marbles did your opponent report drawing? ",
            "catchKey": -1,
            "catchResponse": -1,
            "catchTime": 1680744172166,
            "trialTime": 0
        },
        {
            "exptPart": "trial",
            "trialNumber": 86,
            "roleCurrent": "receiver",
            "marblesSampled": 100,
            "probRed": 0.5,
            "practiceLambda": 5,
            "trialLambda": 0.3,
            "instructedLambda": "dishonest_small",
            "drawnRed": 65,
            "reportedRed": 66,
            "inferredRed": 70,
            "playerTrialScore": -5,
            "oppTrialScore": 5,
            "playerTotalScore": -1013,
            "oppTotalScore": 427,
            "waitTime": 5146.098835909383,
            "responseTime": 1680744236673,
            "catchQuestion": "How many <b class=\"r\">red<\/b> marbles did your opponent report drawing? ",
            "catchKey": -1,
            "catchResponse": -1,
            "catchTime": 1680744172166,
            "trialTime": 0
        },
        {
            "exptPart": "trial",
            "trialNumber": 87,
            "roleCurrent": "receiver",
            "marblesSampled": 100,
            "probRed": 0.5,
            "practiceLambda": 5,
            "trialLambda": 0.3,
            "instructedLambda": "dishonest_small",
            "drawnRed": 51,
            "reportedRed": 51,
            "inferredRed": 35,
            "playerTrialScore": -16,
            "oppTrialScore": 0,
            "playerTotalScore": -1029,
            "oppTotalScore": 427,
            "waitTime": 7475.799311815396,
            "responseTime": 1680744247941,
            "catchQuestion": "How many <b class=\"r\">red<\/b> marbles did your opponent report drawing? ",
            "catchKey": -1,
            "catchResponse": -1,
            "catchTime": 1680744172166,
            "trialTime": 0
        },
        {
            "exptPart": "trial",
            "trialNumber": 88,
            "roleCurrent": "receiver",
            "marblesSampled": 100,
            "probRed": 0.5,
            "practiceLambda": 5,
            "trialLambda": 0.3,
            "instructedLambda": "dishonest_small",
            "drawnRed": 68,
            "reportedRed": 68,
            "inferredRed": 50,
            "playerTrialScore": -18,
            "oppTrialScore": 0,
            "playerTotalScore": -1047,
            "oppTotalScore": 427,
            "waitTime": 6677.810720009675,
            "responseTime": 1680744269541,
            "catchQuestion": "How many <b class=\"r\">red<\/b> marbles did your opponent report drawing? ",
            "catchKey": -1,
            "catchResponse": -1,
            "catchTime": 1680744172166,
            "trialTime": 0
        },
        {
            "exptPart": "trial",
            "trialNumber": 89,
            "roleCurrent": "receiver",
            "marblesSampled": 100,
            "probRed": 0.5,
            "practiceLambda": 5,
            "trialLambda": 0.3,
            "instructedLambda": "dishonest_small",
            "drawnRed": 82,
            "reportedRed": 83,
            "inferredRed": 70,
            "playerTrialScore": -12,
            "oppTrialScore": 0,
            "playerTotalScore": -1059,
            "oppTotalScore": 427,
            "waitTime": 5215.397409666411,
            "responseTime": 1680744279442,
            "catchQuestion": "How many <b class=\"r\">red<\/b> marbles did your opponent report drawing? ",
            "catchKey": -1,
            "catchResponse": -1,
            "catchTime": 1680744172166,
            "trialTime": 0
        },
        {
            "exptPart": "trial",
            "trialNumber": 90,
            "roleCurrent": "receiver",
            "marblesSampled": 100,
            "probRed": 0.5,
            "practiceLambda": 5,
            "trialLambda": 0.3,
            "instructedLambda": "dishonest_small",
            "drawnRed": 40,
            "reportedRed": 40,
            "inferredRed": 50,
            "playerTrialScore": -10,
            "oppTrialScore": 10,
            "playerTotalScore": -1069,
            "oppTotalScore": 437,
            "waitTime": 5421.181050649165,
            "responseTime": 1680744288941,
            "catchQuestion": "How many <b class=\"r\">red<\/b> marbles did your opponent report drawing? ",
            "catchKey": -1,
            "catchResponse": -1,
            "catchTime": 1680744288942,
            "trialTime": 0
        },
        {
            "exptPart": "trial",
            "trialNumber": 91,
            "roleCurrent": "receiver",
            "marblesSampled": 100,
            "probRed": 0.5,
            "practiceLambda": 5,
            "trialLambda": 0.3,
            "instructedLambda": "dishonest_small",
            "drawnRed": 45,
            "reportedRed": 46,
            "inferredRed": 50,
            "playerTrialScore": -5,
            "oppTrialScore": 5,
            "playerTotalScore": -1074,
            "oppTotalScore": 442,
            "waitTime": 5327.0190631231835,
            "responseTime": 1680744299158,
            "catchQuestion": "How many <b class=\"r\">red<\/b> marbles did your opponent report drawing? ",
            "catchKey": -1,
            "catchResponse": -1,
            "catchTime": 1680744288942,
            "trialTime": 0
        },
        {
            "exptPart": "trial",
            "trialNumber": 92,
            "roleCurrent": "receiver",
            "marblesSampled": 100,
            "probRed": 0.5,
            "practiceLambda": 5,
            "trialLambda": 0.3,
            "instructedLambda": "dishonest_small",
            "drawnRed": 32,
            "reportedRed": 32,
            "inferredRed": 70,
            "playerTrialScore": -38,
            "oppTrialScore": 38,
            "playerTotalScore": -1112,
            "oppTotalScore": 480,
            "waitTime": 5220.183140708354,
            "responseTime": 1680744308324,
            "catchQuestion": "How many <b class=\"r\">red<\/b> marbles did your opponent report drawing? ",
            "catchKey": -1,
            "catchResponse": -1,
            "catchTime": 1680744288942,
            "trialTime": 0
        },
        {
            "exptPart": "trial",
            "trialNumber": 93,
            "roleCurrent": "receiver",
            "marblesSampled": 100,
            "probRed": 0.5,
            "practiceLambda": 5,
            "trialLambda": 0.3,
            "instructedLambda": "dishonest_small",
            "drawnRed": 51,
            "reportedRed": 51,
            "inferredRed": 40,
            "playerTrialScore": -11,
            "oppTrialScore": 0,
            "playerTotalScore": -1123,
            "oppTotalScore": 480,
            "waitTime": 7338.671437547355,
            "responseTime": 1680744321475,
            "catchQuestion": "How many <b class=\"r\">red<\/b> marbles did your opponent report drawing? ",
            "catchKey": -1,
            "catchResponse": -1,
            "catchTime": 1680744288942,
            "trialTime": 0
        },
        {
            "exptPart": "trial",
            "trialNumber": 94,
            "roleCurrent": "receiver",
            "marblesSampled": 100,
            "probRed": 0.5,
            "practiceLambda": 5,
            "trialLambda": 0.3,
            "instructedLambda": "dishonest_small",
            "drawnRed": 27,
            "reportedRed": 27,
            "inferredRed": 23,
            "playerTrialScore": -4,
            "oppTrialScore": 0,
            "playerTotalScore": -1127,
            "oppTotalScore": 480,
            "waitTime": 6106.782768679183,
            "responseTime": 1680744332826,
            "catchQuestion": "How many <b class=\"r\">red<\/b> marbles did your opponent report drawing? ",
            "catchKey": 27,
            "catchResponse": 27,
            "catchTime": 1680744332826,
            "trialTime": 0
        },
        {
            "exptPart": "trial",
            "trialNumber": 95,
            "roleCurrent": "receiver",
            "marblesSampled": 100,
            "probRed": 0.5,
            "practiceLambda": 5,
            "trialLambda": 0.3,
            "instructedLambda": "dishonest_small",
            "drawnRed": 81,
            "reportedRed": 81,
            "inferredRed": 40,
            "playerTrialScore": -41,
            "oppTrialScore": 0,
            "playerTotalScore": -1168,
            "oppTotalScore": 480,
            "waitTime": 5445.091335096951,
            "responseTime": 1680744348759,
            "catchQuestion": "How many <b class=\"r\">red<\/b> marbles did your opponent report drawing? ",
            "catchKey": -1,
            "catchResponse": -1,
            "catchTime": 1680744332826,
            "trialTime": 0
        },
        {
            "exptPart": "trial",
            "trialNumber": 96,
            "roleCurrent": "receiver",
            "marblesSampled": 100,
            "probRed": 0.5,
            "practiceLambda": 5,
            "trialLambda": 0.3,
            "instructedLambda": "dishonest_small",
            "drawnRed": 44,
            "reportedRed": 44,
            "inferredRed": 60,
            "playerTrialScore": -16,
            "oppTrialScore": 16,
            "playerTotalScore": -1184,
            "oppTotalScore": 496,
            "waitTime": 5752.637449026952,
            "responseTime": 1680744357826,
            "catchQuestion": "How many <b class=\"r\">red<\/b> marbles did your opponent report drawing? ",
            "catchKey": -1,
            "catchResponse": -1,
            "catchTime": 1680744332826,
            "trialTime": 0
        },
        {
            "exptPart": "trial",
            "trialNumber": 97,
            "roleCurrent": "receiver",
            "marblesSampled": 100,
            "probRed": 0.5,
            "practiceLambda": 5,
            "trialLambda": 0.3,
            "instructedLambda": "dishonest_small",
            "drawnRed": 35,
            "reportedRed": 35,
            "inferredRed": 27,
            "playerTrialScore": -8,
            "oppTrialScore": 0,
            "playerTotalScore": -1192,
            "oppTotalScore": 496,
            "waitTime": 7050.671107485108,
            "responseTime": 1680744369326,
            "catchQuestion": "How many <b class=\"r\">red<\/b> marbles did your opponent report drawing? ",
            "catchKey": -1,
            "catchResponse": -1,
            "catchTime": 1680744332826,
            "trialTime": 0
        },
        {
            "exptPart": "trial",
            "trialNumber": 98,
            "roleCurrent": "receiver",
            "marblesSampled": 100,
            "probRed": 0.5,
            "practiceLambda": 5,
            "trialLambda": 0.3,
            "instructedLambda": "dishonest_small",
            "drawnRed": 19,
            "reportedRed": 19,
            "inferredRed": 23,
            "playerTrialScore": -4,
            "oppTrialScore": 4,
            "playerTotalScore": -1196,
            "oppTotalScore": 500,
            "waitTime": 5577.716549480512,
            "responseTime": 1680744378526,
            "catchQuestion": "How many <b class=\"r\">red<\/b> marbles did your opponent report drawing? ",
            "catchKey": -1,
            "catchResponse": -1,
            "catchTime": 1680744332826,
            "trialTime": 0
        },
        {
            "exptPart": "trial",
            "trialNumber": 99,
            "roleCurrent": "receiver",
            "marblesSampled": 100,
            "probRed": 0.5,
            "practiceLambda": 5,
            "trialLambda": 0.3,
            "instructedLambda": "dishonest_small",
            "drawnRed": 34,
            "reportedRed": 34,
            "inferredRed": 45,
            "playerTrialScore": -11,
            "oppTrialScore": 11,
            "playerTotalScore": -1207,
            "oppTotalScore": 511,
            "waitTime": 5666.92689272395,
            "responseTime": 1680744388293,
            "catchQuestion": "How many <b class=\"r\">red<\/b> marbles did your opponent report drawing? ",
            "catchKey": 34,
            "catchResponse": 34,
            "catchTime": 1680744388293,
            "trialTime": 0
        },
        {
            "exptPart": "trial",
            "trialNumber": 100,
            "roleCurrent": "receiver",
            "marblesSampled": 100,
            "probRed": 0.5,
            "practiceLambda": 5,
            "trialLambda": 0.3,
            "instructedLambda": "dishonest_small",
            "drawnRed": 66,
            "reportedRed": 66,
            "inferredRed": 70,
            "playerTrialScore": -4,
            "oppTrialScore": 4,
            "playerTotalScore": -1211,
            "oppTotalScore": 515,
            "waitTime": 5697.929410016941,
            "responseTime": 1680744401677,
            "catchQuestion": "How many <b class=\"r\">red<\/b> marbles did your opponent report drawing? ",
            "catchKey": -1,
            "catchResponse": -1,
            "catchTime": 1680744401677,
            "trialTime": 0
        }
    ]
}