{
    "client": {
        "type": "sona",
        "experiment_id": 2228,
        "credit_token": "b315147ae43241ea9c65086cb510cfb7",
        "survey_code": "45001",
        "sid": "sona-45001",
        "window": {
            "width": 1447,
            "height": 884
        },
        "screen": {
            "width": 1504,
            "height": 1003
        },
        "userAgent": "Mozilla\/5.0 (Windows NT 10.0; Win64; x64) AppleWebKit\/537.36 (KHTML, like Gecko) Chrome\/111.0.0.0 Safari\/537.36 Edg\/111.0.1661.62",
        "score": 0,
        "bonus": 0
    },
    "expt": {
        "saveURL": "submit.simple.php",
        "trials": 100,
        "practiceTrials": 2,
        "marblesSampled": 100,
        "probRed": 0.5,
        "practiceLambdaAI": 5,
        "lambdaAI": 21.9,
        "roles": [
            "sender",
            "receiver"
        ],
        "cost": "unif",
        "goal": "over",
        "oppDishonesty": "honest",
        "catchTrials": [
            11,
            10,
            28,
            43,
            77,
            54,
            84,
            82,
            17,
            38
        ],
        "scoreTotal": {
            "player": -2392,
            "opp": 482
        },
        "sona": {
            "experiment_id": 2228,
            "credit_token": "b315147ae43241ea9c65086cb510cfb7"
        },
        "pilot": false,
        "debug": false
    },
    "trials": [
        {
            "exptPart": "practice",
            "trialNumber": 1,
            "roleCurrent": "sender",
            "marblesSampled": 100,
            "probRed": 0.5,
            "practiceLambda": 5,
            "trialLambda": 21.9,
            "instructedLambda": "honest",
            "drawnRed": 72,
            "reportedRed": 5,
            "inferredRed": 0,
            "playerTrialScore": 0,
            "oppTrialScore": -72,
            "playerTotalScore": 0,
            "oppTotalScore": -72,
            "waitTime": 2131.510886452034,
            "responseTime": 1680820394093,
            "catchQuestion": "How many <b class=\"r\">red<\/b> marbles did you actually draw (before any changes)? ",
            "catchKey": 72,
            "catchResponse": 71,
            "catchTime": 1680820394094,
            "trialTime": 0
        },
        {
            "exptPart": "practice",
            "trialNumber": 2,
            "roleCurrent": "receiver",
            "marblesSampled": 100,
            "probRed": 0.5,
            "practiceLambda": 5,
            "trialLambda": 21.9,
            "instructedLambda": "honest",
            "drawnRed": 54,
            "reportedRed": 56,
            "inferredRed": 26,
            "playerTrialScore": -28,
            "oppTrialScore": 0,
            "playerTotalScore": -28,
            "oppTotalScore": -72,
            "waitTime": 6442.825288623126,
            "responseTime": 1680820492045,
            "catchQuestion": "How many <b class=\"r\">red<\/b> marbles did your opponent report drawing? ",
            "catchKey": 56,
            "catchResponse": 52,
            "catchTime": 1680820492046,
            "trialTime": 0
        },
        {
            "exptPart": "trial",
            "trialNumber": 1,
            "roleCurrent": "receiver",
            "marblesSampled": 100,
            "probRed": 0.5,
            "practiceLambda": 5,
            "trialLambda": 21.9,
            "instructedLambda": "honest",
            "drawnRed": 62,
            "reportedRed": 86,
            "inferredRed": 74,
            "playerTrialScore": -12,
            "oppTrialScore": 12,
            "playerTotalScore": -12,
            "oppTotalScore": 12,
            "waitTime": 7090.9378075508375,
            "responseTime": 1680820656212,
            "catchQuestion": "How many <b class=\"r\">red<\/b> marbles did your opponent report drawing? ",
            "catchKey": -1,
            "catchResponse": -1,
            "catchTime": 1680820492046,
            "trialTime": 0
        },
        {
            "exptPart": "trial",
            "trialNumber": 2,
            "roleCurrent": "receiver",
            "marblesSampled": 100,
            "probRed": 0.5,
            "practiceLambda": 5,
            "trialLambda": 21.9,
            "instructedLambda": "honest",
            "drawnRed": 32,
            "reportedRed": 55,
            "inferredRed": 50,
            "playerTrialScore": -18,
            "oppTrialScore": 18,
            "playerTotalScore": -30,
            "oppTotalScore": 30,
            "waitTime": 7461.7706632316695,
            "responseTime": 1680820701278,
            "catchQuestion": "How many <b class=\"r\">red<\/b> marbles did your opponent report drawing? ",
            "catchKey": -1,
            "catchResponse": -1,
            "catchTime": 1680820492046,
            "trialTime": 0
        },
        {
            "exptPart": "trial",
            "trialNumber": 3,
            "roleCurrent": "receiver",
            "marblesSampled": 100,
            "probRed": 0.5,
            "practiceLambda": 5,
            "trialLambda": 21.9,
            "instructedLambda": "honest",
            "drawnRed": 55,
            "reportedRed": 86,
            "inferredRed": 64,
            "playerTrialScore": -9,
            "oppTrialScore": 9,
            "playerTotalScore": -39,
            "oppTotalScore": 39,
            "waitTime": 6945.013123287929,
            "responseTime": 1680820737501,
            "catchQuestion": "How many <b class=\"r\">red<\/b> marbles did your opponent report drawing? ",
            "catchKey": -1,
            "catchResponse": -1,
            "catchTime": 1680820492046,
            "trialTime": 0
        },
        {
            "exptPart": "trial",
            "trialNumber": 4,
            "roleCurrent": "receiver",
            "marblesSampled": 100,
            "probRed": 0.5,
            "practiceLambda": 5,
            "trialLambda": 21.9,
            "instructedLambda": "honest",
            "drawnRed": 62,
            "reportedRed": 82,
            "inferredRed": 55,
            "playerTrialScore": -7,
            "oppTrialScore": 0,
            "playerTotalScore": -46,
            "oppTotalScore": 39,
            "waitTime": 6447.18723700201,
            "responseTime": 1680820769589,
            "catchQuestion": "How many <b class=\"r\">red<\/b> marbles did your opponent report drawing? ",
            "catchKey": -1,
            "catchResponse": -1,
            "catchTime": 1680820492046,
            "trialTime": 0
        },
        {
            "exptPart": "trial",
            "trialNumber": 5,
            "roleCurrent": "receiver",
            "marblesSampled": 100,
            "probRed": 0.5,
            "practiceLambda": 5,
            "trialLambda": 21.9,
            "instructedLambda": "honest",
            "drawnRed": 80,
            "reportedRed": 96,
            "inferredRed": 28,
            "playerTrialScore": -52,
            "oppTrialScore": 0,
            "playerTotalScore": -98,
            "oppTotalScore": 39,
            "waitTime": 5489.197495025835,
            "responseTime": 1680820798575,
            "catchQuestion": "How many <b class=\"r\">red<\/b> marbles did your opponent report drawing? ",
            "catchKey": -1,
            "catchResponse": -1,
            "catchTime": 1680820492046,
            "trialTime": 0
        },
        {
            "exptPart": "trial",
            "trialNumber": 6,
            "roleCurrent": "receiver",
            "marblesSampled": 100,
            "probRed": 0.5,
            "practiceLambda": 5,
            "trialLambda": 21.9,
            "instructedLambda": "honest",
            "drawnRed": 44,
            "reportedRed": 68,
            "inferredRed": 25,
            "playerTrialScore": -19,
            "oppTrialScore": 0,
            "playerTotalScore": -117,
            "oppTotalScore": 39,
            "waitTime": 5412.678740905314,
            "responseTime": 1680820820634,
            "catchQuestion": "How many <b class=\"r\">red<\/b> marbles did your opponent report drawing? ",
            "catchKey": -1,
            "catchResponse": -1,
            "catchTime": 1680820492046,
            "trialTime": 0
        },
        {
            "exptPart": "trial",
            "trialNumber": 7,
            "roleCurrent": "receiver",
            "marblesSampled": 100,
            "probRed": 0.5,
            "practiceLambda": 5,
            "trialLambda": 21.9,
            "instructedLambda": "honest",
            "drawnRed": 69,
            "reportedRed": 92,
            "inferredRed": 35,
            "playerTrialScore": -34,
            "oppTrialScore": 0,
            "playerTotalScore": -151,
            "oppTotalScore": 39,
            "waitTime": 5581.424800510102,
            "responseTime": 1680820875324,
            "catchQuestion": "How many <b class=\"r\">red<\/b> marbles did your opponent report drawing? ",
            "catchKey": -1,
            "catchResponse": -1,
            "catchTime": 1680820492046,
            "trialTime": 0
        },
        {
            "exptPart": "trial",
            "trialNumber": 8,
            "roleCurrent": "receiver",
            "marblesSampled": 100,
            "probRed": 0.5,
            "practiceLambda": 5,
            "trialLambda": 21.9,
            "instructedLambda": "honest",
            "drawnRed": 58,
            "reportedRed": 82,
            "inferredRed": 62,
            "playerTrialScore": -4,
            "oppTrialScore": 4,
            "playerTotalScore": -155,
            "oppTotalScore": 43,
            "waitTime": 5825.821322789724,
            "responseTime": 1680820901091,
            "catchQuestion": "How many <b class=\"r\">red<\/b> marbles did your opponent report drawing? ",
            "catchKey": -1,
            "catchResponse": -1,
            "catchTime": 1680820492046,
            "trialTime": 0
        },
        {
            "exptPart": "trial",
            "trialNumber": 9,
            "roleCurrent": "receiver",
            "marblesSampled": 100,
            "probRed": 0.5,
            "practiceLambda": 5,
            "trialLambda": 21.9,
            "instructedLambda": "honest",
            "drawnRed": 70,
            "reportedRed": 90,
            "inferredRed": 43,
            "playerTrialScore": -27,
            "oppTrialScore": 0,
            "playerTotalScore": -182,
            "oppTotalScore": 43,
            "waitTime": 6941.529304155382,
            "responseTime": 1680820921729,
            "catchQuestion": "How many <b class=\"r\">red<\/b> marbles did your opponent report drawing? ",
            "catchKey": -1,
            "catchResponse": -1,
            "catchTime": 1680820492046,
            "trialTime": 0
        },
        {
            "exptPart": "trial",
            "trialNumber": 10,
            "roleCurrent": "receiver",
            "marblesSampled": 100,
            "probRed": 0.5,
            "practiceLambda": 5,
            "trialLambda": 21.9,
            "instructedLambda": "honest",
            "drawnRed": 57,
            "reportedRed": 81,
            "inferredRed": 75,
            "playerTrialScore": -18,
            "oppTrialScore": 18,
            "playerTotalScore": -200,
            "oppTotalScore": 61,
            "waitTime": 6957.629158810329,
            "responseTime": 1680820945232,
            "catchQuestion": "How many <b class=\"r\">red<\/b> marbles did your opponent report drawing? ",
            "catchKey": -1,
            "catchResponse": -1,
            "catchTime": 1680820945232,
            "trialTime": 0
        },
        {
            "exptPart": "trial",
            "trialNumber": 11,
            "roleCurrent": "receiver",
            "marblesSampled": 100,
            "probRed": 0.5,
            "practiceLambda": 5,
            "trialLambda": 21.9,
            "instructedLambda": "honest",
            "drawnRed": 77,
            "reportedRed": 96,
            "inferredRed": 25,
            "playerTrialScore": -52,
            "oppTrialScore": 0,
            "playerTotalScore": -252,
            "oppTotalScore": 61,
            "waitTime": 5927.239087640626,
            "responseTime": 1680820969139,
            "catchQuestion": "How many <b class=\"r\">red<\/b> marbles did your opponent report drawing? ",
            "catchKey": 96,
            "catchResponse": 82,
            "catchTime": 1680820969139,
            "trialTime": 0
        },
        {
            "exptPart": "trial",
            "trialNumber": 12,
            "roleCurrent": "receiver",
            "marblesSampled": 100,
            "probRed": 0.5,
            "practiceLambda": 5,
            "trialLambda": 21.9,
            "instructedLambda": "honest",
            "drawnRed": 26,
            "reportedRed": 40,
            "inferredRed": 10,
            "playerTrialScore": -16,
            "oppTrialScore": 0,
            "playerTotalScore": -268,
            "oppTotalScore": 61,
            "waitTime": 6953.567747943609,
            "responseTime": 1680820998701,
            "catchQuestion": "How many <b class=\"r\">red<\/b> marbles did your opponent report drawing? ",
            "catchKey": 40,
            "catchResponse": 40,
            "catchTime": 1680820998702,
            "trialTime": 0
        },
        {
            "exptPart": "trial",
            "trialNumber": 13,
            "roleCurrent": "receiver",
            "marblesSampled": 100,
            "probRed": 0.5,
            "practiceLambda": 5,
            "trialLambda": 21.9,
            "instructedLambda": "honest",
            "drawnRed": 77,
            "reportedRed": 100,
            "inferredRed": 30,
            "playerTrialScore": -47,
            "oppTrialScore": 0,
            "playerTotalScore": -315,
            "oppTotalScore": 61,
            "waitTime": 6375.222447048125,
            "responseTime": 1680821020373,
            "catchQuestion": "How many <b class=\"r\">red<\/b> marbles did your opponent report drawing? ",
            "catchKey": -1,
            "catchResponse": -1,
            "catchTime": 1680820998702,
            "trialTime": 0
        },
        {
            "exptPart": "trial",
            "trialNumber": 14,
            "roleCurrent": "receiver",
            "marblesSampled": 100,
            "probRed": 0.5,
            "practiceLambda": 5,
            "trialLambda": 21.9,
            "instructedLambda": "honest",
            "drawnRed": 41,
            "reportedRed": 59,
            "inferredRed": 25,
            "playerTrialScore": -16,
            "oppTrialScore": 0,
            "playerTotalScore": -331,
            "oppTotalScore": 61,
            "waitTime": 7067.037411897414,
            "responseTime": 1680821044827,
            "catchQuestion": "How many <b class=\"r\">red<\/b> marbles did your opponent report drawing? ",
            "catchKey": -1,
            "catchResponse": -1,
            "catchTime": 1680820998702,
            "trialTime": 0
        },
        {
            "exptPart": "trial",
            "trialNumber": 15,
            "roleCurrent": "receiver",
            "marblesSampled": 100,
            "probRed": 0.5,
            "practiceLambda": 5,
            "trialLambda": 21.9,
            "instructedLambda": "honest",
            "drawnRed": 38,
            "reportedRed": 63,
            "inferredRed": 33,
            "playerTrialScore": -5,
            "oppTrialScore": 0,
            "playerTotalScore": -336,
            "oppTotalScore": 61,
            "waitTime": 6366.958452053435,
            "responseTime": 1680821057670,
            "catchQuestion": "How many <b class=\"r\">red<\/b> marbles did your opponent report drawing? ",
            "catchKey": -1,
            "catchResponse": -1,
            "catchTime": 1680820998702,
            "trialTime": 0
        },
        {
            "exptPart": "trial",
            "trialNumber": 16,
            "roleCurrent": "receiver",
            "marblesSampled": 100,
            "probRed": 0.5,
            "practiceLambda": 5,
            "trialLambda": 21.9,
            "instructedLambda": "honest",
            "drawnRed": 57,
            "reportedRed": 78,
            "inferredRed": 54,
            "playerTrialScore": -3,
            "oppTrialScore": 0,
            "playerTotalScore": -339,
            "oppTotalScore": 61,
            "waitTime": 6155.978091841766,
            "responseTime": 1680821077963,
            "catchQuestion": "How many <b class=\"r\">red<\/b> marbles did your opponent report drawing? ",
            "catchKey": -1,
            "catchResponse": -1,
            "catchTime": 1680820998702,
            "trialTime": 0
        },
        {
            "exptPart": "trial",
            "trialNumber": 17,
            "roleCurrent": "receiver",
            "marblesSampled": 100,
            "probRed": 0.5,
            "practiceLambda": 5,
            "trialLambda": 21.9,
            "instructedLambda": "honest",
            "drawnRed": 34,
            "reportedRed": 50,
            "inferredRed": 12,
            "playerTrialScore": -22,
            "oppTrialScore": 0,
            "playerTotalScore": -361,
            "oppTotalScore": 61,
            "waitTime": 5357.435550979094,
            "responseTime": 1680821088101,
            "catchQuestion": "How many <b class=\"r\">red<\/b> marbles did your opponent report drawing? ",
            "catchKey": -1,
            "catchResponse": -1,
            "catchTime": 1680820998702,
            "trialTime": 0
        },
        {
            "exptPart": "trial",
            "trialNumber": 18,
            "roleCurrent": "receiver",
            "marblesSampled": 100,
            "probRed": 0.5,
            "practiceLambda": 5,
            "trialLambda": 21.9,
            "instructedLambda": "honest",
            "drawnRed": 39,
            "reportedRed": 59,
            "inferredRed": 20,
            "playerTrialScore": -19,
            "oppTrialScore": 0,
            "playerTotalScore": -380,
            "oppTotalScore": 61,
            "waitTime": 7403.571719975983,
            "responseTime": 1680821112493,
            "catchQuestion": "How many <b class=\"r\">red<\/b> marbles did your opponent report drawing? ",
            "catchKey": 59,
            "catchResponse": 59,
            "catchTime": 1680821112493,
            "trialTime": 0
        },
        {
            "exptPart": "trial",
            "trialNumber": 19,
            "roleCurrent": "receiver",
            "marblesSampled": 100,
            "probRed": 0.5,
            "practiceLambda": 5,
            "trialLambda": 21.9,
            "instructedLambda": "honest",
            "drawnRed": 43,
            "reportedRed": 66,
            "inferredRed": 23,
            "playerTrialScore": -20,
            "oppTrialScore": 0,
            "playerTotalScore": -400,
            "oppTotalScore": 61,
            "waitTime": 5204.070675559085,
            "responseTime": 1680821130481,
            "catchQuestion": "How many <b class=\"r\">red<\/b> marbles did your opponent report drawing? ",
            "catchKey": -1,
            "catchResponse": -1,
            "catchTime": 1680821112493,
            "trialTime": 0
        },
        {
            "exptPart": "trial",
            "trialNumber": 20,
            "roleCurrent": "receiver",
            "marblesSampled": 100,
            "probRed": 0.5,
            "practiceLambda": 5,
            "trialLambda": 21.9,
            "instructedLambda": "honest",
            "drawnRed": 54,
            "reportedRed": 75,
            "inferredRed": 15,
            "playerTrialScore": -39,
            "oppTrialScore": 0,
            "playerTotalScore": -439,
            "oppTotalScore": 61,
            "waitTime": 5985.053266546486,
            "responseTime": 1680821148636,
            "catchQuestion": "How many <b class=\"r\">red<\/b> marbles did your opponent report drawing? ",
            "catchKey": -1,
            "catchResponse": -1,
            "catchTime": 1680821148636,
            "trialTime": 0
        },
        {
            "exptPart": "trial",
            "trialNumber": 21,
            "roleCurrent": "receiver",
            "marblesSampled": 100,
            "probRed": 0.5,
            "practiceLambda": 5,
            "trialLambda": 21.9,
            "instructedLambda": "honest",
            "drawnRed": 26,
            "reportedRed": 55,
            "inferredRed": 60,
            "playerTrialScore": -34,
            "oppTrialScore": 34,
            "playerTotalScore": -473,
            "oppTotalScore": 95,
            "waitTime": 5375.9685449992785,
            "responseTime": 1680821170959,
            "catchQuestion": "How many <b class=\"r\">red<\/b> marbles did your opponent report drawing? ",
            "catchKey": -1,
            "catchResponse": -1,
            "catchTime": 1680821148636,
            "trialTime": 0
        },
        {
            "exptPart": "trial",
            "trialNumber": 22,
            "roleCurrent": "receiver",
            "marblesSampled": 100,
            "probRed": 0.5,
            "practiceLambda": 5,
            "trialLambda": 21.9,
            "instructedLambda": "honest",
            "drawnRed": 41,
            "reportedRed": 61,
            "inferredRed": 70,
            "playerTrialScore": -29,
            "oppTrialScore": 29,
            "playerTotalScore": -502,
            "oppTotalScore": 124,
            "waitTime": 6082.264032158577,
            "responseTime": 1680821184340,
            "catchQuestion": "How many <b class=\"r\">red<\/b> marbles did your opponent report drawing? ",
            "catchKey": -1,
            "catchResponse": -1,
            "catchTime": 1680821148636,
            "trialTime": 0
        },
        {
            "exptPart": "trial",
            "trialNumber": 23,
            "roleCurrent": "receiver",
            "marblesSampled": 100,
            "probRed": 0.5,
            "practiceLambda": 5,
            "trialLambda": 21.9,
            "instructedLambda": "honest",
            "drawnRed": 15,
            "reportedRed": 37,
            "inferredRed": 35,
            "playerTrialScore": -20,
            "oppTrialScore": 20,
            "playerTotalScore": -522,
            "oppTotalScore": 144,
            "waitTime": 5257.7382767932495,
            "responseTime": 1680821208966,
            "catchQuestion": "How many <b class=\"r\">red<\/b> marbles did your opponent report drawing? ",
            "catchKey": -1,
            "catchResponse": -1,
            "catchTime": 1680821148636,
            "trialTime": 0
        },
        {
            "exptPart": "trial",
            "trialNumber": 24,
            "roleCurrent": "receiver",
            "marblesSampled": 100,
            "probRed": 0.5,
            "practiceLambda": 5,
            "trialLambda": 21.9,
            "instructedLambda": "honest",
            "drawnRed": 75,
            "reportedRed": 97,
            "inferredRed": 23,
            "playerTrialScore": -52,
            "oppTrialScore": 0,
            "playerTotalScore": -574,
            "oppTotalScore": 144,
            "waitTime": 6119.431266950872,
            "responseTime": 1680821222626,
            "catchQuestion": "How many <b class=\"r\">red<\/b> marbles did your opponent report drawing? ",
            "catchKey": -1,
            "catchResponse": -1,
            "catchTime": 1680821148636,
            "trialTime": 0
        },
        {
            "exptPart": "trial",
            "trialNumber": 25,
            "roleCurrent": "receiver",
            "marblesSampled": 100,
            "probRed": 0.5,
            "practiceLambda": 5,
            "trialLambda": 21.9,
            "instructedLambda": "honest",
            "drawnRed": 65,
            "reportedRed": 81,
            "inferredRed": 12,
            "playerTrialScore": -53,
            "oppTrialScore": 0,
            "playerTotalScore": -627,
            "oppTotalScore": 144,
            "waitTime": 6241.259422603501,
            "responseTime": 1680821234715,
            "catchQuestion": "How many <b class=\"r\">red<\/b> marbles did your opponent report drawing? ",
            "catchKey": -1,
            "catchResponse": -1,
            "catchTime": 1680821148636,
            "trialTime": 0
        },
        {
            "exptPart": "trial",
            "trialNumber": 26,
            "roleCurrent": "receiver",
            "marblesSampled": 100,
            "probRed": 0.5,
            "practiceLambda": 5,
            "trialLambda": 21.9,
            "instructedLambda": "honest",
            "drawnRed": 15,
            "reportedRed": 32,
            "inferredRed": 5,
            "playerTrialScore": -10,
            "oppTrialScore": 0,
            "playerTotalScore": -637,
            "oppTotalScore": 144,
            "waitTime": 7088.481458469072,
            "responseTime": 1680821245671,
            "catchQuestion": "How many <b class=\"r\">red<\/b> marbles did your opponent report drawing? ",
            "catchKey": -1,
            "catchResponse": -1,
            "catchTime": 1680821148636,
            "trialTime": 0
        },
        {
            "exptPart": "trial",
            "trialNumber": 27,
            "roleCurrent": "receiver",
            "marblesSampled": 100,
            "probRed": 0.5,
            "practiceLambda": 5,
            "trialLambda": 21.9,
            "instructedLambda": "honest",
            "drawnRed": 20,
            "reportedRed": 47,
            "inferredRed": 7,
            "playerTrialScore": -13,
            "oppTrialScore": 0,
            "playerTotalScore": -650,
            "oppTotalScore": 144,
            "waitTime": 6046.38434287277,
            "responseTime": 1680821258608,
            "catchQuestion": "How many <b class=\"r\">red<\/b> marbles did your opponent report drawing? ",
            "catchKey": -1,
            "catchResponse": -1,
            "catchTime": 1680821148636,
            "trialTime": 0
        },
        {
            "exptPart": "trial",
            "trialNumber": 28,
            "roleCurrent": "receiver",
            "marblesSampled": 100,
            "probRed": 0.5,
            "practiceLambda": 5,
            "trialLambda": 21.9,
            "instructedLambda": "honest",
            "drawnRed": 20,
            "reportedRed": 39,
            "inferredRed": 5,
            "playerTrialScore": -15,
            "oppTrialScore": 0,
            "playerTotalScore": -665,
            "oppTotalScore": 144,
            "waitTime": 6834.402310051166,
            "responseTime": 1680821270607,
            "catchQuestion": "How many <b class=\"r\">red<\/b> marbles did your opponent report drawing? ",
            "catchKey": -1,
            "catchResponse": -1,
            "catchTime": 1680821148636,
            "trialTime": 0
        },
        {
            "exptPart": "trial",
            "trialNumber": 29,
            "roleCurrent": "receiver",
            "marblesSampled": 100,
            "probRed": 0.5,
            "practiceLambda": 5,
            "trialLambda": 21.9,
            "instructedLambda": "honest",
            "drawnRed": 61,
            "reportedRed": 84,
            "inferredRed": 6,
            "playerTrialScore": -55,
            "oppTrialScore": 0,
            "playerTotalScore": -720,
            "oppTotalScore": 144,
            "waitTime": 5675.905819602272,
            "responseTime": 1680821282885,
            "catchQuestion": "How many <b class=\"r\">red<\/b> marbles did your opponent report drawing? ",
            "catchKey": 84,
            "catchResponse": 84,
            "catchTime": 1680821282885,
            "trialTime": 0
        },
        {
            "exptPart": "trial",
            "trialNumber": 30,
            "roleCurrent": "receiver",
            "marblesSampled": 100,
            "probRed": 0.5,
            "practiceLambda": 5,
            "trialLambda": 21.9,
            "instructedLambda": "honest",
            "drawnRed": 82,
            "reportedRed": 96,
            "inferredRed": 30,
            "playerTrialScore": -52,
            "oppTrialScore": 0,
            "playerTotalScore": -772,
            "oppTotalScore": 144,
            "waitTime": 6768.8003283478265,
            "responseTime": 1680821317606,
            "catchQuestion": "How many <b class=\"r\">red<\/b> marbles did your opponent report drawing? ",
            "catchKey": -1,
            "catchResponse": -1,
            "catchTime": 1680821317607,
            "trialTime": 0
        },
        {
            "exptPart": "trial",
            "trialNumber": 31,
            "roleCurrent": "receiver",
            "marblesSampled": 100,
            "probRed": 0.5,
            "practiceLambda": 5,
            "trialLambda": 21.9,
            "instructedLambda": "honest",
            "drawnRed": 54,
            "reportedRed": 76,
            "inferredRed": 80,
            "playerTrialScore": -26,
            "oppTrialScore": 26,
            "playerTotalScore": -798,
            "oppTotalScore": 170,
            "waitTime": 5902.459408754959,
            "responseTime": 1680821381601,
            "catchQuestion": "How many <b class=\"r\">red<\/b> marbles did your opponent report drawing? ",
            "catchKey": -1,
            "catchResponse": -1,
            "catchTime": 1680821317607,
            "trialTime": 0
        },
        {
            "exptPart": "trial",
            "trialNumber": 32,
            "roleCurrent": "receiver",
            "marblesSampled": 100,
            "probRed": 0.5,
            "practiceLambda": 5,
            "trialLambda": 21.9,
            "instructedLambda": "honest",
            "drawnRed": 48,
            "reportedRed": 62,
            "inferredRed": 70,
            "playerTrialScore": -22,
            "oppTrialScore": 22,
            "playerTotalScore": -820,
            "oppTotalScore": 192,
            "waitTime": 7321.551306185037,
            "responseTime": 1680821395973,
            "catchQuestion": "How many <b class=\"r\">red<\/b> marbles did your opponent report drawing? ",
            "catchKey": -1,
            "catchResponse": -1,
            "catchTime": 1680821317607,
            "trialTime": 0
        },
        {
            "exptPart": "trial",
            "trialNumber": 33,
            "roleCurrent": "receiver",
            "marblesSampled": 100,
            "probRed": 0.5,
            "practiceLambda": 5,
            "trialLambda": 21.9,
            "instructedLambda": "honest",
            "drawnRed": 86,
            "reportedRed": 100,
            "inferredRed": 100,
            "playerTrialScore": -14,
            "oppTrialScore": 14,
            "playerTotalScore": -834,
            "oppTotalScore": 206,
            "waitTime": 6262.7159183799595,
            "responseTime": 1680821416915,
            "catchQuestion": "How many <b class=\"r\">red<\/b> marbles did your opponent report drawing? ",
            "catchKey": -1,
            "catchResponse": -1,
            "catchTime": 1680821317607,
            "trialTime": 0
        },
        {
            "exptPart": "trial",
            "trialNumber": 34,
            "roleCurrent": "receiver",
            "marblesSampled": 100,
            "probRed": 0.5,
            "practiceLambda": 5,
            "trialLambda": 21.9,
            "instructedLambda": "honest",
            "drawnRed": 46,
            "reportedRed": 57,
            "inferredRed": 70,
            "playerTrialScore": -24,
            "oppTrialScore": 24,
            "playerTotalScore": -858,
            "oppTotalScore": 230,
            "waitTime": 5690.384662254355,
            "responseTime": 1680821426577,
            "catchQuestion": "How many <b class=\"r\">red<\/b> marbles did your opponent report drawing? ",
            "catchKey": -1,
            "catchResponse": -1,
            "catchTime": 1680821317607,
            "trialTime": 0
        },
        {
            "exptPart": "trial",
            "trialNumber": 35,
            "roleCurrent": "receiver",
            "marblesSampled": 100,
            "probRed": 0.5,
            "practiceLambda": 5,
            "trialLambda": 21.9,
            "instructedLambda": "honest",
            "drawnRed": 59,
            "reportedRed": 72,
            "inferredRed": 80,
            "playerTrialScore": -21,
            "oppTrialScore": 21,
            "playerTotalScore": -879,
            "oppTotalScore": 251,
            "waitTime": 5646.727235156414,
            "responseTime": 1680821443929,
            "catchQuestion": "How many <b class=\"r\">red<\/b> marbles did your opponent report drawing? ",
            "catchKey": -1,
            "catchResponse": -1,
            "catchTime": 1680821317607,
            "trialTime": 0
        },
        {
            "exptPart": "trial",
            "trialNumber": 36,
            "roleCurrent": "receiver",
            "marblesSampled": 100,
            "probRed": 0.5,
            "practiceLambda": 5,
            "trialLambda": 21.9,
            "instructedLambda": "honest",
            "drawnRed": 37,
            "reportedRed": 57,
            "inferredRed": 65,
            "playerTrialScore": -28,
            "oppTrialScore": 28,
            "playerTotalScore": -907,
            "oppTotalScore": 279,
            "waitTime": 5173.015286862428,
            "responseTime": 1680821454548,
            "catchQuestion": "How many <b class=\"r\">red<\/b> marbles did your opponent report drawing? ",
            "catchKey": -1,
            "catchResponse": -1,
            "catchTime": 1680821317607,
            "trialTime": 0
        },
        {
            "exptPart": "trial",
            "trialNumber": 37,
            "roleCurrent": "receiver",
            "marblesSampled": 100,
            "probRed": 0.5,
            "practiceLambda": 5,
            "trialLambda": 21.9,
            "instructedLambda": "honest",
            "drawnRed": 77,
            "reportedRed": 100,
            "inferredRed": 100,
            "playerTrialScore": -23,
            "oppTrialScore": 23,
            "playerTotalScore": -930,
            "oppTotalScore": 302,
            "waitTime": 6173.21252751658,
            "responseTime": 1680821465435,
            "catchQuestion": "How many <b class=\"r\">red<\/b> marbles did your opponent report drawing? ",
            "catchKey": -1,
            "catchResponse": -1,
            "catchTime": 1680821317607,
            "trialTime": 0
        },
        {
            "exptPart": "trial",
            "trialNumber": 38,
            "roleCurrent": "receiver",
            "marblesSampled": 100,
            "probRed": 0.5,
            "practiceLambda": 5,
            "trialLambda": 21.9,
            "instructedLambda": "honest",
            "drawnRed": 75,
            "reportedRed": 89,
            "inferredRed": 95,
            "playerTrialScore": -20,
            "oppTrialScore": 20,
            "playerTotalScore": -950,
            "oppTotalScore": 322,
            "waitTime": 5392.19281661419,
            "responseTime": 1680821487337,
            "catchQuestion": "How many <b class=\"r\">red<\/b> marbles did your opponent report drawing? ",
            "catchKey": -1,
            "catchResponse": -1,
            "catchTime": 1680821317607,
            "trialTime": 0
        },
        {
            "exptPart": "trial",
            "trialNumber": 39,
            "roleCurrent": "receiver",
            "marblesSampled": 100,
            "probRed": 0.5,
            "practiceLambda": 5,
            "trialLambda": 21.9,
            "instructedLambda": "honest",
            "drawnRed": 39,
            "reportedRed": 63,
            "inferredRed": 70,
            "playerTrialScore": -31,
            "oppTrialScore": 31,
            "playerTotalScore": -981,
            "oppTotalScore": 353,
            "waitTime": 6054.856279655287,
            "responseTime": 1680821497172,
            "catchQuestion": "How many <b class=\"r\">red<\/b> marbles did your opponent report drawing? ",
            "catchKey": 63,
            "catchResponse": 63,
            "catchTime": 1680821497172,
            "trialTime": 0
        },
        {
            "exptPart": "trial",
            "trialNumber": 40,
            "roleCurrent": "receiver",
            "marblesSampled": 100,
            "probRed": 0.5,
            "practiceLambda": 5,
            "trialLambda": 21.9,
            "instructedLambda": "honest",
            "drawnRed": 56,
            "reportedRed": 79,
            "inferredRed": 85,
            "playerTrialScore": -29,
            "oppTrialScore": 29,
            "playerTotalScore": -1010,
            "oppTotalScore": 382,
            "waitTime": 6963.120400733724,
            "responseTime": 1680821527716,
            "catchQuestion": "How many <b class=\"r\">red<\/b> marbles did your opponent report drawing? ",
            "catchKey": -1,
            "catchResponse": -1,
            "catchTime": 1680821527716,
            "trialTime": 0
        },
        {
            "exptPart": "trial",
            "trialNumber": 41,
            "roleCurrent": "receiver",
            "marblesSampled": 100,
            "probRed": 0.5,
            "practiceLambda": 5,
            "trialLambda": 21.9,
            "instructedLambda": "honest",
            "drawnRed": 45,
            "reportedRed": 68,
            "inferredRed": 5,
            "playerTrialScore": -40,
            "oppTrialScore": 0,
            "playerTotalScore": -1050,
            "oppTotalScore": 382,
            "waitTime": 6364.854079753885,
            "responseTime": 1680821540365,
            "catchQuestion": "How many <b class=\"r\">red<\/b> marbles did your opponent report drawing? ",
            "catchKey": -1,
            "catchResponse": -1,
            "catchTime": 1680821527716,
            "trialTime": 0
        },
        {
            "exptPart": "trial",
            "trialNumber": 42,
            "roleCurrent": "receiver",
            "marblesSampled": 100,
            "probRed": 0.5,
            "practiceLambda": 5,
            "trialLambda": 21.9,
            "instructedLambda": "honest",
            "drawnRed": 28,
            "reportedRed": 42,
            "inferredRed": 4,
            "playerTrialScore": -24,
            "oppTrialScore": 0,
            "playerTotalScore": -1074,
            "oppTotalScore": 382,
            "waitTime": 6993.184763329487,
            "responseTime": 1680821556121,
            "catchQuestion": "How many <b class=\"r\">red<\/b> marbles did your opponent report drawing? ",
            "catchKey": -1,
            "catchResponse": -1,
            "catchTime": 1680821527716,
            "trialTime": 0
        },
        {
            "exptPart": "trial",
            "trialNumber": 43,
            "roleCurrent": "receiver",
            "marblesSampled": 100,
            "probRed": 0.5,
            "practiceLambda": 5,
            "trialLambda": 21.9,
            "instructedLambda": "honest",
            "drawnRed": 63,
            "reportedRed": 86,
            "inferredRed": 12,
            "playerTrialScore": -51,
            "oppTrialScore": 0,
            "playerTotalScore": -1125,
            "oppTotalScore": 382,
            "waitTime": 5650.191345116461,
            "responseTime": 1680821564936,
            "catchQuestion": "How many <b class=\"r\">red<\/b> marbles did your opponent report drawing? ",
            "catchKey": -1,
            "catchResponse": -1,
            "catchTime": 1680821527716,
            "trialTime": 0
        },
        {
            "exptPart": "trial",
            "trialNumber": 44,
            "roleCurrent": "receiver",
            "marblesSampled": 100,
            "probRed": 0.5,
            "practiceLambda": 5,
            "trialLambda": 21.9,
            "instructedLambda": "honest",
            "drawnRed": 36,
            "reportedRed": 52,
            "inferredRed": 4,
            "playerTrialScore": -32,
            "oppTrialScore": 0,
            "playerTotalScore": -1157,
            "oppTotalScore": 382,
            "waitTime": 6376.428876265529,
            "responseTime": 1680821576859,
            "catchQuestion": "How many <b class=\"r\">red<\/b> marbles did your opponent report drawing? ",
            "catchKey": 52,
            "catchResponse": 52,
            "catchTime": 1680821576859,
            "trialTime": 0
        },
        {
            "exptPart": "trial",
            "trialNumber": 45,
            "roleCurrent": "receiver",
            "marblesSampled": 100,
            "probRed": 0.5,
            "practiceLambda": 5,
            "trialLambda": 21.9,
            "instructedLambda": "honest",
            "drawnRed": 26,
            "reportedRed": 51,
            "inferredRed": 9,
            "playerTrialScore": -17,
            "oppTrialScore": 0,
            "playerTotalScore": -1174,
            "oppTotalScore": 382,
            "waitTime": 7071.168727237187,
            "responseTime": 1680821594039,
            "catchQuestion": "How many <b class=\"r\">red<\/b> marbles did your opponent report drawing? ",
            "catchKey": -1,
            "catchResponse": -1,
            "catchTime": 1680821576859,
            "trialTime": 0
        },
        {
            "exptPart": "trial",
            "trialNumber": 46,
            "roleCurrent": "receiver",
            "marblesSampled": 100,
            "probRed": 0.5,
            "practiceLambda": 5,
            "trialLambda": 21.9,
            "instructedLambda": "honest",
            "drawnRed": 31,
            "reportedRed": 56,
            "inferredRed": 6,
            "playerTrialScore": -25,
            "oppTrialScore": 0,
            "playerTotalScore": -1199,
            "oppTotalScore": 382,
            "waitTime": 5307.718524873841,
            "responseTime": 1680821605960,
            "catchQuestion": "How many <b class=\"r\">red<\/b> marbles did your opponent report drawing? ",
            "catchKey": -1,
            "catchResponse": -1,
            "catchTime": 1680821576859,
            "trialTime": 0
        },
        {
            "exptPart": "trial",
            "trialNumber": 47,
            "roleCurrent": "receiver",
            "marblesSampled": 100,
            "probRed": 0.5,
            "practiceLambda": 5,
            "trialLambda": 21.9,
            "instructedLambda": "honest",
            "drawnRed": 66,
            "reportedRed": 88,
            "inferredRed": 12,
            "playerTrialScore": -54,
            "oppTrialScore": 0,
            "playerTotalScore": -1253,
            "oppTotalScore": 382,
            "waitTime": 7456.295195156215,
            "responseTime": 1680821618775,
            "catchQuestion": "How many <b class=\"r\">red<\/b> marbles did your opponent report drawing? ",
            "catchKey": -1,
            "catchResponse": -1,
            "catchTime": 1680821576859,
            "trialTime": 0
        },
        {
            "exptPart": "trial",
            "trialNumber": 48,
            "roleCurrent": "receiver",
            "marblesSampled": 100,
            "probRed": 0.5,
            "practiceLambda": 5,
            "trialLambda": 21.9,
            "instructedLambda": "honest",
            "drawnRed": 69,
            "reportedRed": 83,
            "inferredRed": 5,
            "playerTrialScore": -64,
            "oppTrialScore": 0,
            "playerTotalScore": -1317,
            "oppTotalScore": 382,
            "waitTime": 7249.551787593006,
            "responseTime": 1680821631594,
            "catchQuestion": "How many <b class=\"r\">red<\/b> marbles did your opponent report drawing? ",
            "catchKey": -1,
            "catchResponse": -1,
            "catchTime": 1680821576859,
            "trialTime": 0
        },
        {
            "exptPart": "trial",
            "trialNumber": 49,
            "roleCurrent": "receiver",
            "marblesSampled": 100,
            "probRed": 0.5,
            "practiceLambda": 5,
            "trialLambda": 21.9,
            "instructedLambda": "honest",
            "drawnRed": 33,
            "reportedRed": 52,
            "inferredRed": 6,
            "playerTrialScore": -27,
            "oppTrialScore": 0,
            "playerTotalScore": -1344,
            "oppTotalScore": 382,
            "waitTime": 6684.799229046623,
            "responseTime": 1680821643511,
            "catchQuestion": "How many <b class=\"r\">red<\/b> marbles did your opponent report drawing? ",
            "catchKey": -1,
            "catchResponse": -1,
            "catchTime": 1680821576859,
            "trialTime": 0
        },
        {
            "exptPart": "trial",
            "trialNumber": 50,
            "roleCurrent": "receiver",
            "marblesSampled": 100,
            "probRed": 0.5,
            "practiceLambda": 5,
            "trialLambda": 21.9,
            "instructedLambda": "honest",
            "drawnRed": 15,
            "reportedRed": 28,
            "inferredRed": 3,
            "playerTrialScore": -12,
            "oppTrialScore": 0,
            "playerTotalScore": -1356,
            "oppTotalScore": 382,
            "waitTime": 5617.981564116999,
            "responseTime": 1680821657481,
            "catchQuestion": "How many <b class=\"r\">red<\/b> marbles did your opponent report drawing? ",
            "catchKey": -1,
            "catchResponse": -1,
            "catchTime": 1680821657481,
            "trialTime": 0
        },
        {
            "exptPart": "trial",
            "trialNumber": 51,
            "roleCurrent": "receiver",
            "marblesSampled": 100,
            "probRed": 0.5,
            "practiceLambda": 5,
            "trialLambda": 21.9,
            "instructedLambda": "honest",
            "drawnRed": 24,
            "reportedRed": 51,
            "inferredRed": 6,
            "playerTrialScore": -18,
            "oppTrialScore": 0,
            "playerTotalScore": -1374,
            "oppTotalScore": 382,
            "waitTime": 5846.949763438468,
            "responseTime": 1680821675131,
            "catchQuestion": "How many <b class=\"r\">red<\/b> marbles did your opponent report drawing? ",
            "catchKey": -1,
            "catchResponse": -1,
            "catchTime": 1680821657481,
            "trialTime": 0
        },
        {
            "exptPart": "trial",
            "trialNumber": 52,
            "roleCurrent": "receiver",
            "marblesSampled": 100,
            "probRed": 0.5,
            "practiceLambda": 5,
            "trialLambda": 21.9,
            "instructedLambda": "honest",
            "drawnRed": 37,
            "reportedRed": 62,
            "inferredRed": 8,
            "playerTrialScore": -29,
            "oppTrialScore": 0,
            "playerTotalScore": -1403,
            "oppTotalScore": 382,
            "waitTime": 6535.131148484758,
            "responseTime": 1680821685365,
            "catchQuestion": "How many <b class=\"r\">red<\/b> marbles did your opponent report drawing? ",
            "catchKey": -1,
            "catchResponse": -1,
            "catchTime": 1680821657481,
            "trialTime": 0
        },
        {
            "exptPart": "trial",
            "trialNumber": 53,
            "roleCurrent": "receiver",
            "marblesSampled": 100,
            "probRed": 0.5,
            "practiceLambda": 5,
            "trialLambda": 21.9,
            "instructedLambda": "honest",
            "drawnRed": 25,
            "reportedRed": 49,
            "inferredRed": 5,
            "playerTrialScore": -20,
            "oppTrialScore": 0,
            "playerTotalScore": -1423,
            "oppTotalScore": 382,
            "waitTime": 7038.447986110226,
            "responseTime": 1680821698348,
            "catchQuestion": "How many <b class=\"r\">red<\/b> marbles did your opponent report drawing? ",
            "catchKey": -1,
            "catchResponse": -1,
            "catchTime": 1680821657481,
            "trialTime": 0
        },
        {
            "exptPart": "trial",
            "trialNumber": 54,
            "roleCurrent": "receiver",
            "marblesSampled": 100,
            "probRed": 0.5,
            "practiceLambda": 5,
            "trialLambda": 21.9,
            "instructedLambda": "honest",
            "drawnRed": 37,
            "reportedRed": 65,
            "inferredRed": 4,
            "playerTrialScore": -33,
            "oppTrialScore": 0,
            "playerTotalScore": -1456,
            "oppTotalScore": 382,
            "waitTime": 5224.347264317622,
            "responseTime": 1680821707586,
            "catchQuestion": "How many <b class=\"r\">red<\/b> marbles did your opponent report drawing? ",
            "catchKey": -1,
            "catchResponse": -1,
            "catchTime": 1680821657481,
            "trialTime": 0
        },
        {
            "exptPart": "trial",
            "trialNumber": 55,
            "roleCurrent": "receiver",
            "marblesSampled": 100,
            "probRed": 0.5,
            "practiceLambda": 5,
            "trialLambda": 21.9,
            "instructedLambda": "honest",
            "drawnRed": 97,
            "reportedRed": 100,
            "inferredRed": 3,
            "playerTrialScore": -94,
            "oppTrialScore": 0,
            "playerTotalScore": -1550,
            "oppTotalScore": 382,
            "waitTime": 6353.059931378352,
            "responseTime": 1680821720089,
            "catchQuestion": "How many <b class=\"r\">red<\/b> marbles did your opponent report drawing? ",
            "catchKey": 100,
            "catchResponse": 100,
            "catchTime": 1680821720090,
            "trialTime": 0
        },
        {
            "exptPart": "trial",
            "trialNumber": 56,
            "roleCurrent": "receiver",
            "marblesSampled": 100,
            "probRed": 0.5,
            "practiceLambda": 5,
            "trialLambda": 21.9,
            "instructedLambda": "honest",
            "drawnRed": 32,
            "reportedRed": 55,
            "inferredRed": 10,
            "playerTrialScore": -22,
            "oppTrialScore": 0,
            "playerTotalScore": -1572,
            "oppTotalScore": 382,
            "waitTime": 5300.900977714401,
            "responseTime": 1680821747556,
            "catchQuestion": "How many <b class=\"r\">red<\/b> marbles did your opponent report drawing? ",
            "catchKey": -1,
            "catchResponse": -1,
            "catchTime": 1680821720090,
            "trialTime": 0
        },
        {
            "exptPart": "trial",
            "trialNumber": 57,
            "roleCurrent": "receiver",
            "marblesSampled": 100,
            "probRed": 0.5,
            "practiceLambda": 5,
            "trialLambda": 21.9,
            "instructedLambda": "honest",
            "drawnRed": 23,
            "reportedRed": 51,
            "inferredRed": 6,
            "playerTrialScore": -17,
            "oppTrialScore": 0,
            "playerTotalScore": -1589,
            "oppTotalScore": 382,
            "waitTime": 5970.548821800901,
            "responseTime": 1680821757796,
            "catchQuestion": "How many <b class=\"r\">red<\/b> marbles did your opponent report drawing? ",
            "catchKey": -1,
            "catchResponse": -1,
            "catchTime": 1680821720090,
            "trialTime": 0
        },
        {
            "exptPart": "trial",
            "trialNumber": 58,
            "roleCurrent": "receiver",
            "marblesSampled": 100,
            "probRed": 0.5,
            "practiceLambda": 5,
            "trialLambda": 21.9,
            "instructedLambda": "honest",
            "drawnRed": 37,
            "reportedRed": 62,
            "inferredRed": 7,
            "playerTrialScore": -30,
            "oppTrialScore": 0,
            "playerTotalScore": -1619,
            "oppTotalScore": 382,
            "waitTime": 5745.3515654304865,
            "responseTime": 1680821771613,
            "catchQuestion": "How many <b class=\"r\">red<\/b> marbles did your opponent report drawing? ",
            "catchKey": -1,
            "catchResponse": -1,
            "catchTime": 1680821720090,
            "trialTime": 0
        },
        {
            "exptPart": "trial",
            "trialNumber": 59,
            "roleCurrent": "receiver",
            "marblesSampled": 100,
            "probRed": 0.5,
            "practiceLambda": 5,
            "trialLambda": 21.9,
            "instructedLambda": "honest",
            "drawnRed": 22,
            "reportedRed": 55,
            "inferredRed": 10,
            "playerTrialScore": -12,
            "oppTrialScore": 0,
            "playerTotalScore": -1631,
            "oppTotalScore": 382,
            "waitTime": 5518.911998009487,
            "responseTime": 1680821781587,
            "catchQuestion": "How many <b class=\"r\">red<\/b> marbles did your opponent report drawing? ",
            "catchKey": -1,
            "catchResponse": -1,
            "catchTime": 1680821720090,
            "trialTime": 0
        },
        {
            "exptPart": "trial",
            "trialNumber": 60,
            "roleCurrent": "receiver",
            "marblesSampled": 100,
            "probRed": 0.5,
            "practiceLambda": 5,
            "trialLambda": 21.9,
            "instructedLambda": "honest",
            "drawnRed": 10,
            "reportedRed": 26,
            "inferredRed": 8,
            "playerTrialScore": -2,
            "oppTrialScore": 0,
            "playerTotalScore": -1633,
            "oppTotalScore": 382,
            "waitTime": 5782.080188887713,
            "responseTime": 1680821799282,
            "catchQuestion": "How many <b class=\"r\">red<\/b> marbles did your opponent report drawing? ",
            "catchKey": -1,
            "catchResponse": -1,
            "catchTime": 1680821799283,
            "trialTime": 0
        },
        {
            "exptPart": "trial",
            "trialNumber": 61,
            "roleCurrent": "receiver",
            "marblesSampled": 100,
            "probRed": 0.5,
            "practiceLambda": 5,
            "trialLambda": 21.9,
            "instructedLambda": "honest",
            "drawnRed": 57,
            "reportedRed": 74,
            "inferredRed": 55,
            "playerTrialScore": -2,
            "oppTrialScore": 0,
            "playerTotalScore": -1635,
            "oppTotalScore": 382,
            "waitTime": 6386.8997273596015,
            "responseTime": 1680821815037,
            "catchQuestion": "How many <b class=\"r\">red<\/b> marbles did your opponent report drawing? ",
            "catchKey": -1,
            "catchResponse": -1,
            "catchTime": 1680821799283,
            "trialTime": 0
        },
        {
            "exptPart": "trial",
            "trialNumber": 62,
            "roleCurrent": "receiver",
            "marblesSampled": 100,
            "probRed": 0.5,
            "practiceLambda": 5,
            "trialLambda": 21.9,
            "instructedLambda": "honest",
            "drawnRed": 56,
            "reportedRed": 77,
            "inferredRed": 46,
            "playerTrialScore": -10,
            "oppTrialScore": 0,
            "playerTotalScore": -1645,
            "oppTotalScore": 382,
            "waitTime": 6186.491329314653,
            "responseTime": 1680821825849,
            "catchQuestion": "How many <b class=\"r\">red<\/b> marbles did your opponent report drawing? ",
            "catchKey": -1,
            "catchResponse": -1,
            "catchTime": 1680821799283,
            "trialTime": 0
        },
        {
            "exptPart": "trial",
            "trialNumber": 63,
            "roleCurrent": "receiver",
            "marblesSampled": 100,
            "probRed": 0.5,
            "practiceLambda": 5,
            "trialLambda": 21.9,
            "instructedLambda": "honest",
            "drawnRed": 37,
            "reportedRed": 60,
            "inferredRed": 20,
            "playerTrialScore": -17,
            "oppTrialScore": 0,
            "playerTotalScore": -1662,
            "oppTotalScore": 382,
            "waitTime": 6750.912081200475,
            "responseTime": 1680821837054,
            "catchQuestion": "How many <b class=\"r\">red<\/b> marbles did your opponent report drawing? ",
            "catchKey": -1,
            "catchResponse": -1,
            "catchTime": 1680821799283,
            "trialTime": 0
        },
        {
            "exptPart": "trial",
            "trialNumber": 64,
            "roleCurrent": "receiver",
            "marblesSampled": 100,
            "probRed": 0.5,
            "practiceLambda": 5,
            "trialLambda": 21.9,
            "instructedLambda": "honest",
            "drawnRed": 61,
            "reportedRed": 91,
            "inferredRed": 20,
            "playerTrialScore": -41,
            "oppTrialScore": 0,
            "playerTotalScore": -1703,
            "oppTotalScore": 382,
            "waitTime": 6485.359305369656,
            "responseTime": 1680821852636,
            "catchQuestion": "How many <b class=\"r\">red<\/b> marbles did your opponent report drawing? ",
            "catchKey": -1,
            "catchResponse": -1,
            "catchTime": 1680821799283,
            "trialTime": 0
        },
        {
            "exptPart": "trial",
            "trialNumber": 65,
            "roleCurrent": "receiver",
            "marblesSampled": 100,
            "probRed": 0.5,
            "practiceLambda": 5,
            "trialLambda": 21.9,
            "instructedLambda": "honest",
            "drawnRed": 46,
            "reportedRed": 71,
            "inferredRed": 26,
            "playerTrialScore": -20,
            "oppTrialScore": 0,
            "playerTotalScore": -1723,
            "oppTotalScore": 382,
            "waitTime": 6702.9842731917615,
            "responseTime": 1680821901300,
            "catchQuestion": "How many <b class=\"r\">red<\/b> marbles did your opponent report drawing? ",
            "catchKey": -1,
            "catchResponse": -1,
            "catchTime": 1680821799283,
            "trialTime": 0
        },
        {
            "exptPart": "trial",
            "trialNumber": 66,
            "roleCurrent": "receiver",
            "marblesSampled": 100,
            "probRed": 0.5,
            "practiceLambda": 5,
            "trialLambda": 21.9,
            "instructedLambda": "honest",
            "drawnRed": 73,
            "reportedRed": 96,
            "inferredRed": 26,
            "playerTrialScore": -47,
            "oppTrialScore": 0,
            "playerTotalScore": -1770,
            "oppTotalScore": 382,
            "waitTime": 7129.101773919827,
            "responseTime": 1680821938015,
            "catchQuestion": "How many <b class=\"r\">red<\/b> marbles did your opponent report drawing? ",
            "catchKey": -1,
            "catchResponse": -1,
            "catchTime": 1680821799283,
            "trialTime": 0
        },
        {
            "exptPart": "trial",
            "trialNumber": 67,
            "roleCurrent": "receiver",
            "marblesSampled": 100,
            "probRed": 0.5,
            "practiceLambda": 5,
            "trialLambda": 21.9,
            "instructedLambda": "honest",
            "drawnRed": 53,
            "reportedRed": 81,
            "inferredRed": 30,
            "playerTrialScore": -23,
            "oppTrialScore": 0,
            "playerTotalScore": -1793,
            "oppTotalScore": 382,
            "waitTime": 6650.639373955822,
            "responseTime": 1680822011291,
            "catchQuestion": "How many <b class=\"r\">red<\/b> marbles did your opponent report drawing? ",
            "catchKey": -1,
            "catchResponse": -1,
            "catchTime": 1680821799283,
            "trialTime": 0
        },
        {
            "exptPart": "trial",
            "trialNumber": 68,
            "roleCurrent": "receiver",
            "marblesSampled": 100,
            "probRed": 0.5,
            "practiceLambda": 5,
            "trialLambda": 21.9,
            "instructedLambda": "honest",
            "drawnRed": 63,
            "reportedRed": 82,
            "inferredRed": 54,
            "playerTrialScore": -9,
            "oppTrialScore": 0,
            "playerTotalScore": -1802,
            "oppTotalScore": 382,
            "waitTime": 5245.202563395502,
            "responseTime": 1680822027027,
            "catchQuestion": "How many <b class=\"r\">red<\/b> marbles did your opponent report drawing? ",
            "catchKey": -1,
            "catchResponse": -1,
            "catchTime": 1680821799283,
            "trialTime": 0
        },
        {
            "exptPart": "trial",
            "trialNumber": 69,
            "roleCurrent": "receiver",
            "marblesSampled": 100,
            "probRed": 0.5,
            "practiceLambda": 5,
            "trialLambda": 21.9,
            "instructedLambda": "honest",
            "drawnRed": 67,
            "reportedRed": 94,
            "inferredRed": 46,
            "playerTrialScore": -21,
            "oppTrialScore": 0,
            "playerTotalScore": -1823,
            "oppTotalScore": 382,
            "waitTime": 6886.277886631518,
            "responseTime": 1680822047372,
            "catchQuestion": "How many <b class=\"r\">red<\/b> marbles did your opponent report drawing? ",
            "catchKey": -1,
            "catchResponse": -1,
            "catchTime": 1680821799283,
            "trialTime": 0
        },
        {
            "exptPart": "trial",
            "trialNumber": 70,
            "roleCurrent": "receiver",
            "marblesSampled": 100,
            "probRed": 0.5,
            "practiceLambda": 5,
            "trialLambda": 21.9,
            "instructedLambda": "honest",
            "drawnRed": 31,
            "reportedRed": 50,
            "inferredRed": 20,
            "playerTrialScore": -11,
            "oppTrialScore": 0,
            "playerTotalScore": -1834,
            "oppTotalScore": 382,
            "waitTime": 5468.162729440118,
            "responseTime": 1680822056050,
            "catchQuestion": "How many <b class=\"r\">red<\/b> marbles did your opponent report drawing? ",
            "catchKey": -1,
            "catchResponse": -1,
            "catchTime": 1680822056050,
            "trialTime": 0
        },
        {
            "exptPart": "trial",
            "trialNumber": 71,
            "roleCurrent": "receiver",
            "marblesSampled": 100,
            "probRed": 0.5,
            "practiceLambda": 5,
            "trialLambda": 21.9,
            "instructedLambda": "honest",
            "drawnRed": 91,
            "reportedRed": 100,
            "inferredRed": 24,
            "playerTrialScore": -67,
            "oppTrialScore": 0,
            "playerTotalScore": -1901,
            "oppTotalScore": 382,
            "waitTime": 7406.338673094221,
            "responseTime": 1680822083978,
            "catchQuestion": "How many <b class=\"r\">red<\/b> marbles did your opponent report drawing? ",
            "catchKey": -1,
            "catchResponse": -1,
            "catchTime": 1680822056050,
            "trialTime": 0
        },
        {
            "exptPart": "trial",
            "trialNumber": 72,
            "roleCurrent": "receiver",
            "marblesSampled": 100,
            "probRed": 0.5,
            "practiceLambda": 5,
            "trialLambda": 21.9,
            "instructedLambda": "honest",
            "drawnRed": 22,
            "reportedRed": 49,
            "inferredRed": 24,
            "playerTrialScore": -2,
            "oppTrialScore": 2,
            "playerTotalScore": -1903,
            "oppTotalScore": 384,
            "waitTime": 5186.781138680728,
            "responseTime": 1680822093136,
            "catchQuestion": "How many <b class=\"r\">red<\/b> marbles did your opponent report drawing? ",
            "catchKey": -1,
            "catchResponse": -1,
            "catchTime": 1680822056050,
            "trialTime": 0
        },
        {
            "exptPart": "trial",
            "trialNumber": 73,
            "roleCurrent": "receiver",
            "marblesSampled": 100,
            "probRed": 0.5,
            "practiceLambda": 5,
            "trialLambda": 21.9,
            "instructedLambda": "honest",
            "drawnRed": 44,
            "reportedRed": 60,
            "inferredRed": 23,
            "playerTrialScore": -21,
            "oppTrialScore": 0,
            "playerTotalScore": -1924,
            "oppTotalScore": 384,
            "waitTime": 6133.665549493376,
            "responseTime": 1680822103782,
            "catchQuestion": "How many <b class=\"r\">red<\/b> marbles did your opponent report drawing? ",
            "catchKey": -1,
            "catchResponse": -1,
            "catchTime": 1680822056050,
            "trialTime": 0
        },
        {
            "exptPart": "trial",
            "trialNumber": 74,
            "roleCurrent": "receiver",
            "marblesSampled": 100,
            "probRed": 0.5,
            "practiceLambda": 5,
            "trialLambda": 21.9,
            "instructedLambda": "honest",
            "drawnRed": 58,
            "reportedRed": 83,
            "inferredRed": 60,
            "playerTrialScore": -2,
            "oppTrialScore": 2,
            "playerTotalScore": -1926,
            "oppTotalScore": 386,
            "waitTime": 5469.589735869078,
            "responseTime": 1680822113594,
            "catchQuestion": "How many <b class=\"r\">red<\/b> marbles did your opponent report drawing? ",
            "catchKey": -1,
            "catchResponse": -1,
            "catchTime": 1680822056050,
            "trialTime": 0
        },
        {
            "exptPart": "trial",
            "trialNumber": 75,
            "roleCurrent": "receiver",
            "marblesSampled": 100,
            "probRed": 0.5,
            "practiceLambda": 5,
            "trialLambda": 21.9,
            "instructedLambda": "honest",
            "drawnRed": 61,
            "reportedRed": 94,
            "inferredRed": 76,
            "playerTrialScore": -15,
            "oppTrialScore": 15,
            "playerTotalScore": -1941,
            "oppTotalScore": 401,
            "waitTime": 6592.681093059537,
            "responseTime": 1680822124176,
            "catchQuestion": "How many <b class=\"r\">red<\/b> marbles did your opponent report drawing? ",
            "catchKey": -1,
            "catchResponse": -1,
            "catchTime": 1680822056050,
            "trialTime": 0
        },
        {
            "exptPart": "trial",
            "trialNumber": 76,
            "roleCurrent": "receiver",
            "marblesSampled": 100,
            "probRed": 0.5,
            "practiceLambda": 5,
            "trialLambda": 21.9,
            "instructedLambda": "honest",
            "drawnRed": 45,
            "reportedRed": 61,
            "inferredRed": 34,
            "playerTrialScore": -11,
            "oppTrialScore": 0,
            "playerTotalScore": -1952,
            "oppTotalScore": 401,
            "waitTime": 6368.525053499357,
            "responseTime": 1680822134368,
            "catchQuestion": "How many <b class=\"r\">red<\/b> marbles did your opponent report drawing? ",
            "catchKey": -1,
            "catchResponse": -1,
            "catchTime": 1680822056050,
            "trialTime": 0
        },
        {
            "exptPart": "trial",
            "trialNumber": 77,
            "roleCurrent": "receiver",
            "marblesSampled": 100,
            "probRed": 0.5,
            "practiceLambda": 5,
            "trialLambda": 21.9,
            "instructedLambda": "honest",
            "drawnRed": 37,
            "reportedRed": 61,
            "inferredRed": 34,
            "playerTrialScore": -3,
            "oppTrialScore": 0,
            "playerTotalScore": -1955,
            "oppTotalScore": 401,
            "waitTime": 5417.13756205429,
            "responseTime": 1680822150272,
            "catchQuestion": "How many <b class=\"r\">red<\/b> marbles did your opponent report drawing? ",
            "catchKey": -1,
            "catchResponse": -1,
            "catchTime": 1680822056050,
            "trialTime": 0
        },
        {
            "exptPart": "trial",
            "trialNumber": 78,
            "roleCurrent": "receiver",
            "marblesSampled": 100,
            "probRed": 0.5,
            "practiceLambda": 5,
            "trialLambda": 21.9,
            "instructedLambda": "honest",
            "drawnRed": 68,
            "reportedRed": 90,
            "inferredRed": 34,
            "playerTrialScore": -34,
            "oppTrialScore": 0,
            "playerTotalScore": -1989,
            "oppTotalScore": 401,
            "waitTime": 6922.703206553985,
            "responseTime": 1680822176165,
            "catchQuestion": "How many <b class=\"r\">red<\/b> marbles did your opponent report drawing? ",
            "catchKey": 90,
            "catchResponse": 90,
            "catchTime": 1680822176165,
            "trialTime": 0
        },
        {
            "exptPart": "trial",
            "trialNumber": 79,
            "roleCurrent": "receiver",
            "marblesSampled": 100,
            "probRed": 0.5,
            "practiceLambda": 5,
            "trialLambda": 21.9,
            "instructedLambda": "honest",
            "drawnRed": 82,
            "reportedRed": 99,
            "inferredRed": 75,
            "playerTrialScore": -7,
            "oppTrialScore": 0,
            "playerTotalScore": -1996,
            "oppTotalScore": 401,
            "waitTime": 6982.700546691685,
            "responseTime": 1680822193711,
            "catchQuestion": "How many <b class=\"r\">red<\/b> marbles did your opponent report drawing? ",
            "catchKey": -1,
            "catchResponse": -1,
            "catchTime": 1680822176165,
            "trialTime": 0
        },
        {
            "exptPart": "trial",
            "trialNumber": 80,
            "roleCurrent": "receiver",
            "marblesSampled": 100,
            "probRed": 0.5,
            "practiceLambda": 5,
            "trialLambda": 21.9,
            "instructedLambda": "honest",
            "drawnRed": 43,
            "reportedRed": 68,
            "inferredRed": 34,
            "playerTrialScore": -9,
            "oppTrialScore": 0,
            "playerTotalScore": -2005,
            "oppTotalScore": 401,
            "waitTime": 5350.7894681553,
            "responseTime": 1680822213221,
            "catchQuestion": "How many <b class=\"r\">red<\/b> marbles did your opponent report drawing? ",
            "catchKey": -1,
            "catchResponse": -1,
            "catchTime": 1680822213221,
            "trialTime": 0
        },
        {
            "exptPart": "trial",
            "trialNumber": 81,
            "roleCurrent": "receiver",
            "marblesSampled": 100,
            "probRed": 0.5,
            "practiceLambda": 5,
            "trialLambda": 21.9,
            "instructedLambda": "honest",
            "drawnRed": 31,
            "reportedRed": 49,
            "inferredRed": 34,
            "playerTrialScore": -3,
            "oppTrialScore": 3,
            "playerTotalScore": -2008,
            "oppTotalScore": 404,
            "waitTime": 6261.678163321301,
            "responseTime": 1680822225051,
            "catchQuestion": "How many <b class=\"r\">red<\/b> marbles did your opponent report drawing? ",
            "catchKey": -1,
            "catchResponse": -1,
            "catchTime": 1680822213221,
            "trialTime": 0
        },
        {
            "exptPart": "trial",
            "trialNumber": 82,
            "roleCurrent": "receiver",
            "marblesSampled": 100,
            "probRed": 0.5,
            "practiceLambda": 5,
            "trialLambda": 21.9,
            "instructedLambda": "honest",
            "drawnRed": 38,
            "reportedRed": 55,
            "inferredRed": 43,
            "playerTrialScore": -5,
            "oppTrialScore": 5,
            "playerTotalScore": -2013,
            "oppTotalScore": 409,
            "waitTime": 5683.36259242035,
            "responseTime": 1680822234787,
            "catchQuestion": "How many <b class=\"r\">red<\/b> marbles did your opponent report drawing? ",
            "catchKey": -1,
            "catchResponse": -1,
            "catchTime": 1680822213221,
            "trialTime": 0
        },
        {
            "exptPart": "trial",
            "trialNumber": 83,
            "roleCurrent": "receiver",
            "marblesSampled": 100,
            "probRed": 0.5,
            "practiceLambda": 5,
            "trialLambda": 21.9,
            "instructedLambda": "honest",
            "drawnRed": 53,
            "reportedRed": 76,
            "inferredRed": 64,
            "playerTrialScore": -11,
            "oppTrialScore": 11,
            "playerTotalScore": -2024,
            "oppTotalScore": 420,
            "waitTime": 6746.418387673408,
            "responseTime": 1680822245914,
            "catchQuestion": "How many <b class=\"r\">red<\/b> marbles did your opponent report drawing? ",
            "catchKey": 76,
            "catchResponse": 76,
            "catchTime": 1680822245914,
            "trialTime": 0
        },
        {
            "exptPart": "trial",
            "trialNumber": 84,
            "roleCurrent": "receiver",
            "marblesSampled": 100,
            "probRed": 0.5,
            "practiceLambda": 5,
            "trialLambda": 21.9,
            "instructedLambda": "honest",
            "drawnRed": 23,
            "reportedRed": 48,
            "inferredRed": 28,
            "playerTrialScore": -5,
            "oppTrialScore": 5,
            "playerTotalScore": -2029,
            "oppTotalScore": 425,
            "waitTime": 5767.125767008164,
            "responseTime": 1680822259750,
            "catchQuestion": "How many <b class=\"r\">red<\/b> marbles did your opponent report drawing? ",
            "catchKey": -1,
            "catchResponse": -1,
            "catchTime": 1680822245914,
            "trialTime": 0
        },
        {
            "exptPart": "trial",
            "trialNumber": 85,
            "roleCurrent": "receiver",
            "marblesSampled": 100,
            "probRed": 0.5,
            "practiceLambda": 5,
            "trialLambda": 21.9,
            "instructedLambda": "honest",
            "drawnRed": 47,
            "reportedRed": 74,
            "inferredRed": 54,
            "playerTrialScore": -7,
            "oppTrialScore": 7,
            "playerTotalScore": -2036,
            "oppTotalScore": 432,
            "waitTime": 5543.299222187297,
            "responseTime": 1680822269003,
            "catchQuestion": "How many <b class=\"r\">red<\/b> marbles did your opponent report drawing? ",
            "catchKey": 74,
            "catchResponse": 74,
            "catchTime": 1680822269003,
            "trialTime": 0
        },
        {
            "exptPart": "trial",
            "trialNumber": 86,
            "roleCurrent": "receiver",
            "marblesSampled": 100,
            "probRed": 0.5,
            "practiceLambda": 5,
            "trialLambda": 21.9,
            "instructedLambda": "honest",
            "drawnRed": 21,
            "reportedRed": 47,
            "inferredRed": 43,
            "playerTrialScore": -22,
            "oppTrialScore": 22,
            "playerTotalScore": -2058,
            "oppTotalScore": 454,
            "waitTime": 6760.3625329804,
            "responseTime": 1680822285064,
            "catchQuestion": "How many <b class=\"r\">red<\/b> marbles did your opponent report drawing? ",
            "catchKey": -1,
            "catchResponse": -1,
            "catchTime": 1680822269003,
            "trialTime": 0
        },
        {
            "exptPart": "trial",
            "trialNumber": 87,
            "roleCurrent": "receiver",
            "marblesSampled": 100,
            "probRed": 0.5,
            "practiceLambda": 5,
            "trialLambda": 21.9,
            "instructedLambda": "honest",
            "drawnRed": 45,
            "reportedRed": 63,
            "inferredRed": 34,
            "playerTrialScore": -11,
            "oppTrialScore": 0,
            "playerTotalScore": -2069,
            "oppTotalScore": 454,
            "waitTime": 5159.096894436327,
            "responseTime": 1680822299951,
            "catchQuestion": "How many <b class=\"r\">red<\/b> marbles did your opponent report drawing? ",
            "catchKey": -1,
            "catchResponse": -1,
            "catchTime": 1680822269003,
            "trialTime": 0
        },
        {
            "exptPart": "trial",
            "trialNumber": 88,
            "roleCurrent": "receiver",
            "marblesSampled": 100,
            "probRed": 0.5,
            "practiceLambda": 5,
            "trialLambda": 21.9,
            "instructedLambda": "honest",
            "drawnRed": 93,
            "reportedRed": 100,
            "inferredRed": 50,
            "playerTrialScore": -43,
            "oppTrialScore": 0,
            "playerTotalScore": -2112,
            "oppTotalScore": 454,
            "waitTime": 5287.7283650229265,
            "responseTime": 1680822310537,
            "catchQuestion": "How many <b class=\"r\">red<\/b> marbles did your opponent report drawing? ",
            "catchKey": -1,
            "catchResponse": -1,
            "catchTime": 1680822269003,
            "trialTime": 0
        },
        {
            "exptPart": "trial",
            "trialNumber": 89,
            "roleCurrent": "receiver",
            "marblesSampled": 100,
            "probRed": 0.5,
            "practiceLambda": 5,
            "trialLambda": 21.9,
            "instructedLambda": "honest",
            "drawnRed": 17,
            "reportedRed": 48,
            "inferredRed": 23,
            "playerTrialScore": -6,
            "oppTrialScore": 6,
            "playerTotalScore": -2118,
            "oppTotalScore": 460,
            "waitTime": 6901.895825572737,
            "responseTime": 1680822321918,
            "catchQuestion": "How many <b class=\"r\">red<\/b> marbles did your opponent report drawing? ",
            "catchKey": -1,
            "catchResponse": -1,
            "catchTime": 1680822269003,
            "trialTime": 0
        },
        {
            "exptPart": "trial",
            "trialNumber": 90,
            "roleCurrent": "receiver",
            "marblesSampled": 100,
            "probRed": 0.5,
            "practiceLambda": 5,
            "trialLambda": 21.9,
            "instructedLambda": "honest",
            "drawnRed": 70,
            "reportedRed": 98,
            "inferredRed": 23,
            "playerTrialScore": -47,
            "oppTrialScore": 0,
            "playerTotalScore": -2165,
            "oppTotalScore": 460,
            "waitTime": 5985.290994175117,
            "responseTime": 1680822337086,
            "catchQuestion": "How many <b class=\"r\">red<\/b> marbles did your opponent report drawing? ",
            "catchKey": -1,
            "catchResponse": -1,
            "catchTime": 1680822337086,
            "trialTime": 0
        },
        {
            "exptPart": "trial",
            "trialNumber": 91,
            "roleCurrent": "receiver",
            "marblesSampled": 100,
            "probRed": 0.5,
            "practiceLambda": 5,
            "trialLambda": 21.9,
            "instructedLambda": "honest",
            "drawnRed": 73,
            "reportedRed": 98,
            "inferredRed": 23,
            "playerTrialScore": -50,
            "oppTrialScore": 0,
            "playerTotalScore": -2215,
            "oppTotalScore": 460,
            "waitTime": 7167.197378104154,
            "responseTime": 1680822349709,
            "catchQuestion": "How many <b class=\"r\">red<\/b> marbles did your opponent report drawing? ",
            "catchKey": -1,
            "catchResponse": -1,
            "catchTime": 1680822337086,
            "trialTime": 0
        },
        {
            "exptPart": "trial",
            "trialNumber": 92,
            "roleCurrent": "receiver",
            "marblesSampled": 100,
            "probRed": 0.5,
            "practiceLambda": 5,
            "trialLambda": 21.9,
            "instructedLambda": "honest",
            "drawnRed": 21,
            "reportedRed": 47,
            "inferredRed": 34,
            "playerTrialScore": -13,
            "oppTrialScore": 13,
            "playerTotalScore": -2228,
            "oppTotalScore": 473,
            "waitTime": 5684.086025601704,
            "responseTime": 1680822359022,
            "catchQuestion": "How many <b class=\"r\">red<\/b> marbles did your opponent report drawing? ",
            "catchKey": -1,
            "catchResponse": -1,
            "catchTime": 1680822337086,
            "trialTime": 0
        },
        {
            "exptPart": "trial",
            "trialNumber": 93,
            "roleCurrent": "receiver",
            "marblesSampled": 100,
            "probRed": 0.5,
            "practiceLambda": 5,
            "trialLambda": 21.9,
            "instructedLambda": "honest",
            "drawnRed": 34,
            "reportedRed": 62,
            "inferredRed": 23,
            "playerTrialScore": -11,
            "oppTrialScore": 0,
            "playerTotalScore": -2239,
            "oppTotalScore": 473,
            "waitTime": 5494.2473088357965,
            "responseTime": 1680822368219,
            "catchQuestion": "How many <b class=\"r\">red<\/b> marbles did your opponent report drawing? ",
            "catchKey": -1,
            "catchResponse": -1,
            "catchTime": 1680822337086,
            "trialTime": 0
        },
        {
            "exptPart": "trial",
            "trialNumber": 94,
            "roleCurrent": "receiver",
            "marblesSampled": 100,
            "probRed": 0.5,
            "practiceLambda": 5,
            "trialLambda": 21.9,
            "instructedLambda": "honest",
            "drawnRed": 46,
            "reportedRed": 67,
            "inferredRed": 23,
            "playerTrialScore": -23,
            "oppTrialScore": 0,
            "playerTotalScore": -2262,
            "oppTotalScore": 473,
            "waitTime": 5193.093294626367,
            "responseTime": 1680822377986,
            "catchQuestion": "How many <b class=\"r\">red<\/b> marbles did your opponent report drawing? ",
            "catchKey": -1,
            "catchResponse": -1,
            "catchTime": 1680822337086,
            "trialTime": 0
        },
        {
            "exptPart": "trial",
            "trialNumber": 95,
            "roleCurrent": "receiver",
            "marblesSampled": 100,
            "probRed": 0.5,
            "practiceLambda": 5,
            "trialLambda": 21.9,
            "instructedLambda": "honest",
            "drawnRed": 43,
            "reportedRed": 73,
            "inferredRed": 12,
            "playerTrialScore": -31,
            "oppTrialScore": 0,
            "playerTotalScore": -2293,
            "oppTotalScore": 473,
            "waitTime": 6399.925232500962,
            "responseTime": 1680822386824,
            "catchQuestion": "How many <b class=\"r\">red<\/b> marbles did your opponent report drawing? ",
            "catchKey": -1,
            "catchResponse": -1,
            "catchTime": 1680822337086,
            "trialTime": 0
        },
        {
            "exptPart": "trial",
            "trialNumber": 96,
            "roleCurrent": "receiver",
            "marblesSampled": 100,
            "probRed": 0.5,
            "practiceLambda": 5,
            "trialLambda": 21.9,
            "instructedLambda": "honest",
            "drawnRed": 64,
            "reportedRed": 80,
            "inferredRed": 23,
            "playerTrialScore": -41,
            "oppTrialScore": 0,
            "playerTotalScore": -2334,
            "oppTotalScore": 473,
            "waitTime": 5798.723173870305,
            "responseTime": 1680822396001,
            "catchQuestion": "How many <b class=\"r\">red<\/b> marbles did your opponent report drawing? ",
            "catchKey": -1,
            "catchResponse": -1,
            "catchTime": 1680822337086,
            "trialTime": 0
        },
        {
            "exptPart": "trial",
            "trialNumber": 97,
            "roleCurrent": "receiver",
            "marblesSampled": 100,
            "probRed": 0.5,
            "practiceLambda": 5,
            "trialLambda": 21.9,
            "instructedLambda": "honest",
            "drawnRed": 37,
            "reportedRed": 57,
            "inferredRed": 31,
            "playerTrialScore": -6,
            "oppTrialScore": 0,
            "playerTotalScore": -2340,
            "oppTotalScore": 473,
            "waitTime": 5503.208727510526,
            "responseTime": 1680822407292,
            "catchQuestion": "How many <b class=\"r\">red<\/b> marbles did your opponent report drawing? ",
            "catchKey": -1,
            "catchResponse": -1,
            "catchTime": 1680822337086,
            "trialTime": 0
        },
        {
            "exptPart": "trial",
            "trialNumber": 98,
            "roleCurrent": "receiver",
            "marblesSampled": 100,
            "probRed": 0.5,
            "practiceLambda": 5,
            "trialLambda": 21.9,
            "instructedLambda": "honest",
            "drawnRed": 66,
            "reportedRed": 98,
            "inferredRed": 43,
            "playerTrialScore": -23,
            "oppTrialScore": 0,
            "playerTotalScore": -2363,
            "oppTotalScore": 473,
            "waitTime": 6574.575627421641,
            "responseTime": 1680822422359,
            "catchQuestion": "How many <b class=\"r\">red<\/b> marbles did your opponent report drawing? ",
            "catchKey": -1,
            "catchResponse": -1,
            "catchTime": 1680822337086,
            "trialTime": 0
        },
        {
            "exptPart": "trial",
            "trialNumber": 99,
            "roleCurrent": "receiver",
            "marblesSampled": 100,
            "probRed": 0.5,
            "practiceLambda": 5,
            "trialLambda": 21.9,
            "instructedLambda": "honest",
            "drawnRed": 49,
            "reportedRed": 72,
            "inferredRed": 29,
            "playerTrialScore": -20,
            "oppTrialScore": 0,
            "playerTotalScore": -2383,
            "oppTotalScore": 473,
            "waitTime": 6915.488760789713,
            "responseTime": 1680822435400,
            "catchQuestion": "How many <b class=\"r\">red<\/b> marbles did your opponent report drawing? ",
            "catchKey": -1,
            "catchResponse": -1,
            "catchTime": 1680822337086,
            "trialTime": 0
        },
        {
            "exptPart": "trial",
            "trialNumber": 100,
            "roleCurrent": "receiver",
            "marblesSampled": 100,
            "probRed": 0.5,
            "practiceLambda": 5,
            "trialLambda": 21.9,
            "instructedLambda": "honest",
            "drawnRed": 43,
            "reportedRed": 70,
            "inferredRed": 52,
            "playerTrialScore": -9,
            "oppTrialScore": 9,
            "playerTotalScore": -2392,
            "oppTotalScore": 482,
            "waitTime": 7425.06135403009,
            "responseTime": 1680822449247,
            "catchQuestion": "How many <b class=\"r\">red<\/b> marbles did your opponent report drawing? ",
            "catchKey": -1,
            "catchResponse": -1,
            "catchTime": 1680822449247,
            "trialTime": 0
        }
    ]
}