{
    "client": {
        "type": "sona",
        "experiment_id": 2228,
        "credit_token": "b315147ae43241ea9c65086cb510cfb7",
        "survey_code": "29864",
        "sid": "sona-29864",
        "window": {
            "width": 1046,
            "height": 647
        },
        "screen": {
            "width": 1440,
            "height": 900
        },
        "userAgent": "Mozilla\/5.0 (Macintosh; Intel Mac OS X 10_15_7) AppleWebKit\/537.36 (KHTML, like Gecko) Chrome\/111.0.0.0 Safari\/537.36",
        "score": 0,
        "bonus": 0
    },
    "expt": {
        "saveURL": "submit.simple.php",
        "trials": 100,
        "practiceTrials": 2,
        "marblesSampled": 100,
        "probRed": 0.5,
        "practiceLambdaAI": 5,
        "lambdaAI": 8.1,
        "roles": [
            "sender",
            "receiver"
        ],
        "cost": "unif",
        "goal": "over",
        "oppDishonesty": "dishonest_big",
        "catchTrials": [
            35,
            14,
            79,
            88,
            43,
            33,
            73,
            76,
            16,
            15
        ],
        "scoreTotal": {
            "player": -957,
            "opp": 804
        },
        "sona": {
            "experiment_id": 2228,
            "credit_token": "b315147ae43241ea9c65086cb510cfb7"
        },
        "pilot": false,
        "debug": false
    },
    "trials": [
        {
            "exptPart": "practice",
            "trialNumber": 1,
            "roleCurrent": "sender",
            "marblesSampled": 100,
            "probRed": 0.5,
            "practiceLambda": 5,
            "trialLambda": 8.1,
            "instructedLambda": "dishonest_big",
            "drawnRed": 51,
            "reportedRed": 49,
            "inferredRed": 44,
            "playerTrialScore": 0,
            "oppTrialScore": -7,
            "playerTotalScore": 0,
            "oppTotalScore": -7,
            "waitTime": 2559.2259233388813,
            "responseTime": 1681179378657,
            "catchQuestion": "How many <b class=\"r\">red<\/b> marbles did you actually draw (before any changes)? ",
            "catchKey": 51,
            "catchResponse": 51,
            "catchTime": 1681179378658,
            "trialTime": 0
        },
        {
            "exptPart": "practice",
            "trialNumber": 2,
            "roleCurrent": "receiver",
            "marblesSampled": 100,
            "probRed": 0.5,
            "practiceLambda": 5,
            "trialLambda": 8.1,
            "instructedLambda": "dishonest_big",
            "drawnRed": 43,
            "reportedRed": 49,
            "inferredRed": 44,
            "playerTrialScore": -1,
            "oppTrialScore": 1,
            "playerTotalScore": -1,
            "oppTotalScore": -6,
            "waitTime": 6533.679793288582,
            "responseTime": 1681179422683,
            "catchQuestion": "How many <b class=\"r\">red<\/b> marbles did your opponent report drawing? ",
            "catchKey": 49,
            "catchResponse": 49,
            "catchTime": 1681179422683,
            "trialTime": 0
        },
        {
            "exptPart": "trial",
            "trialNumber": 1,
            "roleCurrent": "receiver",
            "marblesSampled": 100,
            "probRed": 0.5,
            "practiceLambda": 5,
            "trialLambda": 8.1,
            "instructedLambda": "dishonest_big",
            "drawnRed": 55,
            "reportedRed": 64,
            "inferredRed": 55,
            "playerTrialScore": 0,
            "oppTrialScore": 0,
            "playerTotalScore": 0,
            "oppTotalScore": 0,
            "waitTime": 5426.178568959289,
            "responseTime": 1681179487040,
            "catchQuestion": "How many <b class=\"r\">red<\/b> marbles did your opponent report drawing? ",
            "catchKey": -1,
            "catchResponse": -1,
            "catchTime": 1681179422683,
            "trialTime": 0
        },
        {
            "exptPart": "trial",
            "trialNumber": 2,
            "roleCurrent": "receiver",
            "marblesSampled": 100,
            "probRed": 0.5,
            "practiceLambda": 5,
            "trialLambda": 8.1,
            "instructedLambda": "dishonest_big",
            "drawnRed": 23,
            "reportedRed": 29,
            "inferredRed": 54,
            "playerTrialScore": -31,
            "oppTrialScore": 31,
            "playerTotalScore": -31,
            "oppTotalScore": 31,
            "waitTime": 6852.861332433104,
            "responseTime": 1681179512540,
            "catchQuestion": "How many <b class=\"r\">red<\/b> marbles did your opponent report drawing? ",
            "catchKey": -1,
            "catchResponse": -1,
            "catchTime": 1681179422683,
            "trialTime": 0
        },
        {
            "exptPart": "trial",
            "trialNumber": 3,
            "roleCurrent": "receiver",
            "marblesSampled": 100,
            "probRed": 0.5,
            "practiceLambda": 5,
            "trialLambda": 8.1,
            "instructedLambda": "dishonest_big",
            "drawnRed": 51,
            "reportedRed": 66,
            "inferredRed": 57,
            "playerTrialScore": -6,
            "oppTrialScore": 6,
            "playerTotalScore": -37,
            "oppTotalScore": 37,
            "waitTime": 5775.813964346459,
            "responseTime": 1681179528203,
            "catchQuestion": "How many <b class=\"r\">red<\/b> marbles did your opponent report drawing? ",
            "catchKey": -1,
            "catchResponse": -1,
            "catchTime": 1681179422683,
            "trialTime": 0
        },
        {
            "exptPart": "trial",
            "trialNumber": 4,
            "roleCurrent": "receiver",
            "marblesSampled": 100,
            "probRed": 0.5,
            "practiceLambda": 5,
            "trialLambda": 8.1,
            "instructedLambda": "dishonest_big",
            "drawnRed": 79,
            "reportedRed": 91,
            "inferredRed": 91,
            "playerTrialScore": -12,
            "oppTrialScore": 12,
            "playerTotalScore": -49,
            "oppTotalScore": 49,
            "waitTime": 6009.304877821225,
            "responseTime": 1681179546602,
            "catchQuestion": "How many <b class=\"r\">red<\/b> marbles did your opponent report drawing? ",
            "catchKey": -1,
            "catchResponse": -1,
            "catchTime": 1681179422683,
            "trialTime": 0
        },
        {
            "exptPart": "trial",
            "trialNumber": 5,
            "roleCurrent": "receiver",
            "marblesSampled": 100,
            "probRed": 0.5,
            "practiceLambda": 5,
            "trialLambda": 8.1,
            "instructedLambda": "dishonest_big",
            "drawnRed": 43,
            "reportedRed": 50,
            "inferredRed": 41,
            "playerTrialScore": -2,
            "oppTrialScore": 0,
            "playerTotalScore": -51,
            "oppTotalScore": 49,
            "waitTime": 5636.932259621152,
            "responseTime": 1681179558626,
            "catchQuestion": "How many <b class=\"r\">red<\/b> marbles did your opponent report drawing? ",
            "catchKey": -1,
            "catchResponse": -1,
            "catchTime": 1681179422683,
            "trialTime": 0
        },
        {
            "exptPart": "trial",
            "trialNumber": 6,
            "roleCurrent": "receiver",
            "marblesSampled": 100,
            "probRed": 0.5,
            "practiceLambda": 5,
            "trialLambda": 8.1,
            "instructedLambda": "dishonest_big",
            "drawnRed": 75,
            "reportedRed": 81,
            "inferredRed": 28,
            "playerTrialScore": -47,
            "oppTrialScore": 0,
            "playerTotalScore": -98,
            "oppTotalScore": 49,
            "waitTime": 6222.124874158448,
            "responseTime": 1681179570524,
            "catchQuestion": "How many <b class=\"r\">red<\/b> marbles did your opponent report drawing? ",
            "catchKey": -1,
            "catchResponse": -1,
            "catchTime": 1681179422683,
            "trialTime": 0
        },
        {
            "exptPart": "trial",
            "trialNumber": 7,
            "roleCurrent": "receiver",
            "marblesSampled": 100,
            "probRed": 0.5,
            "practiceLambda": 5,
            "trialLambda": 8.1,
            "instructedLambda": "dishonest_big",
            "drawnRed": 51,
            "reportedRed": 56,
            "inferredRed": 66,
            "playerTrialScore": -15,
            "oppTrialScore": 15,
            "playerTotalScore": -113,
            "oppTotalScore": 64,
            "waitTime": 6492.21689411317,
            "responseTime": 1681179589350,
            "catchQuestion": "How many <b class=\"r\">red<\/b> marbles did your opponent report drawing? ",
            "catchKey": -1,
            "catchResponse": -1,
            "catchTime": 1681179422683,
            "trialTime": 0
        },
        {
            "exptPart": "trial",
            "trialNumber": 8,
            "roleCurrent": "receiver",
            "marblesSampled": 100,
            "probRed": 0.5,
            "practiceLambda": 5,
            "trialLambda": 8.1,
            "instructedLambda": "dishonest_big",
            "drawnRed": 61,
            "reportedRed": 67,
            "inferredRed": 28,
            "playerTrialScore": -33,
            "oppTrialScore": 0,
            "playerTotalScore": -146,
            "oppTotalScore": 64,
            "waitTime": 5556.041521501894,
            "responseTime": 1681179599252,
            "catchQuestion": "How many <b class=\"r\">red<\/b> marbles did your opponent report drawing? ",
            "catchKey": -1,
            "catchResponse": -1,
            "catchTime": 1681179422683,
            "trialTime": 0
        },
        {
            "exptPart": "trial",
            "trialNumber": 9,
            "roleCurrent": "receiver",
            "marblesSampled": 100,
            "probRed": 0.5,
            "practiceLambda": 5,
            "trialLambda": 8.1,
            "instructedLambda": "dishonest_big",
            "drawnRed": 82,
            "reportedRed": 92,
            "inferredRed": 23,
            "playerTrialScore": -59,
            "oppTrialScore": 0,
            "playerTotalScore": -205,
            "oppTotalScore": 64,
            "waitTime": 5462.609344920132,
            "responseTime": 1681179628642,
            "catchQuestion": "How many <b class=\"r\">red<\/b> marbles did your opponent report drawing? ",
            "catchKey": -1,
            "catchResponse": -1,
            "catchTime": 1681179422683,
            "trialTime": 0
        },
        {
            "exptPart": "trial",
            "trialNumber": 10,
            "roleCurrent": "receiver",
            "marblesSampled": 100,
            "probRed": 0.5,
            "practiceLambda": 5,
            "trialLambda": 8.1,
            "instructedLambda": "dishonest_big",
            "drawnRed": 23,
            "reportedRed": 29,
            "inferredRed": 43,
            "playerTrialScore": -20,
            "oppTrialScore": 20,
            "playerTotalScore": -225,
            "oppTotalScore": 84,
            "waitTime": 5442.868438447555,
            "responseTime": 1681179641396,
            "catchQuestion": "How many <b class=\"r\">red<\/b> marbles did your opponent report drawing? ",
            "catchKey": -1,
            "catchResponse": -1,
            "catchTime": 1681179641396,
            "trialTime": 0
        },
        {
            "exptPart": "trial",
            "trialNumber": 11,
            "roleCurrent": "receiver",
            "marblesSampled": 100,
            "probRed": 0.5,
            "practiceLambda": 5,
            "trialLambda": 8.1,
            "instructedLambda": "dishonest_big",
            "drawnRed": 63,
            "reportedRed": 73,
            "inferredRed": 56,
            "playerTrialScore": -7,
            "oppTrialScore": 0,
            "playerTotalScore": -232,
            "oppTotalScore": 84,
            "waitTime": 6499.698741587519,
            "responseTime": 1681179660904,
            "catchQuestion": "How many <b class=\"r\">red<\/b> marbles did your opponent report drawing? ",
            "catchKey": -1,
            "catchResponse": -1,
            "catchTime": 1681179641396,
            "trialTime": 0
        },
        {
            "exptPart": "trial",
            "trialNumber": 12,
            "roleCurrent": "receiver",
            "marblesSampled": 100,
            "probRed": 0.5,
            "practiceLambda": 5,
            "trialLambda": 8.1,
            "instructedLambda": "dishonest_big",
            "drawnRed": 61,
            "reportedRed": 67,
            "inferredRed": 62,
            "playerTrialScore": -1,
            "oppTrialScore": 1,
            "playerTotalScore": -233,
            "oppTotalScore": 85,
            "waitTime": 6749.641303800694,
            "responseTime": 1681179676251,
            "catchQuestion": "How many <b class=\"r\">red<\/b> marbles did your opponent report drawing? ",
            "catchKey": -1,
            "catchResponse": -1,
            "catchTime": 1681179641396,
            "trialTime": 0
        },
        {
            "exptPart": "trial",
            "trialNumber": 13,
            "roleCurrent": "receiver",
            "marblesSampled": 100,
            "probRed": 0.5,
            "practiceLambda": 5,
            "trialLambda": 8.1,
            "instructedLambda": "dishonest_big",
            "drawnRed": 55,
            "reportedRed": 60,
            "inferredRed": 53,
            "playerTrialScore": -2,
            "oppTrialScore": 0,
            "playerTotalScore": -235,
            "oppTotalScore": 85,
            "waitTime": 5777.278744192998,
            "responseTime": 1681179696073,
            "catchQuestion": "How many <b class=\"r\">red<\/b> marbles did your opponent report drawing? ",
            "catchKey": -1,
            "catchResponse": -1,
            "catchTime": 1681179641396,
            "trialTime": 0
        },
        {
            "exptPart": "trial",
            "trialNumber": 14,
            "roleCurrent": "receiver",
            "marblesSampled": 100,
            "probRed": 0.5,
            "practiceLambda": 5,
            "trialLambda": 8.1,
            "instructedLambda": "dishonest_big",
            "drawnRed": 56,
            "reportedRed": 68,
            "inferredRed": 67,
            "playerTrialScore": -11,
            "oppTrialScore": 11,
            "playerTotalScore": -246,
            "oppTotalScore": 96,
            "waitTime": 7104.543249920478,
            "responseTime": 1681179733069,
            "catchQuestion": "How many <b class=\"r\">red<\/b> marbles did your opponent report drawing? ",
            "catchKey": -1,
            "catchResponse": -1,
            "catchTime": 1681179641396,
            "trialTime": 0
        },
        {
            "exptPart": "trial",
            "trialNumber": 15,
            "roleCurrent": "receiver",
            "marblesSampled": 100,
            "probRed": 0.5,
            "practiceLambda": 5,
            "trialLambda": 8.1,
            "instructedLambda": "dishonest_big",
            "drawnRed": 12,
            "reportedRed": 20,
            "inferredRed": 20,
            "playerTrialScore": -8,
            "oppTrialScore": 8,
            "playerTotalScore": -254,
            "oppTotalScore": 104,
            "waitTime": 7199.379805892352,
            "responseTime": 1681179746239,
            "catchQuestion": "How many <b class=\"r\">red<\/b> marbles did your opponent report drawing? ",
            "catchKey": 20,
            "catchResponse": 58,
            "catchTime": 1681179746239,
            "trialTime": 0
        },
        {
            "exptPart": "trial",
            "trialNumber": 16,
            "roleCurrent": "receiver",
            "marblesSampled": 100,
            "probRed": 0.5,
            "practiceLambda": 5,
            "trialLambda": 8.1,
            "instructedLambda": "dishonest_big",
            "drawnRed": 54,
            "reportedRed": 60,
            "inferredRed": 60,
            "playerTrialScore": -6,
            "oppTrialScore": 6,
            "playerTotalScore": -260,
            "oppTotalScore": 110,
            "waitTime": 5444.4701260866095,
            "responseTime": 1681179878444,
            "catchQuestion": "How many <b class=\"r\">red<\/b> marbles did your opponent report drawing? ",
            "catchKey": 60,
            "catchResponse": 60,
            "catchTime": 1681179878444,
            "trialTime": 0
        },
        {
            "exptPart": "trial",
            "trialNumber": 17,
            "roleCurrent": "receiver",
            "marblesSampled": 100,
            "probRed": 0.5,
            "practiceLambda": 5,
            "trialLambda": 8.1,
            "instructedLambda": "dishonest_big",
            "drawnRed": 89,
            "reportedRed": 94,
            "inferredRed": 92,
            "playerTrialScore": -3,
            "oppTrialScore": 3,
            "playerTotalScore": -263,
            "oppTotalScore": 113,
            "waitTime": 7053.907120467428,
            "responseTime": 1681179899694,
            "catchQuestion": "How many <b class=\"r\">red<\/b> marbles did your opponent report drawing? ",
            "catchKey": 94,
            "catchResponse": 94,
            "catchTime": 1681179899695,
            "trialTime": 0
        },
        {
            "exptPart": "trial",
            "trialNumber": 18,
            "roleCurrent": "receiver",
            "marblesSampled": 100,
            "probRed": 0.5,
            "practiceLambda": 5,
            "trialLambda": 8.1,
            "instructedLambda": "dishonest_big",
            "drawnRed": 64,
            "reportedRed": 70,
            "inferredRed": 72,
            "playerTrialScore": -8,
            "oppTrialScore": 8,
            "playerTotalScore": -271,
            "oppTotalScore": 121,
            "waitTime": 6895.965859741198,
            "responseTime": 1681179931858,
            "catchQuestion": "How many <b class=\"r\">red<\/b> marbles did your opponent report drawing? ",
            "catchKey": -1,
            "catchResponse": -1,
            "catchTime": 1681179899695,
            "trialTime": 0
        },
        {
            "exptPart": "trial",
            "trialNumber": 19,
            "roleCurrent": "receiver",
            "marblesSampled": 100,
            "probRed": 0.5,
            "practiceLambda": 5,
            "trialLambda": 8.1,
            "instructedLambda": "dishonest_big",
            "drawnRed": 63,
            "reportedRed": 70,
            "inferredRed": 72,
            "playerTrialScore": -9,
            "oppTrialScore": 9,
            "playerTotalScore": -280,
            "oppTotalScore": 130,
            "waitTime": 6037.915439015972,
            "responseTime": 1681179945895,
            "catchQuestion": "How many <b class=\"r\">red<\/b> marbles did your opponent report drawing? ",
            "catchKey": -1,
            "catchResponse": -1,
            "catchTime": 1681179899695,
            "trialTime": 0
        },
        {
            "exptPart": "trial",
            "trialNumber": 20,
            "roleCurrent": "receiver",
            "marblesSampled": 100,
            "probRed": 0.5,
            "practiceLambda": 5,
            "trialLambda": 8.1,
            "instructedLambda": "dishonest_big",
            "drawnRed": 84,
            "reportedRed": 94,
            "inferredRed": 92,
            "playerTrialScore": -8,
            "oppTrialScore": 8,
            "playerTotalScore": -288,
            "oppTotalScore": 138,
            "waitTime": 7493.696732870603,
            "responseTime": 1681179983289,
            "catchQuestion": "How many <b class=\"r\">red<\/b> marbles did your opponent report drawing? ",
            "catchKey": -1,
            "catchResponse": -1,
            "catchTime": 1681179983289,
            "trialTime": 0
        },
        {
            "exptPart": "trial",
            "trialNumber": 21,
            "roleCurrent": "receiver",
            "marblesSampled": 100,
            "probRed": 0.5,
            "practiceLambda": 5,
            "trialLambda": 8.1,
            "instructedLambda": "dishonest_big",
            "drawnRed": 64,
            "reportedRed": 74,
            "inferredRed": 72,
            "playerTrialScore": -8,
            "oppTrialScore": 8,
            "playerTotalScore": -296,
            "oppTotalScore": 146,
            "waitTime": 5814.303102975755,
            "responseTime": 1681180014577,
            "catchQuestion": "How many <b class=\"r\">red<\/b> marbles did your opponent report drawing? ",
            "catchKey": -1,
            "catchResponse": -1,
            "catchTime": 1681179983289,
            "trialTime": 0
        },
        {
            "exptPart": "trial",
            "trialNumber": 22,
            "roleCurrent": "receiver",
            "marblesSampled": 100,
            "probRed": 0.5,
            "practiceLambda": 5,
            "trialLambda": 8.1,
            "instructedLambda": "dishonest_big",
            "drawnRed": 52,
            "reportedRed": 63,
            "inferredRed": 65,
            "playerTrialScore": -13,
            "oppTrialScore": 13,
            "playerTotalScore": -309,
            "oppTotalScore": 159,
            "waitTime": 5481.118612817709,
            "responseTime": 1681180033488,
            "catchQuestion": "How many <b class=\"r\">red<\/b> marbles did your opponent report drawing? ",
            "catchKey": -1,
            "catchResponse": -1,
            "catchTime": 1681179983289,
            "trialTime": 0
        },
        {
            "exptPart": "trial",
            "trialNumber": 23,
            "roleCurrent": "receiver",
            "marblesSampled": 100,
            "probRed": 0.5,
            "practiceLambda": 5,
            "trialLambda": 8.1,
            "instructedLambda": "dishonest_big",
            "drawnRed": 51,
            "reportedRed": 58,
            "inferredRed": 60,
            "playerTrialScore": -9,
            "oppTrialScore": 9,
            "playerTotalScore": -318,
            "oppTotalScore": 168,
            "waitTime": 6282.923297461823,
            "responseTime": 1681180050201,
            "catchQuestion": "How many <b class=\"r\">red<\/b> marbles did your opponent report drawing? ",
            "catchKey": -1,
            "catchResponse": -1,
            "catchTime": 1681179983289,
            "trialTime": 0
        },
        {
            "exptPart": "trial",
            "trialNumber": 24,
            "roleCurrent": "receiver",
            "marblesSampled": 100,
            "probRed": 0.5,
            "practiceLambda": 5,
            "trialLambda": 8.1,
            "instructedLambda": "dishonest_big",
            "drawnRed": 23,
            "reportedRed": 31,
            "inferredRed": 33,
            "playerTrialScore": -10,
            "oppTrialScore": 10,
            "playerTotalScore": -328,
            "oppTotalScore": 178,
            "waitTime": 6474.5960560190215,
            "responseTime": 1681180079932,
            "catchQuestion": "How many <b class=\"r\">red<\/b> marbles did your opponent report drawing? ",
            "catchKey": -1,
            "catchResponse": -1,
            "catchTime": 1681179983289,
            "trialTime": 0
        },
        {
            "exptPart": "trial",
            "trialNumber": 25,
            "roleCurrent": "receiver",
            "marblesSampled": 100,
            "probRed": 0.5,
            "practiceLambda": 5,
            "trialLambda": 8.1,
            "instructedLambda": "dishonest_big",
            "drawnRed": 49,
            "reportedRed": 55,
            "inferredRed": 57,
            "playerTrialScore": -8,
            "oppTrialScore": 8,
            "playerTotalScore": -336,
            "oppTotalScore": 186,
            "waitTime": 5323.114677496404,
            "responseTime": 1681180281888,
            "catchQuestion": "How many <b class=\"r\">red<\/b> marbles did your opponent report drawing? ",
            "catchKey": -1,
            "catchResponse": -1,
            "catchTime": 1681179983289,
            "trialTime": 0
        },
        {
            "exptPart": "trial",
            "trialNumber": 26,
            "roleCurrent": "receiver",
            "marblesSampled": 100,
            "probRed": 0.5,
            "practiceLambda": 5,
            "trialLambda": 8.1,
            "instructedLambda": "dishonest_big",
            "drawnRed": 39,
            "reportedRed": 44,
            "inferredRed": 46,
            "playerTrialScore": -7,
            "oppTrialScore": 7,
            "playerTotalScore": -343,
            "oppTotalScore": 193,
            "waitTime": 6120.537250493127,
            "responseTime": 1681180302183,
            "catchQuestion": "How many <b class=\"r\">red<\/b> marbles did your opponent report drawing? ",
            "catchKey": -1,
            "catchResponse": -1,
            "catchTime": 1681179983289,
            "trialTime": 0
        },
        {
            "exptPart": "trial",
            "trialNumber": 27,
            "roleCurrent": "receiver",
            "marblesSampled": 100,
            "probRed": 0.5,
            "practiceLambda": 5,
            "trialLambda": 8.1,
            "instructedLambda": "dishonest_big",
            "drawnRed": 34,
            "reportedRed": 46,
            "inferredRed": 47,
            "playerTrialScore": -13,
            "oppTrialScore": 13,
            "playerTotalScore": -356,
            "oppTotalScore": 206,
            "waitTime": 6061.588546811559,
            "responseTime": 1681180317071,
            "catchQuestion": "How many <b class=\"r\">red<\/b> marbles did your opponent report drawing? ",
            "catchKey": -1,
            "catchResponse": -1,
            "catchTime": 1681179983289,
            "trialTime": 0
        },
        {
            "exptPart": "trial",
            "trialNumber": 28,
            "roleCurrent": "receiver",
            "marblesSampled": 100,
            "probRed": 0.5,
            "practiceLambda": 5,
            "trialLambda": 8.1,
            "instructedLambda": "dishonest_big",
            "drawnRed": 7,
            "reportedRed": 15,
            "inferredRed": 17,
            "playerTrialScore": -10,
            "oppTrialScore": 10,
            "playerTotalScore": -366,
            "oppTotalScore": 216,
            "waitTime": 7028.809901461802,
            "responseTime": 1681180522374,
            "catchQuestion": "How many <b class=\"r\">red<\/b> marbles did your opponent report drawing? ",
            "catchKey": -1,
            "catchResponse": -1,
            "catchTime": 1681179983289,
            "trialTime": 0
        },
        {
            "exptPart": "trial",
            "trialNumber": 29,
            "roleCurrent": "receiver",
            "marblesSampled": 100,
            "probRed": 0.5,
            "practiceLambda": 5,
            "trialLambda": 8.1,
            "instructedLambda": "dishonest_big",
            "drawnRed": 31,
            "reportedRed": 39,
            "inferredRed": 41,
            "playerTrialScore": -10,
            "oppTrialScore": 10,
            "playerTotalScore": -376,
            "oppTotalScore": 226,
            "waitTime": 5235.385363549547,
            "responseTime": 1681180540879,
            "catchQuestion": "How many <b class=\"r\">red<\/b> marbles did your opponent report drawing? ",
            "catchKey": -1,
            "catchResponse": -1,
            "catchTime": 1681179983289,
            "trialTime": 0
        },
        {
            "exptPart": "trial",
            "trialNumber": 30,
            "roleCurrent": "receiver",
            "marblesSampled": 100,
            "probRed": 0.5,
            "practiceLambda": 5,
            "trialLambda": 8.1,
            "instructedLambda": "dishonest_big",
            "drawnRed": 47,
            "reportedRed": 57,
            "inferredRed": 53,
            "playerTrialScore": -6,
            "oppTrialScore": 6,
            "playerTotalScore": -382,
            "oppTotalScore": 232,
            "waitTime": 6425.102038779437,
            "responseTime": 1681180597004,
            "catchQuestion": "How many <b class=\"r\">red<\/b> marbles did your opponent report drawing? ",
            "catchKey": -1,
            "catchResponse": -1,
            "catchTime": 1681180597004,
            "trialTime": 0
        },
        {
            "exptPart": "trial",
            "trialNumber": 31,
            "roleCurrent": "receiver",
            "marblesSampled": 100,
            "probRed": 0.5,
            "practiceLambda": 5,
            "trialLambda": 8.1,
            "instructedLambda": "dishonest_big",
            "drawnRed": 35,
            "reportedRed": 43,
            "inferredRed": 45,
            "playerTrialScore": -10,
            "oppTrialScore": 10,
            "playerTotalScore": -392,
            "oppTotalScore": 242,
            "waitTime": 5817.498115797445,
            "responseTime": 1681180668275,
            "catchQuestion": "How many <b class=\"r\">red<\/b> marbles did your opponent report drawing? ",
            "catchKey": -1,
            "catchResponse": -1,
            "catchTime": 1681180597004,
            "trialTime": 0
        },
        {
            "exptPart": "trial",
            "trialNumber": 32,
            "roleCurrent": "receiver",
            "marblesSampled": 100,
            "probRed": 0.5,
            "practiceLambda": 5,
            "trialLambda": 8.1,
            "instructedLambda": "dishonest_big",
            "drawnRed": 51,
            "reportedRed": 59,
            "inferredRed": 57,
            "playerTrialScore": -6,
            "oppTrialScore": 6,
            "playerTotalScore": -398,
            "oppTotalScore": 248,
            "waitTime": 5947.302546900014,
            "responseTime": 1681180681348,
            "catchQuestion": "How many <b class=\"r\">red<\/b> marbles did your opponent report drawing? ",
            "catchKey": -1,
            "catchResponse": -1,
            "catchTime": 1681180597004,
            "trialTime": 0
        },
        {
            "exptPart": "trial",
            "trialNumber": 33,
            "roleCurrent": "receiver",
            "marblesSampled": 100,
            "probRed": 0.5,
            "practiceLambda": 5,
            "trialLambda": 8.1,
            "instructedLambda": "dishonest_big",
            "drawnRed": 65,
            "reportedRed": 76,
            "inferredRed": 74,
            "playerTrialScore": -9,
            "oppTrialScore": 9,
            "playerTotalScore": -407,
            "oppTotalScore": 257,
            "waitTime": 6152.252890635554,
            "responseTime": 1681180701044,
            "catchQuestion": "How many <b class=\"r\">red<\/b> marbles did your opponent report drawing? ",
            "catchKey": -1,
            "catchResponse": -1,
            "catchTime": 1681180597004,
            "trialTime": 0
        },
        {
            "exptPart": "trial",
            "trialNumber": 34,
            "roleCurrent": "receiver",
            "marblesSampled": 100,
            "probRed": 0.5,
            "practiceLambda": 5,
            "trialLambda": 8.1,
            "instructedLambda": "dishonest_big",
            "drawnRed": 35,
            "reportedRed": 43,
            "inferredRed": 47,
            "playerTrialScore": -12,
            "oppTrialScore": 12,
            "playerTotalScore": -419,
            "oppTotalScore": 269,
            "waitTime": 7061.022882972785,
            "responseTime": 1681180715534,
            "catchQuestion": "How many <b class=\"r\">red<\/b> marbles did your opponent report drawing? ",
            "catchKey": 43,
            "catchResponse": 53,
            "catchTime": 1681180715534,
            "trialTime": 0
        },
        {
            "exptPart": "trial",
            "trialNumber": 35,
            "roleCurrent": "receiver",
            "marblesSampled": 100,
            "probRed": 0.5,
            "practiceLambda": 5,
            "trialLambda": 8.1,
            "instructedLambda": "dishonest_big",
            "drawnRed": 60,
            "reportedRed": 73,
            "inferredRed": 66,
            "playerTrialScore": -6,
            "oppTrialScore": 6,
            "playerTotalScore": -425,
            "oppTotalScore": 275,
            "waitTime": 7070.653864918144,
            "responseTime": 1681180894932,
            "catchQuestion": "How many <b class=\"r\">red<\/b> marbles did your opponent report drawing? ",
            "catchKey": -1,
            "catchResponse": -1,
            "catchTime": 1681180715534,
            "trialTime": 0
        },
        {
            "exptPart": "trial",
            "trialNumber": 36,
            "roleCurrent": "receiver",
            "marblesSampled": 100,
            "probRed": 0.5,
            "practiceLambda": 5,
            "trialLambda": 8.1,
            "instructedLambda": "dishonest_big",
            "drawnRed": 32,
            "reportedRed": 38,
            "inferredRed": 44,
            "playerTrialScore": -12,
            "oppTrialScore": 12,
            "playerTotalScore": -437,
            "oppTotalScore": 287,
            "waitTime": 5537.212043566833,
            "responseTime": 1681180921938,
            "catchQuestion": "How many <b class=\"r\">red<\/b> marbles did your opponent report drawing? ",
            "catchKey": 38,
            "catchResponse": 38,
            "catchTime": 1681180921938,
            "trialTime": 0
        },
        {
            "exptPart": "trial",
            "trialNumber": 37,
            "roleCurrent": "receiver",
            "marblesSampled": 100,
            "probRed": 0.5,
            "practiceLambda": 5,
            "trialLambda": 8.1,
            "instructedLambda": "dishonest_big",
            "drawnRed": 50,
            "reportedRed": 63,
            "inferredRed": 66,
            "playerTrialScore": -16,
            "oppTrialScore": 16,
            "playerTotalScore": -453,
            "oppTotalScore": 303,
            "waitTime": 7177.568567410203,
            "responseTime": 1681180975775,
            "catchQuestion": "How many <b class=\"r\">red<\/b> marbles did your opponent report drawing? ",
            "catchKey": -1,
            "catchResponse": -1,
            "catchTime": 1681180921938,
            "trialTime": 0
        },
        {
            "exptPart": "trial",
            "trialNumber": 38,
            "roleCurrent": "receiver",
            "marblesSampled": 100,
            "probRed": 0.5,
            "practiceLambda": 5,
            "trialLambda": 8.1,
            "instructedLambda": "dishonest_big",
            "drawnRed": 49,
            "reportedRed": 56,
            "inferredRed": 87,
            "playerTrialScore": -38,
            "oppTrialScore": 38,
            "playerTotalScore": -491,
            "oppTotalScore": 341,
            "waitTime": 5713.315391465284,
            "responseTime": 1681180999336,
            "catchQuestion": "How many <b class=\"r\">red<\/b> marbles did your opponent report drawing? ",
            "catchKey": -1,
            "catchResponse": -1,
            "catchTime": 1681180921938,
            "trialTime": 0
        },
        {
            "exptPart": "trial",
            "trialNumber": 39,
            "roleCurrent": "receiver",
            "marblesSampled": 100,
            "probRed": 0.5,
            "practiceLambda": 5,
            "trialLambda": 8.1,
            "instructedLambda": "dishonest_big",
            "drawnRed": 63,
            "reportedRed": 79,
            "inferredRed": 78,
            "playerTrialScore": -15,
            "oppTrialScore": 15,
            "playerTotalScore": -506,
            "oppTotalScore": 356,
            "waitTime": 6978.751404805614,
            "responseTime": 1681181083955,
            "catchQuestion": "How many <b class=\"r\">red<\/b> marbles did your opponent report drawing? ",
            "catchKey": -1,
            "catchResponse": -1,
            "catchTime": 1681180921938,
            "trialTime": 0
        },
        {
            "exptPart": "trial",
            "trialNumber": 40,
            "roleCurrent": "receiver",
            "marblesSampled": 100,
            "probRed": 0.5,
            "practiceLambda": 5,
            "trialLambda": 8.1,
            "instructedLambda": "dishonest_big",
            "drawnRed": 45,
            "reportedRed": 51,
            "inferredRed": 51,
            "playerTrialScore": -6,
            "oppTrialScore": 6,
            "playerTotalScore": -512,
            "oppTotalScore": 362,
            "waitTime": 5425.450315363458,
            "responseTime": 1681181093457,
            "catchQuestion": "How many <b class=\"r\">red<\/b> marbles did your opponent report drawing? ",
            "catchKey": -1,
            "catchResponse": -1,
            "catchTime": 1681181093457,
            "trialTime": 0
        },
        {
            "exptPart": "trial",
            "trialNumber": 41,
            "roleCurrent": "receiver",
            "marblesSampled": 100,
            "probRed": 0.5,
            "practiceLambda": 5,
            "trialLambda": 8.1,
            "instructedLambda": "dishonest_big",
            "drawnRed": 57,
            "reportedRed": 67,
            "inferredRed": 67,
            "playerTrialScore": -10,
            "oppTrialScore": 10,
            "playerTotalScore": -522,
            "oppTotalScore": 372,
            "waitTime": 6671.594179529398,
            "responseTime": 1681181128656,
            "catchQuestion": "How many <b class=\"r\">red<\/b> marbles did your opponent report drawing? ",
            "catchKey": -1,
            "catchResponse": -1,
            "catchTime": 1681181093457,
            "trialTime": 0
        },
        {
            "exptPart": "trial",
            "trialNumber": 42,
            "roleCurrent": "receiver",
            "marblesSampled": 100,
            "probRed": 0.5,
            "practiceLambda": 5,
            "trialLambda": 8.1,
            "instructedLambda": "dishonest_big",
            "drawnRed": 87,
            "reportedRed": 96,
            "inferredRed": 96,
            "playerTrialScore": -9,
            "oppTrialScore": 9,
            "playerTotalScore": -531,
            "oppTotalScore": 381,
            "waitTime": 7086.236081574077,
            "responseTime": 1681181180897,
            "catchQuestion": "How many <b class=\"r\">red<\/b> marbles did your opponent report drawing? ",
            "catchKey": -1,
            "catchResponse": -1,
            "catchTime": 1681181093457,
            "trialTime": 0
        },
        {
            "exptPart": "trial",
            "trialNumber": 43,
            "roleCurrent": "receiver",
            "marblesSampled": 100,
            "probRed": 0.5,
            "practiceLambda": 5,
            "trialLambda": 8.1,
            "instructedLambda": "dishonest_big",
            "drawnRed": 53,
            "reportedRed": 61,
            "inferredRed": 61,
            "playerTrialScore": -8,
            "oppTrialScore": 8,
            "playerTotalScore": -539,
            "oppTotalScore": 389,
            "waitTime": 6404.639505649071,
            "responseTime": 1681181343661,
            "catchQuestion": "How many <b class=\"r\">red<\/b> marbles did your opponent report drawing? ",
            "catchKey": -1,
            "catchResponse": -1,
            "catchTime": 1681181093457,
            "trialTime": 0
        },
        {
            "exptPart": "trial",
            "trialNumber": 44,
            "roleCurrent": "receiver",
            "marblesSampled": 100,
            "probRed": 0.5,
            "practiceLambda": 5,
            "trialLambda": 8.1,
            "instructedLambda": "dishonest_big",
            "drawnRed": 69,
            "reportedRed": 76,
            "inferredRed": 76,
            "playerTrialScore": -7,
            "oppTrialScore": 7,
            "playerTotalScore": -546,
            "oppTotalScore": 396,
            "waitTime": 7464.432888546774,
            "responseTime": 1681181355696,
            "catchQuestion": "How many <b class=\"r\">red<\/b> marbles did your opponent report drawing? ",
            "catchKey": 76,
            "catchResponse": 76,
            "catchTime": 1681181355696,
            "trialTime": 0
        },
        {
            "exptPart": "trial",
            "trialNumber": 45,
            "roleCurrent": "receiver",
            "marblesSampled": 100,
            "probRed": 0.5,
            "practiceLambda": 5,
            "trialLambda": 8.1,
            "instructedLambda": "dishonest_big",
            "drawnRed": 35,
            "reportedRed": 41,
            "inferredRed": 41,
            "playerTrialScore": -6,
            "oppTrialScore": 6,
            "playerTotalScore": -552,
            "oppTotalScore": 402,
            "waitTime": 6952.200005878039,
            "responseTime": 1681181379588,
            "catchQuestion": "How many <b class=\"r\">red<\/b> marbles did your opponent report drawing? ",
            "catchKey": -1,
            "catchResponse": -1,
            "catchTime": 1681181355696,
            "trialTime": 0
        },
        {
            "exptPart": "trial",
            "trialNumber": 46,
            "roleCurrent": "receiver",
            "marblesSampled": 100,
            "probRed": 0.5,
            "practiceLambda": 5,
            "trialLambda": 8.1,
            "instructedLambda": "dishonest_big",
            "drawnRed": 58,
            "reportedRed": 66,
            "inferredRed": 55,
            "playerTrialScore": -3,
            "oppTrialScore": 0,
            "playerTotalScore": -555,
            "oppTotalScore": 402,
            "waitTime": 5630.241175127816,
            "responseTime": 1681181572440,
            "catchQuestion": "How many <b class=\"r\">red<\/b> marbles did your opponent report drawing? ",
            "catchKey": -1,
            "catchResponse": -1,
            "catchTime": 1681181355696,
            "trialTime": 0
        },
        {
            "exptPart": "trial",
            "trialNumber": 47,
            "roleCurrent": "receiver",
            "marblesSampled": 100,
            "probRed": 0.5,
            "practiceLambda": 5,
            "trialLambda": 8.1,
            "instructedLambda": "dishonest_big",
            "drawnRed": 48,
            "reportedRed": 54,
            "inferredRed": 54,
            "playerTrialScore": -6,
            "oppTrialScore": 6,
            "playerTotalScore": -561,
            "oppTotalScore": 408,
            "waitTime": 6811.224300933265,
            "responseTime": 1681181618434,
            "catchQuestion": "How many <b class=\"r\">red<\/b> marbles did your opponent report drawing? ",
            "catchKey": -1,
            "catchResponse": -1,
            "catchTime": 1681181355696,
            "trialTime": 0
        },
        {
            "exptPart": "trial",
            "trialNumber": 48,
            "roleCurrent": "receiver",
            "marblesSampled": 100,
            "probRed": 0.5,
            "practiceLambda": 5,
            "trialLambda": 8.1,
            "instructedLambda": "dishonest_big",
            "drawnRed": 87,
            "reportedRed": 92,
            "inferredRed": 92,
            "playerTrialScore": -5,
            "oppTrialScore": 5,
            "playerTotalScore": -566,
            "oppTotalScore": 413,
            "waitTime": 5941.292785445199,
            "responseTime": 1681181629458,
            "catchQuestion": "How many <b class=\"r\">red<\/b> marbles did your opponent report drawing? ",
            "catchKey": -1,
            "catchResponse": -1,
            "catchTime": 1681181355696,
            "trialTime": 0
        },
        {
            "exptPart": "trial",
            "trialNumber": 49,
            "roleCurrent": "receiver",
            "marblesSampled": 100,
            "probRed": 0.5,
            "practiceLambda": 5,
            "trialLambda": 8.1,
            "instructedLambda": "dishonest_big",
            "drawnRed": 49,
            "reportedRed": 53,
            "inferredRed": 53,
            "playerTrialScore": -4,
            "oppTrialScore": 4,
            "playerTotalScore": -570,
            "oppTotalScore": 417,
            "waitTime": 6017.287304176803,
            "responseTime": 1681181780575,
            "catchQuestion": "How many <b class=\"r\">red<\/b> marbles did your opponent report drawing? ",
            "catchKey": -1,
            "catchResponse": -1,
            "catchTime": 1681181355696,
            "trialTime": 0
        },
        {
            "exptPart": "trial",
            "trialNumber": 50,
            "roleCurrent": "receiver",
            "marblesSampled": 100,
            "probRed": 0.5,
            "practiceLambda": 5,
            "trialLambda": 8.1,
            "instructedLambda": "dishonest_big",
            "drawnRed": 40,
            "reportedRed": 48,
            "inferredRed": 48,
            "playerTrialScore": -8,
            "oppTrialScore": 8,
            "playerTotalScore": -578,
            "oppTotalScore": 425,
            "waitTime": 6609.788525957511,
            "responseTime": 1681181797838,
            "catchQuestion": "How many <b class=\"r\">red<\/b> marbles did your opponent report drawing? ",
            "catchKey": -1,
            "catchResponse": -1,
            "catchTime": 1681181797838,
            "trialTime": 0
        },
        {
            "exptPart": "trial",
            "trialNumber": 51,
            "roleCurrent": "receiver",
            "marblesSampled": 100,
            "probRed": 0.5,
            "practiceLambda": 5,
            "trialLambda": 8.1,
            "instructedLambda": "dishonest_big",
            "drawnRed": 55,
            "reportedRed": 59,
            "inferredRed": 59,
            "playerTrialScore": -4,
            "oppTrialScore": 4,
            "playerTotalScore": -582,
            "oppTotalScore": 429,
            "waitTime": 5891.604320772984,
            "responseTime": 1681181832775,
            "catchQuestion": "How many <b class=\"r\">red<\/b> marbles did your opponent report drawing? ",
            "catchKey": -1,
            "catchResponse": -1,
            "catchTime": 1681181797838,
            "trialTime": 0
        },
        {
            "exptPart": "trial",
            "trialNumber": 52,
            "roleCurrent": "receiver",
            "marblesSampled": 100,
            "probRed": 0.5,
            "practiceLambda": 5,
            "trialLambda": 8.1,
            "instructedLambda": "dishonest_big",
            "drawnRed": 62,
            "reportedRed": 67,
            "inferredRed": 67,
            "playerTrialScore": -5,
            "oppTrialScore": 5,
            "playerTotalScore": -587,
            "oppTotalScore": 434,
            "waitTime": 6450.366037757571,
            "responseTime": 1681181853270,
            "catchQuestion": "How many <b class=\"r\">red<\/b> marbles did your opponent report drawing? ",
            "catchKey": -1,
            "catchResponse": -1,
            "catchTime": 1681181797838,
            "trialTime": 0
        },
        {
            "exptPart": "trial",
            "trialNumber": 53,
            "roleCurrent": "receiver",
            "marblesSampled": 100,
            "probRed": 0.5,
            "practiceLambda": 5,
            "trialLambda": 8.1,
            "instructedLambda": "dishonest_big",
            "drawnRed": 38,
            "reportedRed": 46,
            "inferredRed": 46,
            "playerTrialScore": -8,
            "oppTrialScore": 8,
            "playerTotalScore": -595,
            "oppTotalScore": 442,
            "waitTime": 6101.823816116698,
            "responseTime": 1681181868561,
            "catchQuestion": "How many <b class=\"r\">red<\/b> marbles did your opponent report drawing? ",
            "catchKey": -1,
            "catchResponse": -1,
            "catchTime": 1681181797838,
            "trialTime": 0
        },
        {
            "exptPart": "trial",
            "trialNumber": 54,
            "roleCurrent": "receiver",
            "marblesSampled": 100,
            "probRed": 0.5,
            "practiceLambda": 5,
            "trialLambda": 8.1,
            "instructedLambda": "dishonest_big",
            "drawnRed": 26,
            "reportedRed": 33,
            "inferredRed": 33,
            "playerTrialScore": -7,
            "oppTrialScore": 7,
            "playerTotalScore": -602,
            "oppTotalScore": 449,
            "waitTime": 5869.497828477704,
            "responseTime": 1681181901012,
            "catchQuestion": "How many <b class=\"r\">red<\/b> marbles did your opponent report drawing? ",
            "catchKey": -1,
            "catchResponse": -1,
            "catchTime": 1681181797838,
            "trialTime": 0
        },
        {
            "exptPart": "trial",
            "trialNumber": 55,
            "roleCurrent": "receiver",
            "marblesSampled": 100,
            "probRed": 0.5,
            "practiceLambda": 5,
            "trialLambda": 8.1,
            "instructedLambda": "dishonest_big",
            "drawnRed": 77,
            "reportedRed": 85,
            "inferredRed": 85,
            "playerTrialScore": -8,
            "oppTrialScore": 8,
            "playerTotalScore": -610,
            "oppTotalScore": 457,
            "waitTime": 5177.663030634564,
            "responseTime": 1681181938130,
            "catchQuestion": "How many <b class=\"r\">red<\/b> marbles did your opponent report drawing? ",
            "catchKey": -1,
            "catchResponse": -1,
            "catchTime": 1681181797838,
            "trialTime": 0
        },
        {
            "exptPart": "trial",
            "trialNumber": 56,
            "roleCurrent": "receiver",
            "marblesSampled": 100,
            "probRed": 0.5,
            "practiceLambda": 5,
            "trialLambda": 8.1,
            "instructedLambda": "dishonest_big",
            "drawnRed": 41,
            "reportedRed": 49,
            "inferredRed": 50,
            "playerTrialScore": -9,
            "oppTrialScore": 9,
            "playerTotalScore": -619,
            "oppTotalScore": 466,
            "waitTime": 5949.130061484739,
            "responseTime": 1681181971013,
            "catchQuestion": "How many <b class=\"r\">red<\/b> marbles did your opponent report drawing? ",
            "catchKey": -1,
            "catchResponse": -1,
            "catchTime": 1681181797838,
            "trialTime": 0
        },
        {
            "exptPart": "trial",
            "trialNumber": 57,
            "roleCurrent": "receiver",
            "marblesSampled": 100,
            "probRed": 0.5,
            "practiceLambda": 5,
            "trialLambda": 8.1,
            "instructedLambda": "dishonest_big",
            "drawnRed": 55,
            "reportedRed": 61,
            "inferredRed": 61,
            "playerTrialScore": -6,
            "oppTrialScore": 6,
            "playerTotalScore": -625,
            "oppTotalScore": 472,
            "waitTime": 5173.4325895992915,
            "responseTime": 1681182019920,
            "catchQuestion": "How many <b class=\"r\">red<\/b> marbles did your opponent report drawing? ",
            "catchKey": -1,
            "catchResponse": -1,
            "catchTime": 1681181797838,
            "trialTime": 0
        },
        {
            "exptPart": "trial",
            "trialNumber": 58,
            "roleCurrent": "receiver",
            "marblesSampled": 100,
            "probRed": 0.5,
            "practiceLambda": 5,
            "trialLambda": 8.1,
            "instructedLambda": "dishonest_big",
            "drawnRed": 61,
            "reportedRed": 66,
            "inferredRed": 66,
            "playerTrialScore": -5,
            "oppTrialScore": 5,
            "playerTotalScore": -630,
            "oppTotalScore": 477,
            "waitTime": 6013.697097030837,
            "responseTime": 1681182071584,
            "catchQuestion": "How many <b class=\"r\">red<\/b> marbles did your opponent report drawing? ",
            "catchKey": -1,
            "catchResponse": -1,
            "catchTime": 1681181797838,
            "trialTime": 0
        },
        {
            "exptPart": "trial",
            "trialNumber": 59,
            "roleCurrent": "receiver",
            "marblesSampled": 100,
            "probRed": 0.5,
            "practiceLambda": 5,
            "trialLambda": 8.1,
            "instructedLambda": "dishonest_big",
            "drawnRed": 30,
            "reportedRed": 32,
            "inferredRed": 32,
            "playerTrialScore": -2,
            "oppTrialScore": 2,
            "playerTotalScore": -632,
            "oppTotalScore": 479,
            "waitTime": 5582.453640954163,
            "responseTime": 1681182175511,
            "catchQuestion": "How many <b class=\"r\">red<\/b> marbles did your opponent report drawing? ",
            "catchKey": -1,
            "catchResponse": -1,
            "catchTime": 1681181797838,
            "trialTime": 0
        },
        {
            "exptPart": "trial",
            "trialNumber": 60,
            "roleCurrent": "receiver",
            "marblesSampled": 100,
            "probRed": 0.5,
            "practiceLambda": 5,
            "trialLambda": 8.1,
            "instructedLambda": "dishonest_big",
            "drawnRed": 39,
            "reportedRed": 42,
            "inferredRed": 42,
            "playerTrialScore": -3,
            "oppTrialScore": 3,
            "playerTotalScore": -635,
            "oppTotalScore": 482,
            "waitTime": 6324.655758440864,
            "responseTime": 1681182201829,
            "catchQuestion": "How many <b class=\"r\">red<\/b> marbles did your opponent report drawing? ",
            "catchKey": -1,
            "catchResponse": -1,
            "catchTime": 1681182201829,
            "trialTime": 0
        },
        {
            "exptPart": "trial",
            "trialNumber": 61,
            "roleCurrent": "receiver",
            "marblesSampled": 100,
            "probRed": 0.5,
            "practiceLambda": 5,
            "trialLambda": 8.1,
            "instructedLambda": "dishonest_big",
            "drawnRed": 38,
            "reportedRed": 46,
            "inferredRed": 46,
            "playerTrialScore": -8,
            "oppTrialScore": 8,
            "playerTotalScore": -643,
            "oppTotalScore": 490,
            "waitTime": 7125.993662179325,
            "responseTime": 1681182290001,
            "catchQuestion": "How many <b class=\"r\">red<\/b> marbles did your opponent report drawing? ",
            "catchKey": -1,
            "catchResponse": -1,
            "catchTime": 1681182201829,
            "trialTime": 0
        },
        {
            "exptPart": "trial",
            "trialNumber": 62,
            "roleCurrent": "receiver",
            "marblesSampled": 100,
            "probRed": 0.5,
            "practiceLambda": 5,
            "trialLambda": 8.1,
            "instructedLambda": "dishonest_big",
            "drawnRed": 29,
            "reportedRed": 39,
            "inferredRed": 38,
            "playerTrialScore": -9,
            "oppTrialScore": 9,
            "playerTotalScore": -652,
            "oppTotalScore": 499,
            "waitTime": 5367.68978306612,
            "responseTime": 1681182300922,
            "catchQuestion": "How many <b class=\"r\">red<\/b> marbles did your opponent report drawing? ",
            "catchKey": -1,
            "catchResponse": -1,
            "catchTime": 1681182201829,
            "trialTime": 0
        },
        {
            "exptPart": "trial",
            "trialNumber": 63,
            "roleCurrent": "receiver",
            "marblesSampled": 100,
            "probRed": 0.5,
            "practiceLambda": 5,
            "trialLambda": 8.1,
            "instructedLambda": "dishonest_big",
            "drawnRed": 20,
            "reportedRed": 29,
            "inferredRed": 30,
            "playerTrialScore": -10,
            "oppTrialScore": 10,
            "playerTotalScore": -662,
            "oppTotalScore": 509,
            "waitTime": 6445.627484957247,
            "responseTime": 1681182316115,
            "catchQuestion": "How many <b class=\"r\">red<\/b> marbles did your opponent report drawing? ",
            "catchKey": -1,
            "catchResponse": -1,
            "catchTime": 1681182201829,
            "trialTime": 0
        },
        {
            "exptPart": "trial",
            "trialNumber": 64,
            "roleCurrent": "receiver",
            "marblesSampled": 100,
            "probRed": 0.5,
            "practiceLambda": 5,
            "trialLambda": 8.1,
            "instructedLambda": "dishonest_big",
            "drawnRed": 57,
            "reportedRed": 66,
            "inferredRed": 65,
            "playerTrialScore": -8,
            "oppTrialScore": 8,
            "playerTotalScore": -670,
            "oppTotalScore": 517,
            "waitTime": 7423.507890352431,
            "responseTime": 1681182327836,
            "catchQuestion": "How many <b class=\"r\">red<\/b> marbles did your opponent report drawing? ",
            "catchKey": -1,
            "catchResponse": -1,
            "catchTime": 1681182201829,
            "trialTime": 0
        },
        {
            "exptPart": "trial",
            "trialNumber": 65,
            "roleCurrent": "receiver",
            "marblesSampled": 100,
            "probRed": 0.5,
            "practiceLambda": 5,
            "trialLambda": 8.1,
            "instructedLambda": "dishonest_big",
            "drawnRed": 30,
            "reportedRed": 41,
            "inferredRed": 42,
            "playerTrialScore": -12,
            "oppTrialScore": 12,
            "playerTotalScore": -682,
            "oppTotalScore": 529,
            "waitTime": 5194.17324344575,
            "responseTime": 1681182406136,
            "catchQuestion": "How many <b class=\"r\">red<\/b> marbles did your opponent report drawing? ",
            "catchKey": -1,
            "catchResponse": -1,
            "catchTime": 1681182201829,
            "trialTime": 0
        },
        {
            "exptPart": "trial",
            "trialNumber": 66,
            "roleCurrent": "receiver",
            "marblesSampled": 100,
            "probRed": 0.5,
            "practiceLambda": 5,
            "trialLambda": 8.1,
            "instructedLambda": "dishonest_big",
            "drawnRed": 27,
            "reportedRed": 36,
            "inferredRed": 35,
            "playerTrialScore": -8,
            "oppTrialScore": 8,
            "playerTotalScore": -690,
            "oppTotalScore": 537,
            "waitTime": 5876.718615651735,
            "responseTime": 1681182445505,
            "catchQuestion": "How many <b class=\"r\">red<\/b> marbles did your opponent report drawing? ",
            "catchKey": -1,
            "catchResponse": -1,
            "catchTime": 1681182201829,
            "trialTime": 0
        },
        {
            "exptPart": "trial",
            "trialNumber": 67,
            "roleCurrent": "receiver",
            "marblesSampled": 100,
            "probRed": 0.5,
            "practiceLambda": 5,
            "trialLambda": 8.1,
            "instructedLambda": "dishonest_big",
            "drawnRed": 68,
            "reportedRed": 77,
            "inferredRed": 76,
            "playerTrialScore": -8,
            "oppTrialScore": 8,
            "playerTotalScore": -698,
            "oppTotalScore": 545,
            "waitTime": 5609.215964482955,
            "responseTime": 1681182477971,
            "catchQuestion": "How many <b class=\"r\">red<\/b> marbles did your opponent report drawing? ",
            "catchKey": -1,
            "catchResponse": -1,
            "catchTime": 1681182201829,
            "trialTime": 0
        },
        {
            "exptPart": "trial",
            "trialNumber": 68,
            "roleCurrent": "receiver",
            "marblesSampled": 100,
            "probRed": 0.5,
            "practiceLambda": 5,
            "trialLambda": 8.1,
            "instructedLambda": "dishonest_big",
            "drawnRed": 73,
            "reportedRed": 79,
            "inferredRed": 78,
            "playerTrialScore": -5,
            "oppTrialScore": 5,
            "playerTotalScore": -703,
            "oppTotalScore": 550,
            "waitTime": 7073.472865415921,
            "responseTime": 1681182494292,
            "catchQuestion": "How many <b class=\"r\">red<\/b> marbles did your opponent report drawing? ",
            "catchKey": -1,
            "catchResponse": -1,
            "catchTime": 1681182201829,
            "trialTime": 0
        },
        {
            "exptPart": "trial",
            "trialNumber": 69,
            "roleCurrent": "receiver",
            "marblesSampled": 100,
            "probRed": 0.5,
            "practiceLambda": 5,
            "trialLambda": 8.1,
            "instructedLambda": "dishonest_big",
            "drawnRed": 63,
            "reportedRed": 78,
            "inferredRed": 76,
            "playerTrialScore": -13,
            "oppTrialScore": 13,
            "playerTotalScore": -716,
            "oppTotalScore": 563,
            "waitTime": 5135.740636920442,
            "responseTime": 1681182509241,
            "catchQuestion": "How many <b class=\"r\">red<\/b> marbles did your opponent report drawing? ",
            "catchKey": -1,
            "catchResponse": -1,
            "catchTime": 1681182201829,
            "trialTime": 0
        },
        {
            "exptPart": "trial",
            "trialNumber": 70,
            "roleCurrent": "receiver",
            "marblesSampled": 100,
            "probRed": 0.5,
            "practiceLambda": 5,
            "trialLambda": 8.1,
            "instructedLambda": "dishonest_big",
            "drawnRed": 50,
            "reportedRed": 55,
            "inferredRed": 56,
            "playerTrialScore": -6,
            "oppTrialScore": 6,
            "playerTotalScore": -722,
            "oppTotalScore": 569,
            "waitTime": 6512.536467911291,
            "responseTime": 1681182552090,
            "catchQuestion": "How many <b class=\"r\">red<\/b> marbles did your opponent report drawing? ",
            "catchKey": -1,
            "catchResponse": -1,
            "catchTime": 1681182552090,
            "trialTime": 0
        },
        {
            "exptPart": "trial",
            "trialNumber": 71,
            "roleCurrent": "receiver",
            "marblesSampled": 100,
            "probRed": 0.5,
            "practiceLambda": 5,
            "trialLambda": 8.1,
            "instructedLambda": "dishonest_big",
            "drawnRed": 35,
            "reportedRed": 43,
            "inferredRed": 43,
            "playerTrialScore": -8,
            "oppTrialScore": 8,
            "playerTotalScore": -730,
            "oppTotalScore": 577,
            "waitTime": 5343.473475037259,
            "responseTime": 1681182574349,
            "catchQuestion": "How many <b class=\"r\">red<\/b> marbles did your opponent report drawing? ",
            "catchKey": -1,
            "catchResponse": -1,
            "catchTime": 1681182552090,
            "trialTime": 0
        },
        {
            "exptPart": "trial",
            "trialNumber": 72,
            "roleCurrent": "receiver",
            "marblesSampled": 100,
            "probRed": 0.5,
            "practiceLambda": 5,
            "trialLambda": 8.1,
            "instructedLambda": "dishonest_big",
            "drawnRed": 60,
            "reportedRed": 68,
            "inferredRed": 68,
            "playerTrialScore": -8,
            "oppTrialScore": 8,
            "playerTotalScore": -738,
            "oppTotalScore": 585,
            "waitTime": 6371.166315714578,
            "responseTime": 1681182603701,
            "catchQuestion": "How many <b class=\"r\">red<\/b> marbles did your opponent report drawing? ",
            "catchKey": -1,
            "catchResponse": -1,
            "catchTime": 1681182552090,
            "trialTime": 0
        },
        {
            "exptPart": "trial",
            "trialNumber": 73,
            "roleCurrent": "receiver",
            "marblesSampled": 100,
            "probRed": 0.5,
            "practiceLambda": 5,
            "trialLambda": 8.1,
            "instructedLambda": "dishonest_big",
            "drawnRed": 79,
            "reportedRed": 86,
            "inferredRed": 86,
            "playerTrialScore": -7,
            "oppTrialScore": 7,
            "playerTotalScore": -745,
            "oppTotalScore": 592,
            "waitTime": 5777.637357675903,
            "responseTime": 1681182680032,
            "catchQuestion": "How many <b class=\"r\">red<\/b> marbles did your opponent report drawing? ",
            "catchKey": -1,
            "catchResponse": -1,
            "catchTime": 1681182552090,
            "trialTime": 0
        },
        {
            "exptPart": "trial",
            "trialNumber": 74,
            "roleCurrent": "receiver",
            "marblesSampled": 100,
            "probRed": 0.5,
            "practiceLambda": 5,
            "trialLambda": 8.1,
            "instructedLambda": "dishonest_big",
            "drawnRed": 61,
            "reportedRed": 67,
            "inferredRed": 67,
            "playerTrialScore": -6,
            "oppTrialScore": 6,
            "playerTotalScore": -751,
            "oppTotalScore": 598,
            "waitTime": 5554.213105081979,
            "responseTime": 1681182697776,
            "catchQuestion": "How many <b class=\"r\">red<\/b> marbles did your opponent report drawing? ",
            "catchKey": 67,
            "catchResponse": 73,
            "catchTime": 1681182697776,
            "trialTime": 0
        },
        {
            "exptPart": "trial",
            "trialNumber": 75,
            "roleCurrent": "receiver",
            "marblesSampled": 100,
            "probRed": 0.5,
            "practiceLambda": 5,
            "trialLambda": 8.1,
            "instructedLambda": "dishonest_big",
            "drawnRed": 91,
            "reportedRed": 93,
            "inferredRed": 93,
            "playerTrialScore": -2,
            "oppTrialScore": 2,
            "playerTotalScore": -753,
            "oppTotalScore": 600,
            "waitTime": 6747.176909359718,
            "responseTime": 1681182839656,
            "catchQuestion": "How many <b class=\"r\">red<\/b> marbles did your opponent report drawing? ",
            "catchKey": -1,
            "catchResponse": -1,
            "catchTime": 1681182697776,
            "trialTime": 0
        },
        {
            "exptPart": "trial",
            "trialNumber": 76,
            "roleCurrent": "receiver",
            "marblesSampled": 100,
            "probRed": 0.5,
            "practiceLambda": 5,
            "trialLambda": 8.1,
            "instructedLambda": "dishonest_big",
            "drawnRed": 46,
            "reportedRed": 54,
            "inferredRed": 54,
            "playerTrialScore": -8,
            "oppTrialScore": 8,
            "playerTotalScore": -761,
            "oppTotalScore": 608,
            "waitTime": 7023.768207000008,
            "responseTime": 1681182890177,
            "catchQuestion": "How many <b class=\"r\">red<\/b> marbles did your opponent report drawing? ",
            "catchKey": -1,
            "catchResponse": -1,
            "catchTime": 1681182697776,
            "trialTime": 0
        },
        {
            "exptPart": "trial",
            "trialNumber": 77,
            "roleCurrent": "receiver",
            "marblesSampled": 100,
            "probRed": 0.5,
            "practiceLambda": 5,
            "trialLambda": 8.1,
            "instructedLambda": "dishonest_big",
            "drawnRed": 72,
            "reportedRed": 80,
            "inferredRed": 80,
            "playerTrialScore": -8,
            "oppTrialScore": 8,
            "playerTotalScore": -769,
            "oppTotalScore": 616,
            "waitTime": 6014.100665973804,
            "responseTime": 1681182917792,
            "catchQuestion": "How many <b class=\"r\">red<\/b> marbles did your opponent report drawing? ",
            "catchKey": 80,
            "catchResponse": 58,
            "catchTime": 1681182917792,
            "trialTime": 0
        },
        {
            "exptPart": "trial",
            "trialNumber": 78,
            "roleCurrent": "receiver",
            "marblesSampled": 100,
            "probRed": 0.5,
            "practiceLambda": 5,
            "trialLambda": 8.1,
            "instructedLambda": "dishonest_big",
            "drawnRed": 62,
            "reportedRed": 72,
            "inferredRed": 72,
            "playerTrialScore": -10,
            "oppTrialScore": 10,
            "playerTotalScore": -779,
            "oppTotalScore": 626,
            "waitTime": 5294.656901836137,
            "responseTime": 1681182945152,
            "catchQuestion": "How many <b class=\"r\">red<\/b> marbles did your opponent report drawing? ",
            "catchKey": -1,
            "catchResponse": -1,
            "catchTime": 1681182917792,
            "trialTime": 0
        },
        {
            "exptPart": "trial",
            "trialNumber": 79,
            "roleCurrent": "receiver",
            "marblesSampled": 100,
            "probRed": 0.5,
            "practiceLambda": 5,
            "trialLambda": 8.1,
            "instructedLambda": "dishonest_big",
            "drawnRed": 25,
            "reportedRed": 32,
            "inferredRed": 32,
            "playerTrialScore": -7,
            "oppTrialScore": 7,
            "playerTotalScore": -786,
            "oppTotalScore": 633,
            "waitTime": 5750.467926976449,
            "responseTime": 1681182959916,
            "catchQuestion": "How many <b class=\"r\">red<\/b> marbles did your opponent report drawing? ",
            "catchKey": -1,
            "catchResponse": -1,
            "catchTime": 1681182917792,
            "trialTime": 0
        },
        {
            "exptPart": "trial",
            "trialNumber": 80,
            "roleCurrent": "receiver",
            "marblesSampled": 100,
            "probRed": 0.5,
            "practiceLambda": 5,
            "trialLambda": 8.1,
            "instructedLambda": "dishonest_big",
            "drawnRed": 61,
            "reportedRed": 71,
            "inferredRed": 72,
            "playerTrialScore": -11,
            "oppTrialScore": 11,
            "playerTotalScore": -797,
            "oppTotalScore": 644,
            "waitTime": 6629.936824663115,
            "responseTime": 1681183018755,
            "catchQuestion": "How many <b class=\"r\">red<\/b> marbles did your opponent report drawing? ",
            "catchKey": 71,
            "catchResponse": 71,
            "catchTime": 1681183018755,
            "trialTime": 0
        },
        {
            "exptPart": "trial",
            "trialNumber": 81,
            "roleCurrent": "receiver",
            "marblesSampled": 100,
            "probRed": 0.5,
            "practiceLambda": 5,
            "trialLambda": 8.1,
            "instructedLambda": "dishonest_big",
            "drawnRed": 76,
            "reportedRed": 86,
            "inferredRed": 76,
            "playerTrialScore": 0,
            "oppTrialScore": 0,
            "playerTotalScore": -797,
            "oppTotalScore": 644,
            "waitTime": 5850.434983125189,
            "responseTime": 1681183032577,
            "catchQuestion": "How many <b class=\"r\">red<\/b> marbles did your opponent report drawing? ",
            "catchKey": -1,
            "catchResponse": -1,
            "catchTime": 1681183018755,
            "trialTime": 0
        },
        {
            "exptPart": "trial",
            "trialNumber": 82,
            "roleCurrent": "receiver",
            "marblesSampled": 100,
            "probRed": 0.5,
            "practiceLambda": 5,
            "trialLambda": 8.1,
            "instructedLambda": "dishonest_big",
            "drawnRed": 31,
            "reportedRed": 39,
            "inferredRed": 39,
            "playerTrialScore": -8,
            "oppTrialScore": 8,
            "playerTotalScore": -805,
            "oppTotalScore": 652,
            "waitTime": 5893.581905645697,
            "responseTime": 1681183061106,
            "catchQuestion": "How many <b class=\"r\">red<\/b> marbles did your opponent report drawing? ",
            "catchKey": -1,
            "catchResponse": -1,
            "catchTime": 1681183018755,
            "trialTime": 0
        },
        {
            "exptPart": "trial",
            "trialNumber": 83,
            "roleCurrent": "receiver",
            "marblesSampled": 100,
            "probRed": 0.5,
            "practiceLambda": 5,
            "trialLambda": 8.1,
            "instructedLambda": "dishonest_big",
            "drawnRed": 43,
            "reportedRed": 47,
            "inferredRed": 47,
            "playerTrialScore": -4,
            "oppTrialScore": 4,
            "playerTotalScore": -809,
            "oppTotalScore": 656,
            "waitTime": 5810.512503205549,
            "responseTime": 1681183132173,
            "catchQuestion": "How many <b class=\"r\">red<\/b> marbles did your opponent report drawing? ",
            "catchKey": -1,
            "catchResponse": -1,
            "catchTime": 1681183018755,
            "trialTime": 0
        },
        {
            "exptPart": "trial",
            "trialNumber": 84,
            "roleCurrent": "receiver",
            "marblesSampled": 100,
            "probRed": 0.5,
            "practiceLambda": 5,
            "trialLambda": 8.1,
            "instructedLambda": "dishonest_big",
            "drawnRed": 46,
            "reportedRed": 56,
            "inferredRed": 56,
            "playerTrialScore": -10,
            "oppTrialScore": 10,
            "playerTotalScore": -819,
            "oppTotalScore": 666,
            "waitTime": 5873.434143257937,
            "responseTime": 1681183175664,
            "catchQuestion": "How many <b class=\"r\">red<\/b> marbles did your opponent report drawing? ",
            "catchKey": -1,
            "catchResponse": -1,
            "catchTime": 1681183018755,
            "trialTime": 0
        },
        {
            "exptPart": "trial",
            "trialNumber": 85,
            "roleCurrent": "receiver",
            "marblesSampled": 100,
            "probRed": 0.5,
            "practiceLambda": 5,
            "trialLambda": 8.1,
            "instructedLambda": "dishonest_big",
            "drawnRed": 49,
            "reportedRed": 55,
            "inferredRed": 55,
            "playerTrialScore": -6,
            "oppTrialScore": 6,
            "playerTotalScore": -825,
            "oppTotalScore": 672,
            "waitTime": 5375.26445924481,
            "responseTime": 1681183193628,
            "catchQuestion": "How many <b class=\"r\">red<\/b> marbles did your opponent report drawing? ",
            "catchKey": -1,
            "catchResponse": -1,
            "catchTime": 1681183018755,
            "trialTime": 0
        },
        {
            "exptPart": "trial",
            "trialNumber": 86,
            "roleCurrent": "receiver",
            "marblesSampled": 100,
            "probRed": 0.5,
            "practiceLambda": 5,
            "trialLambda": 8.1,
            "instructedLambda": "dishonest_big",
            "drawnRed": 47,
            "reportedRed": 55,
            "inferredRed": 55,
            "playerTrialScore": -8,
            "oppTrialScore": 8,
            "playerTotalScore": -833,
            "oppTotalScore": 680,
            "waitTime": 5959.14757488782,
            "responseTime": 1681183221431,
            "catchQuestion": "How many <b class=\"r\">red<\/b> marbles did your opponent report drawing? ",
            "catchKey": -1,
            "catchResponse": -1,
            "catchTime": 1681183018755,
            "trialTime": 0
        },
        {
            "exptPart": "trial",
            "trialNumber": 87,
            "roleCurrent": "receiver",
            "marblesSampled": 100,
            "probRed": 0.5,
            "practiceLambda": 5,
            "trialLambda": 8.1,
            "instructedLambda": "dishonest_big",
            "drawnRed": 60,
            "reportedRed": 70,
            "inferredRed": 70,
            "playerTrialScore": -10,
            "oppTrialScore": 10,
            "playerTotalScore": -843,
            "oppTotalScore": 690,
            "waitTime": 5940.753181925062,
            "responseTime": 1681183239251,
            "catchQuestion": "How many <b class=\"r\">red<\/b> marbles did your opponent report drawing? ",
            "catchKey": -1,
            "catchResponse": -1,
            "catchTime": 1681183018755,
            "trialTime": 0
        },
        {
            "exptPart": "trial",
            "trialNumber": 88,
            "roleCurrent": "receiver",
            "marblesSampled": 100,
            "probRed": 0.5,
            "practiceLambda": 5,
            "trialLambda": 8.1,
            "instructedLambda": "dishonest_big",
            "drawnRed": 40,
            "reportedRed": 48,
            "inferredRed": 48,
            "playerTrialScore": -8,
            "oppTrialScore": 8,
            "playerTotalScore": -851,
            "oppTotalScore": 698,
            "waitTime": 5626.32770571511,
            "responseTime": 1681183250058,
            "catchQuestion": "How many <b class=\"r\">red<\/b> marbles did your opponent report drawing? ",
            "catchKey": -1,
            "catchResponse": -1,
            "catchTime": 1681183018755,
            "trialTime": 0
        },
        {
            "exptPart": "trial",
            "trialNumber": 89,
            "roleCurrent": "receiver",
            "marblesSampled": 100,
            "probRed": 0.5,
            "practiceLambda": 5,
            "trialLambda": 8.1,
            "instructedLambda": "dishonest_big",
            "drawnRed": 44,
            "reportedRed": 50,
            "inferredRed": 50,
            "playerTrialScore": -6,
            "oppTrialScore": 6,
            "playerTotalScore": -857,
            "oppTotalScore": 704,
            "waitTime": 5867.579821093588,
            "responseTime": 1681183312079,
            "catchQuestion": "How many <b class=\"r\">red<\/b> marbles did your opponent report drawing? ",
            "catchKey": 50,
            "catchResponse": 50,
            "catchTime": 1681183312079,
            "trialTime": 0
        },
        {
            "exptPart": "trial",
            "trialNumber": 90,
            "roleCurrent": "receiver",
            "marblesSampled": 100,
            "probRed": 0.5,
            "practiceLambda": 5,
            "trialLambda": 8.1,
            "instructedLambda": "dishonest_big",
            "drawnRed": 44,
            "reportedRed": 48,
            "inferredRed": 48,
            "playerTrialScore": -4,
            "oppTrialScore": 4,
            "playerTotalScore": -861,
            "oppTotalScore": 708,
            "waitTime": 5203.75773693606,
            "responseTime": 1681183326086,
            "catchQuestion": "How many <b class=\"r\">red<\/b> marbles did your opponent report drawing? ",
            "catchKey": -1,
            "catchResponse": -1,
            "catchTime": 1681183326086,
            "trialTime": 0
        },
        {
            "exptPart": "trial",
            "trialNumber": 91,
            "roleCurrent": "receiver",
            "marblesSampled": 100,
            "probRed": 0.5,
            "practiceLambda": 5,
            "trialLambda": 8.1,
            "instructedLambda": "dishonest_big",
            "drawnRed": 47,
            "reportedRed": 59,
            "inferredRed": 69,
            "playerTrialScore": -22,
            "oppTrialScore": 22,
            "playerTotalScore": -883,
            "oppTotalScore": 730,
            "waitTime": 6634.831935842551,
            "responseTime": 1681183448909,
            "catchQuestion": "How many <b class=\"r\">red<\/b> marbles did your opponent report drawing? ",
            "catchKey": -1,
            "catchResponse": -1,
            "catchTime": 1681183326086,
            "trialTime": 0
        },
        {
            "exptPart": "trial",
            "trialNumber": 92,
            "roleCurrent": "receiver",
            "marblesSampled": 100,
            "probRed": 0.5,
            "practiceLambda": 5,
            "trialLambda": 8.1,
            "instructedLambda": "dishonest_big",
            "drawnRed": 66,
            "reportedRed": 73,
            "inferredRed": 73,
            "playerTrialScore": -7,
            "oppTrialScore": 7,
            "playerTotalScore": -890,
            "oppTotalScore": 737,
            "waitTime": 6654.887760282474,
            "responseTime": 1681183508297,
            "catchQuestion": "How many <b class=\"r\">red<\/b> marbles did your opponent report drawing? ",
            "catchKey": -1,
            "catchResponse": -1,
            "catchTime": 1681183326086,
            "trialTime": 0
        },
        {
            "exptPart": "trial",
            "trialNumber": 93,
            "roleCurrent": "receiver",
            "marblesSampled": 100,
            "probRed": 0.5,
            "practiceLambda": 5,
            "trialLambda": 8.1,
            "instructedLambda": "dishonest_big",
            "drawnRed": 46,
            "reportedRed": 54,
            "inferredRed": 54,
            "playerTrialScore": -8,
            "oppTrialScore": 8,
            "playerTotalScore": -898,
            "oppTotalScore": 745,
            "waitTime": 6157.288662019815,
            "responseTime": 1681183518361,
            "catchQuestion": "How many <b class=\"r\">red<\/b> marbles did your opponent report drawing? ",
            "catchKey": -1,
            "catchResponse": -1,
            "catchTime": 1681183326086,
            "trialTime": 0
        },
        {
            "exptPart": "trial",
            "trialNumber": 94,
            "roleCurrent": "receiver",
            "marblesSampled": 100,
            "probRed": 0.5,
            "practiceLambda": 5,
            "trialLambda": 8.1,
            "instructedLambda": "dishonest_big",
            "drawnRed": 54,
            "reportedRed": 60,
            "inferredRed": 60,
            "playerTrialScore": -6,
            "oppTrialScore": 6,
            "playerTotalScore": -904,
            "oppTotalScore": 751,
            "waitTime": 6471.293613050196,
            "responseTime": 1681183534810,
            "catchQuestion": "How many <b class=\"r\">red<\/b> marbles did your opponent report drawing? ",
            "catchKey": -1,
            "catchResponse": -1,
            "catchTime": 1681183326086,
            "trialTime": 0
        },
        {
            "exptPart": "trial",
            "trialNumber": 95,
            "roleCurrent": "receiver",
            "marblesSampled": 100,
            "probRed": 0.5,
            "practiceLambda": 5,
            "trialLambda": 8.1,
            "instructedLambda": "dishonest_big",
            "drawnRed": 23,
            "reportedRed": 35,
            "inferredRed": 35,
            "playerTrialScore": -12,
            "oppTrialScore": 12,
            "playerTotalScore": -916,
            "oppTotalScore": 763,
            "waitTime": 5198.0233893805835,
            "responseTime": 1681184473746,
            "catchQuestion": "How many <b class=\"r\">red<\/b> marbles did your opponent report drawing? ",
            "catchKey": -1,
            "catchResponse": -1,
            "catchTime": 1681183326086,
            "trialTime": 0
        },
        {
            "exptPart": "trial",
            "trialNumber": 96,
            "roleCurrent": "receiver",
            "marblesSampled": 100,
            "probRed": 0.5,
            "practiceLambda": 5,
            "trialLambda": 8.1,
            "instructedLambda": "dishonest_big",
            "drawnRed": 81,
            "reportedRed": 89,
            "inferredRed": 89,
            "playerTrialScore": -8,
            "oppTrialScore": 8,
            "playerTotalScore": -924,
            "oppTotalScore": 771,
            "waitTime": 7283.752893558892,
            "responseTime": 1681184496123,
            "catchQuestion": "How many <b class=\"r\">red<\/b> marbles did your opponent report drawing? ",
            "catchKey": -1,
            "catchResponse": -1,
            "catchTime": 1681183326086,
            "trialTime": 0
        },
        {
            "exptPart": "trial",
            "trialNumber": 97,
            "roleCurrent": "receiver",
            "marblesSampled": 100,
            "probRed": 0.5,
            "practiceLambda": 5,
            "trialLambda": 8.1,
            "instructedLambda": "dishonest_big",
            "drawnRed": 64,
            "reportedRed": 72,
            "inferredRed": 72,
            "playerTrialScore": -8,
            "oppTrialScore": 8,
            "playerTotalScore": -932,
            "oppTotalScore": 779,
            "waitTime": 5229.136461439141,
            "responseTime": 1681184507664,
            "catchQuestion": "How many <b class=\"r\">red<\/b> marbles did your opponent report drawing? ",
            "catchKey": -1,
            "catchResponse": -1,
            "catchTime": 1681183326086,
            "trialTime": 0
        },
        {
            "exptPart": "trial",
            "trialNumber": 98,
            "roleCurrent": "receiver",
            "marblesSampled": 100,
            "probRed": 0.5,
            "practiceLambda": 5,
            "trialLambda": 8.1,
            "instructedLambda": "dishonest_big",
            "drawnRed": 77,
            "reportedRed": 85,
            "inferredRed": 85,
            "playerTrialScore": -8,
            "oppTrialScore": 8,
            "playerTotalScore": -940,
            "oppTotalScore": 787,
            "waitTime": 5830.629290304852,
            "responseTime": 1681184529648,
            "catchQuestion": "How many <b class=\"r\">red<\/b> marbles did your opponent report drawing? ",
            "catchKey": -1,
            "catchResponse": -1,
            "catchTime": 1681183326086,
            "trialTime": 0
        },
        {
            "exptPart": "trial",
            "trialNumber": 99,
            "roleCurrent": "receiver",
            "marblesSampled": 100,
            "probRed": 0.5,
            "practiceLambda": 5,
            "trialLambda": 8.1,
            "instructedLambda": "dishonest_big",
            "drawnRed": 39,
            "reportedRed": 50,
            "inferredRed": 50,
            "playerTrialScore": -11,
            "oppTrialScore": 11,
            "playerTotalScore": -951,
            "oppTotalScore": 798,
            "waitTime": 6406.96560530225,
            "responseTime": 1681184540855,
            "catchQuestion": "How many <b class=\"r\">red<\/b> marbles did your opponent report drawing? ",
            "catchKey": -1,
            "catchResponse": -1,
            "catchTime": 1681183326086,
            "trialTime": 0
        },
        {
            "exptPart": "trial",
            "trialNumber": 100,
            "roleCurrent": "receiver",
            "marblesSampled": 100,
            "probRed": 0.5,
            "practiceLambda": 5,
            "trialLambda": 8.1,
            "instructedLambda": "dishonest_big",
            "drawnRed": 33,
            "reportedRed": 39,
            "inferredRed": 39,
            "playerTrialScore": -6,
            "oppTrialScore": 6,
            "playerTotalScore": -957,
            "oppTotalScore": 804,
            "waitTime": 6560.37237231912,
            "responseTime": 1681185382620,
            "catchQuestion": "How many <b class=\"r\">red<\/b> marbles did your opponent report drawing? ",
            "catchKey": -1,
            "catchResponse": -1,
            "catchTime": 1681185382620,
            "trialTime": 0
        }
    ]
}