{
    "client": {
        "type": "sona",
        "experiment_id": 2228,
        "credit_token": "b315147ae43241ea9c65086cb510cfb7",
        "survey_code": "41851",
        "sid": "sona-41851",
        "window": {
            "width": 1477,
            "height": 719
        },
        "screen": {
            "width": 1440,
            "height": 900
        },
        "userAgent": "Mozilla\/5.0 (Macintosh; Intel Mac OS X 10_15_7) AppleWebKit\/537.36 (KHTML, like Gecko) Chrome\/111.0.0.0 Safari\/537.36",
        "score": 0,
        "bonus": 0
    },
    "expt": {
        "saveURL": "submit.simple.php",
        "trials": 100,
        "practiceTrials": 2,
        "marblesSampled": 100,
        "probRed": 0.5,
        "practiceLambdaAI": 5,
        "lambdaAI": 21.9,
        "roles": [
            "sender",
            "receiver"
        ],
        "cost": "unif",
        "goal": "over",
        "oppDishonesty": "dishonest_small",
        "catchTrials": [
            60,
            5,
            48,
            14,
            89,
            97,
            0,
            8,
            15,
            42
        ],
        "scoreTotal": {
            "player": -948,
            "opp": 725
        },
        "sona": {
            "experiment_id": 2228,
            "credit_token": "b315147ae43241ea9c65086cb510cfb7"
        },
        "pilot": false,
        "debug": false
    },
    "trials": [
        {
            "exptPart": "practice",
            "trialNumber": 1,
            "roleCurrent": "sender",
            "marblesSampled": 100,
            "probRed": 0.5,
            "practiceLambda": 5,
            "trialLambda": 21.9,
            "instructedLambda": "dishonest_small",
            "drawnRed": 94,
            "reportedRed": 61,
            "inferredRed": 58,
            "playerTrialScore": 0,
            "oppTrialScore": -36,
            "playerTotalScore": 0,
            "oppTotalScore": -36,
            "waitTime": 3143.2320866398004,
            "responseTime": 1681164220591,
            "catchQuestion": "How many <b class=\"r\">red<\/b> marbles did you actually draw (before any changes)? ",
            "catchKey": 94,
            "catchResponse": 94,
            "catchTime": 1681164220591,
            "trialTime": 0
        },
        {
            "exptPart": "practice",
            "trialNumber": 2,
            "roleCurrent": "receiver",
            "marblesSampled": 100,
            "probRed": 0.5,
            "practiceLambda": 5,
            "trialLambda": 21.9,
            "instructedLambda": "dishonest_small",
            "drawnRed": 76,
            "reportedRed": 84,
            "inferredRed": 90,
            "playerTrialScore": -14,
            "oppTrialScore": 14,
            "playerTotalScore": -14,
            "oppTotalScore": -22,
            "waitTime": 6937.189811564349,
            "responseTime": 1681164300074,
            "catchQuestion": "How many <b class=\"r\">red<\/b> marbles did your opponent report drawing? ",
            "catchKey": 84,
            "catchResponse": 84,
            "catchTime": 1681164300074,
            "trialTime": 0
        },
        {
            "exptPart": "trial",
            "trialNumber": 1,
            "roleCurrent": "receiver",
            "marblesSampled": 100,
            "probRed": 0.5,
            "practiceLambda": 5,
            "trialLambda": 21.9,
            "instructedLambda": "dishonest_small",
            "drawnRed": 34,
            "reportedRed": 52,
            "inferredRed": 80,
            "playerTrialScore": -46,
            "oppTrialScore": 46,
            "playerTotalScore": -46,
            "oppTotalScore": 46,
            "waitTime": 5862.586712768942,
            "responseTime": 1681164385825,
            "catchQuestion": "How many <b class=\"r\">red<\/b> marbles did your opponent report drawing? ",
            "catchKey": 52,
            "catchResponse": 52,
            "catchTime": 1681164385826,
            "trialTime": 0
        },
        {
            "exptPart": "trial",
            "trialNumber": 2,
            "roleCurrent": "receiver",
            "marblesSampled": 100,
            "probRed": 0.5,
            "practiceLambda": 5,
            "trialLambda": 21.9,
            "instructedLambda": "dishonest_small",
            "drawnRed": 76,
            "reportedRed": 98,
            "inferredRed": 72,
            "playerTrialScore": -4,
            "oppTrialScore": 0,
            "playerTotalScore": -50,
            "oppTotalScore": 46,
            "waitTime": 7477.383206965089,
            "responseTime": 1681164419733,
            "catchQuestion": "How many <b class=\"r\">red<\/b> marbles did your opponent report drawing? ",
            "catchKey": -1,
            "catchResponse": -1,
            "catchTime": 1681164385826,
            "trialTime": 0
        },
        {
            "exptPart": "trial",
            "trialNumber": 3,
            "roleCurrent": "receiver",
            "marblesSampled": 100,
            "probRed": 0.5,
            "practiceLambda": 5,
            "trialLambda": 21.9,
            "instructedLambda": "dishonest_small",
            "drawnRed": 49,
            "reportedRed": 75,
            "inferredRed": 80,
            "playerTrialScore": -31,
            "oppTrialScore": 31,
            "playerTotalScore": -81,
            "oppTotalScore": 77,
            "waitTime": 6650.882145438129,
            "responseTime": 1681164439679,
            "catchQuestion": "How many <b class=\"r\">red<\/b> marbles did your opponent report drawing? ",
            "catchKey": -1,
            "catchResponse": -1,
            "catchTime": 1681164385826,
            "trialTime": 0
        },
        {
            "exptPart": "trial",
            "trialNumber": 4,
            "roleCurrent": "receiver",
            "marblesSampled": 100,
            "probRed": 0.5,
            "practiceLambda": 5,
            "trialLambda": 21.9,
            "instructedLambda": "dishonest_small",
            "drawnRed": 24,
            "reportedRed": 38,
            "inferredRed": 25,
            "playerTrialScore": -1,
            "oppTrialScore": 1,
            "playerTotalScore": -82,
            "oppTotalScore": 78,
            "waitTime": 6360.00329050821,
            "responseTime": 1681164459562,
            "catchQuestion": "How many <b class=\"r\">red<\/b> marbles did your opponent report drawing? ",
            "catchKey": -1,
            "catchResponse": -1,
            "catchTime": 1681164385826,
            "trialTime": 0
        },
        {
            "exptPart": "trial",
            "trialNumber": 5,
            "roleCurrent": "receiver",
            "marblesSampled": 100,
            "probRed": 0.5,
            "practiceLambda": 5,
            "trialLambda": 21.9,
            "instructedLambda": "dishonest_small",
            "drawnRed": 74,
            "reportedRed": 92,
            "inferredRed": 75,
            "playerTrialScore": -1,
            "oppTrialScore": 1,
            "playerTotalScore": -83,
            "oppTotalScore": 79,
            "waitTime": 5309.6897945862565,
            "responseTime": 1681164475462,
            "catchQuestion": "How many <b class=\"r\">red<\/b> marbles did your opponent report drawing? ",
            "catchKey": -1,
            "catchResponse": -1,
            "catchTime": 1681164385826,
            "trialTime": 0
        },
        {
            "exptPart": "trial",
            "trialNumber": 6,
            "roleCurrent": "receiver",
            "marblesSampled": 100,
            "probRed": 0.5,
            "practiceLambda": 5,
            "trialLambda": 21.9,
            "instructedLambda": "dishonest_small",
            "drawnRed": 56,
            "reportedRed": 77,
            "inferredRed": 65,
            "playerTrialScore": -9,
            "oppTrialScore": 9,
            "playerTotalScore": -92,
            "oppTotalScore": 88,
            "waitTime": 5187.573485881748,
            "responseTime": 1681164489260,
            "catchQuestion": "How many <b class=\"r\">red<\/b> marbles did your opponent report drawing? ",
            "catchKey": 77,
            "catchResponse": 77,
            "catchTime": 1681164489260,
            "trialTime": 0
        },
        {
            "exptPart": "trial",
            "trialNumber": 7,
            "roleCurrent": "receiver",
            "marblesSampled": 100,
            "probRed": 0.5,
            "practiceLambda": 5,
            "trialLambda": 21.9,
            "instructedLambda": "dishonest_small",
            "drawnRed": 86,
            "reportedRed": 100,
            "inferredRed": 82,
            "playerTrialScore": -4,
            "oppTrialScore": 0,
            "playerTotalScore": -96,
            "oppTotalScore": 88,
            "waitTime": 5950.060434848245,
            "responseTime": 1681164514427,
            "catchQuestion": "How many <b class=\"r\">red<\/b> marbles did your opponent report drawing? ",
            "catchKey": -1,
            "catchResponse": -1,
            "catchTime": 1681164489260,
            "trialTime": 0
        },
        {
            "exptPart": "trial",
            "trialNumber": 8,
            "roleCurrent": "receiver",
            "marblesSampled": 100,
            "probRed": 0.5,
            "practiceLambda": 5,
            "trialLambda": 21.9,
            "instructedLambda": "dishonest_small",
            "drawnRed": 77,
            "reportedRed": 100,
            "inferredRed": 80,
            "playerTrialScore": -3,
            "oppTrialScore": 3,
            "playerTotalScore": -99,
            "oppTotalScore": 91,
            "waitTime": 6735.2355133799965,
            "responseTime": 1681164529593,
            "catchQuestion": "How many <b class=\"r\">red<\/b> marbles did your opponent report drawing? ",
            "catchKey": -1,
            "catchResponse": -1,
            "catchTime": 1681164489260,
            "trialTime": 0
        },
        {
            "exptPart": "trial",
            "trialNumber": 9,
            "roleCurrent": "receiver",
            "marblesSampled": 100,
            "probRed": 0.5,
            "practiceLambda": 5,
            "trialLambda": 21.9,
            "instructedLambda": "dishonest_small",
            "drawnRed": 43,
            "reportedRed": 53,
            "inferredRed": 43,
            "playerTrialScore": 0,
            "oppTrialScore": 0,
            "playerTotalScore": -99,
            "oppTotalScore": 91,
            "waitTime": 5574.452106425882,
            "responseTime": 1681164553560,
            "catchQuestion": "How many <b class=\"r\">red<\/b> marbles did your opponent report drawing? ",
            "catchKey": 53,
            "catchResponse": 53,
            "catchTime": 1681164553560,
            "trialTime": 0
        },
        {
            "exptPart": "trial",
            "trialNumber": 10,
            "roleCurrent": "receiver",
            "marblesSampled": 100,
            "probRed": 0.5,
            "practiceLambda": 5,
            "trialLambda": 21.9,
            "instructedLambda": "dishonest_small",
            "drawnRed": 36,
            "reportedRed": 55,
            "inferredRed": 45,
            "playerTrialScore": -9,
            "oppTrialScore": 9,
            "playerTotalScore": -108,
            "oppTotalScore": 100,
            "waitTime": 6157.735726394625,
            "responseTime": 1681164581994,
            "catchQuestion": "How many <b class=\"r\">red<\/b> marbles did your opponent report drawing? ",
            "catchKey": -1,
            "catchResponse": -1,
            "catchTime": 1681164581994,
            "trialTime": 0
        },
        {
            "exptPart": "trial",
            "trialNumber": 11,
            "roleCurrent": "receiver",
            "marblesSampled": 100,
            "probRed": 0.5,
            "practiceLambda": 5,
            "trialLambda": 21.9,
            "instructedLambda": "dishonest_small",
            "drawnRed": 14,
            "reportedRed": 34,
            "inferredRed": 30,
            "playerTrialScore": -16,
            "oppTrialScore": 16,
            "playerTotalScore": -124,
            "oppTotalScore": 116,
            "waitTime": 6676.566368951496,
            "responseTime": 1681164610958,
            "catchQuestion": "How many <b class=\"r\">red<\/b> marbles did your opponent report drawing? ",
            "catchKey": -1,
            "catchResponse": -1,
            "catchTime": 1681164581994,
            "trialTime": 0
        },
        {
            "exptPart": "trial",
            "trialNumber": 12,
            "roleCurrent": "receiver",
            "marblesSampled": 100,
            "probRed": 0.5,
            "practiceLambda": 5,
            "trialLambda": 21.9,
            "instructedLambda": "dishonest_small",
            "drawnRed": 73,
            "reportedRed": 100,
            "inferredRed": 90,
            "playerTrialScore": -17,
            "oppTrialScore": 17,
            "playerTotalScore": -141,
            "oppTotalScore": 133,
            "waitTime": 5999.578148249744,
            "responseTime": 1681164625492,
            "catchQuestion": "How many <b class=\"r\">red<\/b> marbles did your opponent report drawing? ",
            "catchKey": -1,
            "catchResponse": -1,
            "catchTime": 1681164581994,
            "trialTime": 0
        },
        {
            "exptPart": "trial",
            "trialNumber": 13,
            "roleCurrent": "receiver",
            "marblesSampled": 100,
            "probRed": 0.5,
            "practiceLambda": 5,
            "trialLambda": 21.9,
            "instructedLambda": "dishonest_small",
            "drawnRed": 53,
            "reportedRed": 71,
            "inferredRed": 55,
            "playerTrialScore": -2,
            "oppTrialScore": 2,
            "playerTotalScore": -143,
            "oppTotalScore": 135,
            "waitTime": 6742.9014370364,
            "responseTime": 1681164652843,
            "catchQuestion": "How many <b class=\"r\">red<\/b> marbles did your opponent report drawing? ",
            "catchKey": -1,
            "catchResponse": -1,
            "catchTime": 1681164581994,
            "trialTime": 0
        },
        {
            "exptPart": "trial",
            "trialNumber": 14,
            "roleCurrent": "receiver",
            "marblesSampled": 100,
            "probRed": 0.5,
            "practiceLambda": 5,
            "trialLambda": 21.9,
            "instructedLambda": "dishonest_small",
            "drawnRed": 44,
            "reportedRed": 73,
            "inferredRed": 59,
            "playerTrialScore": -15,
            "oppTrialScore": 15,
            "playerTotalScore": -158,
            "oppTotalScore": 150,
            "waitTime": 5280.088517795503,
            "responseTime": 1681164672993,
            "catchQuestion": "How many <b class=\"r\">red<\/b> marbles did your opponent report drawing? ",
            "catchKey": -1,
            "catchResponse": -1,
            "catchTime": 1681164581994,
            "trialTime": 0
        },
        {
            "exptPart": "trial",
            "trialNumber": 15,
            "roleCurrent": "receiver",
            "marblesSampled": 100,
            "probRed": 0.5,
            "practiceLambda": 5,
            "trialLambda": 21.9,
            "instructedLambda": "dishonest_small",
            "drawnRed": 44,
            "reportedRed": 60,
            "inferredRed": 54,
            "playerTrialScore": -10,
            "oppTrialScore": 10,
            "playerTotalScore": -168,
            "oppTotalScore": 160,
            "waitTime": 6166.0168260666205,
            "responseTime": 1681164687958,
            "catchQuestion": "How many <b class=\"r\">red<\/b> marbles did your opponent report drawing? ",
            "catchKey": 60,
            "catchResponse": 64,
            "catchTime": 1681164687958,
            "trialTime": 0
        },
        {
            "exptPart": "trial",
            "trialNumber": 16,
            "roleCurrent": "receiver",
            "marblesSampled": 100,
            "probRed": 0.5,
            "practiceLambda": 5,
            "trialLambda": 21.9,
            "instructedLambda": "dishonest_small",
            "drawnRed": 20,
            "reportedRed": 49,
            "inferredRed": 35,
            "playerTrialScore": -15,
            "oppTrialScore": 15,
            "playerTotalScore": -183,
            "oppTotalScore": 175,
            "waitTime": 6293.0634104944675,
            "responseTime": 1681164714825,
            "catchQuestion": "How many <b class=\"r\">red<\/b> marbles did your opponent report drawing? ",
            "catchKey": 49,
            "catchResponse": 49,
            "catchTime": 1681164714826,
            "trialTime": 0
        },
        {
            "exptPart": "trial",
            "trialNumber": 17,
            "roleCurrent": "receiver",
            "marblesSampled": 100,
            "probRed": 0.5,
            "practiceLambda": 5,
            "trialLambda": 21.9,
            "instructedLambda": "dishonest_small",
            "drawnRed": 74,
            "reportedRed": 90,
            "inferredRed": 60,
            "playerTrialScore": -14,
            "oppTrialScore": 0,
            "playerTotalScore": -197,
            "oppTotalScore": 175,
            "waitTime": 7100.819762783461,
            "responseTime": 1681164734992,
            "catchQuestion": "How many <b class=\"r\">red<\/b> marbles did your opponent report drawing? ",
            "catchKey": -1,
            "catchResponse": -1,
            "catchTime": 1681164714826,
            "trialTime": 0
        },
        {
            "exptPart": "trial",
            "trialNumber": 18,
            "roleCurrent": "receiver",
            "marblesSampled": 100,
            "probRed": 0.5,
            "practiceLambda": 5,
            "trialLambda": 21.9,
            "instructedLambda": "dishonest_small",
            "drawnRed": 42,
            "reportedRed": 61,
            "inferredRed": 52,
            "playerTrialScore": -10,
            "oppTrialScore": 10,
            "playerTotalScore": -207,
            "oppTotalScore": 185,
            "waitTime": 6976.007338593325,
            "responseTime": 1681164746958,
            "catchQuestion": "How many <b class=\"r\">red<\/b> marbles did your opponent report drawing? ",
            "catchKey": -1,
            "catchResponse": -1,
            "catchTime": 1681164714826,
            "trialTime": 0
        },
        {
            "exptPart": "trial",
            "trialNumber": 19,
            "roleCurrent": "receiver",
            "marblesSampled": 100,
            "probRed": 0.5,
            "practiceLambda": 5,
            "trialLambda": 21.9,
            "instructedLambda": "dishonest_small",
            "drawnRed": 53,
            "reportedRed": 84,
            "inferredRed": 72,
            "playerTrialScore": -19,
            "oppTrialScore": 19,
            "playerTotalScore": -226,
            "oppTotalScore": 204,
            "waitTime": 6346.220423665232,
            "responseTime": 1681164759042,
            "catchQuestion": "How many <b class=\"r\">red<\/b> marbles did your opponent report drawing? ",
            "catchKey": -1,
            "catchResponse": -1,
            "catchTime": 1681164714826,
            "trialTime": 0
        },
        {
            "exptPart": "trial",
            "trialNumber": 20,
            "roleCurrent": "receiver",
            "marblesSampled": 100,
            "probRed": 0.5,
            "practiceLambda": 5,
            "trialLambda": 21.9,
            "instructedLambda": "dishonest_small",
            "drawnRed": 74,
            "reportedRed": 89,
            "inferredRed": 60,
            "playerTrialScore": -14,
            "oppTrialScore": 0,
            "playerTotalScore": -240,
            "oppTotalScore": 204,
            "waitTime": 7046.242803370134,
            "responseTime": 1681164789124,
            "catchQuestion": "How many <b class=\"r\">red<\/b> marbles did your opponent report drawing? ",
            "catchKey": -1,
            "catchResponse": -1,
            "catchTime": 1681164789124,
            "trialTime": 0
        },
        {
            "exptPart": "trial",
            "trialNumber": 21,
            "roleCurrent": "receiver",
            "marblesSampled": 100,
            "probRed": 0.5,
            "practiceLambda": 5,
            "trialLambda": 21.9,
            "instructedLambda": "dishonest_small",
            "drawnRed": 62,
            "reportedRed": 89,
            "inferredRed": 75,
            "playerTrialScore": -13,
            "oppTrialScore": 13,
            "playerTotalScore": -253,
            "oppTotalScore": 217,
            "waitTime": 5375.8142540985455,
            "responseTime": 1681164823790,
            "catchQuestion": "How many <b class=\"r\">red<\/b> marbles did your opponent report drawing? ",
            "catchKey": -1,
            "catchResponse": -1,
            "catchTime": 1681164789124,
            "trialTime": 0
        },
        {
            "exptPart": "trial",
            "trialNumber": 22,
            "roleCurrent": "receiver",
            "marblesSampled": 100,
            "probRed": 0.5,
            "practiceLambda": 5,
            "trialLambda": 21.9,
            "instructedLambda": "dishonest_small",
            "drawnRed": 32,
            "reportedRed": 54,
            "inferredRed": 32,
            "playerTrialScore": 0,
            "oppTrialScore": 0,
            "playerTotalScore": -253,
            "oppTotalScore": 217,
            "waitTime": 5391.225388877512,
            "responseTime": 1681164833889,
            "catchQuestion": "How many <b class=\"r\">red<\/b> marbles did your opponent report drawing? ",
            "catchKey": -1,
            "catchResponse": -1,
            "catchTime": 1681164789124,
            "trialTime": 0
        },
        {
            "exptPart": "trial",
            "trialNumber": 23,
            "roleCurrent": "receiver",
            "marblesSampled": 100,
            "probRed": 0.5,
            "practiceLambda": 5,
            "trialLambda": 21.9,
            "instructedLambda": "dishonest_small",
            "drawnRed": 44,
            "reportedRed": 67,
            "inferredRed": 34,
            "playerTrialScore": -10,
            "oppTrialScore": 0,
            "playerTotalScore": -263,
            "oppTotalScore": 217,
            "waitTime": 6725.706872559143,
            "responseTime": 1681164848123,
            "catchQuestion": "How many <b class=\"r\">red<\/b> marbles did your opponent report drawing? ",
            "catchKey": -1,
            "catchResponse": -1,
            "catchTime": 1681164789124,
            "trialTime": 0
        },
        {
            "exptPart": "trial",
            "trialNumber": 24,
            "roleCurrent": "receiver",
            "marblesSampled": 100,
            "probRed": 0.5,
            "practiceLambda": 5,
            "trialLambda": 21.9,
            "instructedLambda": "dishonest_small",
            "drawnRed": 35,
            "reportedRed": 58,
            "inferredRed": 36,
            "playerTrialScore": -1,
            "oppTrialScore": 1,
            "playerTotalScore": -264,
            "oppTotalScore": 218,
            "waitTime": 6480.470614191527,
            "responseTime": 1681164889706,
            "catchQuestion": "How many <b class=\"r\">red<\/b> marbles did your opponent report drawing? ",
            "catchKey": -1,
            "catchResponse": -1,
            "catchTime": 1681164789124,
            "trialTime": 0
        },
        {
            "exptPart": "trial",
            "trialNumber": 25,
            "roleCurrent": "receiver",
            "marblesSampled": 100,
            "probRed": 0.5,
            "practiceLambda": 5,
            "trialLambda": 21.9,
            "instructedLambda": "dishonest_small",
            "drawnRed": 64,
            "reportedRed": 85,
            "inferredRed": 63,
            "playerTrialScore": -1,
            "oppTrialScore": 0,
            "playerTotalScore": -265,
            "oppTotalScore": 218,
            "waitTime": 5293.496173467135,
            "responseTime": 1681164904539,
            "catchQuestion": "How many <b class=\"r\">red<\/b> marbles did your opponent report drawing? ",
            "catchKey": -1,
            "catchResponse": -1,
            "catchTime": 1681164789124,
            "trialTime": 0
        },
        {
            "exptPart": "trial",
            "trialNumber": 26,
            "roleCurrent": "receiver",
            "marblesSampled": 100,
            "probRed": 0.5,
            "practiceLambda": 5,
            "trialLambda": 21.9,
            "instructedLambda": "dishonest_small",
            "drawnRed": 41,
            "reportedRed": 59,
            "inferredRed": 32,
            "playerTrialScore": -9,
            "oppTrialScore": 0,
            "playerTotalScore": -274,
            "oppTotalScore": 218,
            "waitTime": 5384.293929880341,
            "responseTime": 1681164918956,
            "catchQuestion": "How many <b class=\"r\">red<\/b> marbles did your opponent report drawing? ",
            "catchKey": -1,
            "catchResponse": -1,
            "catchTime": 1681164789124,
            "trialTime": 0
        },
        {
            "exptPart": "trial",
            "trialNumber": 27,
            "roleCurrent": "receiver",
            "marblesSampled": 100,
            "probRed": 0.5,
            "practiceLambda": 5,
            "trialLambda": 21.9,
            "instructedLambda": "dishonest_small",
            "drawnRed": 45,
            "reportedRed": 66,
            "inferredRed": 36,
            "playerTrialScore": -9,
            "oppTrialScore": 0,
            "playerTotalScore": -283,
            "oppTotalScore": 218,
            "waitTime": 6021.157243652317,
            "responseTime": 1681164931239,
            "catchQuestion": "How many <b class=\"r\">red<\/b> marbles did your opponent report drawing? ",
            "catchKey": -1,
            "catchResponse": -1,
            "catchTime": 1681164789124,
            "trialTime": 0
        },
        {
            "exptPart": "trial",
            "trialNumber": 28,
            "roleCurrent": "receiver",
            "marblesSampled": 100,
            "probRed": 0.5,
            "practiceLambda": 5,
            "trialLambda": 21.9,
            "instructedLambda": "dishonest_small",
            "drawnRed": 56,
            "reportedRed": 82,
            "inferredRed": 67,
            "playerTrialScore": -11,
            "oppTrialScore": 11,
            "playerTotalScore": -294,
            "oppTotalScore": 229,
            "waitTime": 5298.103953176498,
            "responseTime": 1681164947805,
            "catchQuestion": "How many <b class=\"r\">red<\/b> marbles did your opponent report drawing? ",
            "catchKey": -1,
            "catchResponse": -1,
            "catchTime": 1681164789124,
            "trialTime": 0
        },
        {
            "exptPart": "trial",
            "trialNumber": 29,
            "roleCurrent": "receiver",
            "marblesSampled": 100,
            "probRed": 0.5,
            "practiceLambda": 5,
            "trialLambda": 21.9,
            "instructedLambda": "dishonest_small",
            "drawnRed": 37,
            "reportedRed": 58,
            "inferredRed": 37,
            "playerTrialScore": 0,
            "oppTrialScore": 0,
            "playerTotalScore": -294,
            "oppTotalScore": 229,
            "waitTime": 5451.051814482655,
            "responseTime": 1681164965973,
            "catchQuestion": "How many <b class=\"r\">red<\/b> marbles did your opponent report drawing? ",
            "catchKey": -1,
            "catchResponse": -1,
            "catchTime": 1681164789124,
            "trialTime": 0
        },
        {
            "exptPart": "trial",
            "trialNumber": 30,
            "roleCurrent": "receiver",
            "marblesSampled": 100,
            "probRed": 0.5,
            "practiceLambda": 5,
            "trialLambda": 21.9,
            "instructedLambda": "dishonest_small",
            "drawnRed": 77,
            "reportedRed": 98,
            "inferredRed": 90,
            "playerTrialScore": -13,
            "oppTrialScore": 13,
            "playerTotalScore": -307,
            "oppTotalScore": 242,
            "waitTime": 5667.352560664587,
            "responseTime": 1681164978838,
            "catchQuestion": "How many <b class=\"r\">red<\/b> marbles did your opponent report drawing? ",
            "catchKey": -1,
            "catchResponse": -1,
            "catchTime": 1681164978838,
            "trialTime": 0
        },
        {
            "exptPart": "trial",
            "trialNumber": 31,
            "roleCurrent": "receiver",
            "marblesSampled": 100,
            "probRed": 0.5,
            "practiceLambda": 5,
            "trialLambda": 21.9,
            "instructedLambda": "dishonest_small",
            "drawnRed": 30,
            "reportedRed": 50,
            "inferredRed": 43,
            "playerTrialScore": -13,
            "oppTrialScore": 13,
            "playerTotalScore": -320,
            "oppTotalScore": 255,
            "waitTime": 5670.487982448552,
            "responseTime": 1681165003421,
            "catchQuestion": "How many <b class=\"r\">red<\/b> marbles did your opponent report drawing? ",
            "catchKey": -1,
            "catchResponse": -1,
            "catchTime": 1681164978838,
            "trialTime": 0
        },
        {
            "exptPart": "trial",
            "trialNumber": 32,
            "roleCurrent": "receiver",
            "marblesSampled": 100,
            "probRed": 0.5,
            "practiceLambda": 5,
            "trialLambda": 21.9,
            "instructedLambda": "dishonest_small",
            "drawnRed": 65,
            "reportedRed": 81,
            "inferredRed": 64,
            "playerTrialScore": -1,
            "oppTrialScore": 0,
            "playerTotalScore": -321,
            "oppTotalScore": 255,
            "waitTime": 6470.049816400921,
            "responseTime": 1681165023738,
            "catchQuestion": "How many <b class=\"r\">red<\/b> marbles did your opponent report drawing? ",
            "catchKey": -1,
            "catchResponse": -1,
            "catchTime": 1681164978838,
            "trialTime": 0
        },
        {
            "exptPart": "trial",
            "trialNumber": 33,
            "roleCurrent": "receiver",
            "marblesSampled": 100,
            "probRed": 0.5,
            "practiceLambda": 5,
            "trialLambda": 21.9,
            "instructedLambda": "dishonest_small",
            "drawnRed": 38,
            "reportedRed": 55,
            "inferredRed": 23,
            "playerTrialScore": -15,
            "oppTrialScore": 0,
            "playerTotalScore": -336,
            "oppTotalScore": 255,
            "waitTime": 5236.82223646505,
            "responseTime": 1681165036637,
            "catchQuestion": "How many <b class=\"r\">red<\/b> marbles did your opponent report drawing? ",
            "catchKey": -1,
            "catchResponse": -1,
            "catchTime": 1681164978838,
            "trialTime": 0
        },
        {
            "exptPart": "trial",
            "trialNumber": 34,
            "roleCurrent": "receiver",
            "marblesSampled": 100,
            "probRed": 0.5,
            "practiceLambda": 5,
            "trialLambda": 21.9,
            "instructedLambda": "dishonest_small",
            "drawnRed": 25,
            "reportedRed": 49,
            "inferredRed": 36,
            "playerTrialScore": -11,
            "oppTrialScore": 11,
            "playerTotalScore": -347,
            "oppTotalScore": 266,
            "waitTime": 5535.281424437252,
            "responseTime": 1681165083637,
            "catchQuestion": "How many <b class=\"r\">red<\/b> marbles did your opponent report drawing? ",
            "catchKey": -1,
            "catchResponse": -1,
            "catchTime": 1681164978838,
            "trialTime": 0
        },
        {
            "exptPart": "trial",
            "trialNumber": 35,
            "roleCurrent": "receiver",
            "marblesSampled": 100,
            "probRed": 0.5,
            "practiceLambda": 5,
            "trialLambda": 21.9,
            "instructedLambda": "dishonest_small",
            "drawnRed": 41,
            "reportedRed": 62,
            "inferredRed": 45,
            "playerTrialScore": -4,
            "oppTrialScore": 4,
            "playerTotalScore": -351,
            "oppTotalScore": 270,
            "waitTime": 6127.718286690266,
            "responseTime": 1681165105236,
            "catchQuestion": "How many <b class=\"r\">red<\/b> marbles did your opponent report drawing? ",
            "catchKey": -1,
            "catchResponse": -1,
            "catchTime": 1681164978838,
            "trialTime": 0
        },
        {
            "exptPart": "trial",
            "trialNumber": 36,
            "roleCurrent": "receiver",
            "marblesSampled": 100,
            "probRed": 0.5,
            "practiceLambda": 5,
            "trialLambda": 21.9,
            "instructedLambda": "dishonest_small",
            "drawnRed": 41,
            "reportedRed": 64,
            "inferredRed": 46,
            "playerTrialScore": -5,
            "oppTrialScore": 5,
            "playerTotalScore": -356,
            "oppTotalScore": 275,
            "waitTime": 5786.095017790318,
            "responseTime": 1681165117953,
            "catchQuestion": "How many <b class=\"r\">red<\/b> marbles did your opponent report drawing? ",
            "catchKey": -1,
            "catchResponse": -1,
            "catchTime": 1681164978838,
            "trialTime": 0
        },
        {
            "exptPart": "trial",
            "trialNumber": 37,
            "roleCurrent": "receiver",
            "marblesSampled": 100,
            "probRed": 0.5,
            "practiceLambda": 5,
            "trialLambda": 21.9,
            "instructedLambda": "dishonest_small",
            "drawnRed": 45,
            "reportedRed": 65,
            "inferredRed": 57,
            "playerTrialScore": -12,
            "oppTrialScore": 12,
            "playerTotalScore": -368,
            "oppTotalScore": 287,
            "waitTime": 5346.122049413047,
            "responseTime": 1681165134003,
            "catchQuestion": "How many <b class=\"r\">red<\/b> marbles did your opponent report drawing? ",
            "catchKey": -1,
            "catchResponse": -1,
            "catchTime": 1681164978838,
            "trialTime": 0
        },
        {
            "exptPart": "trial",
            "trialNumber": 38,
            "roleCurrent": "receiver",
            "marblesSampled": 100,
            "probRed": 0.5,
            "practiceLambda": 5,
            "trialLambda": 21.9,
            "instructedLambda": "dishonest_small",
            "drawnRed": 45,
            "reportedRed": 58,
            "inferredRed": 50,
            "playerTrialScore": -5,
            "oppTrialScore": 5,
            "playerTotalScore": -373,
            "oppTotalScore": 292,
            "waitTime": 5230.626633452785,
            "responseTime": 1681165142720,
            "catchQuestion": "How many <b class=\"r\">red<\/b> marbles did your opponent report drawing? ",
            "catchKey": -1,
            "catchResponse": -1,
            "catchTime": 1681164978838,
            "trialTime": 0
        },
        {
            "exptPart": "trial",
            "trialNumber": 39,
            "roleCurrent": "receiver",
            "marblesSampled": 100,
            "probRed": 0.5,
            "practiceLambda": 5,
            "trialLambda": 21.9,
            "instructedLambda": "dishonest_small",
            "drawnRed": 83,
            "reportedRed": 98,
            "inferredRed": 70,
            "playerTrialScore": -13,
            "oppTrialScore": 0,
            "playerTotalScore": -386,
            "oppTotalScore": 292,
            "waitTime": 5797.494374205431,
            "responseTime": 1681165156636,
            "catchQuestion": "How many <b class=\"r\">red<\/b> marbles did your opponent report drawing? ",
            "catchKey": -1,
            "catchResponse": -1,
            "catchTime": 1681164978838,
            "trialTime": 0
        },
        {
            "exptPart": "trial",
            "trialNumber": 40,
            "roleCurrent": "receiver",
            "marblesSampled": 100,
            "probRed": 0.5,
            "practiceLambda": 5,
            "trialLambda": 21.9,
            "instructedLambda": "dishonest_small",
            "drawnRed": 43,
            "reportedRed": 60,
            "inferredRed": 37,
            "playerTrialScore": -6,
            "oppTrialScore": 0,
            "playerTotalScore": -392,
            "oppTotalScore": 292,
            "waitTime": 5245.741848837706,
            "responseTime": 1681165170285,
            "catchQuestion": "How many <b class=\"r\">red<\/b> marbles did your opponent report drawing? ",
            "catchKey": -1,
            "catchResponse": -1,
            "catchTime": 1681165170285,
            "trialTime": 0
        },
        {
            "exptPart": "trial",
            "trialNumber": 41,
            "roleCurrent": "receiver",
            "marblesSampled": 100,
            "probRed": 0.5,
            "practiceLambda": 5,
            "trialLambda": 21.9,
            "instructedLambda": "dishonest_small",
            "drawnRed": 61,
            "reportedRed": 84,
            "inferredRed": 68,
            "playerTrialScore": -7,
            "oppTrialScore": 7,
            "playerTotalScore": -399,
            "oppTotalScore": 299,
            "waitTime": 5347.682622967608,
            "responseTime": 1681165192452,
            "catchQuestion": "How many <b class=\"r\">red<\/b> marbles did your opponent report drawing? ",
            "catchKey": -1,
            "catchResponse": -1,
            "catchTime": 1681165170285,
            "trialTime": 0
        },
        {
            "exptPart": "trial",
            "trialNumber": 42,
            "roleCurrent": "receiver",
            "marblesSampled": 100,
            "probRed": 0.5,
            "practiceLambda": 5,
            "trialLambda": 21.9,
            "instructedLambda": "dishonest_small",
            "drawnRed": 23,
            "reportedRed": 40,
            "inferredRed": 23,
            "playerTrialScore": 0,
            "oppTrialScore": 0,
            "playerTotalScore": -399,
            "oppTotalScore": 299,
            "waitTime": 6447.2163220372895,
            "responseTime": 1681165204835,
            "catchQuestion": "How many <b class=\"r\">red<\/b> marbles did your opponent report drawing? ",
            "catchKey": -1,
            "catchResponse": -1,
            "catchTime": 1681165170285,
            "trialTime": 0
        },
        {
            "exptPart": "trial",
            "trialNumber": 43,
            "roleCurrent": "receiver",
            "marblesSampled": 100,
            "probRed": 0.5,
            "practiceLambda": 5,
            "trialLambda": 21.9,
            "instructedLambda": "dishonest_small",
            "drawnRed": 42,
            "reportedRed": 66,
            "inferredRed": 39,
            "playerTrialScore": -3,
            "oppTrialScore": 0,
            "playerTotalScore": -402,
            "oppTotalScore": 299,
            "waitTime": 7133.698525265627,
            "responseTime": 1681165231751,
            "catchQuestion": "How many <b class=\"r\">red<\/b> marbles did your opponent report drawing? ",
            "catchKey": 66,
            "catchResponse": 66,
            "catchTime": 1681165231751,
            "trialTime": 0
        },
        {
            "exptPart": "trial",
            "trialNumber": 44,
            "roleCurrent": "receiver",
            "marblesSampled": 100,
            "probRed": 0.5,
            "practiceLambda": 5,
            "trialLambda": 21.9,
            "instructedLambda": "dishonest_small",
            "drawnRed": 38,
            "reportedRed": 63,
            "inferredRed": 49,
            "playerTrialScore": -11,
            "oppTrialScore": 11,
            "playerTotalScore": -413,
            "oppTotalScore": 310,
            "waitTime": 5465.476335512352,
            "responseTime": 1681165259385,
            "catchQuestion": "How many <b class=\"r\">red<\/b> marbles did your opponent report drawing? ",
            "catchKey": -1,
            "catchResponse": -1,
            "catchTime": 1681165231751,
            "trialTime": 0
        },
        {
            "exptPart": "trial",
            "trialNumber": 45,
            "roleCurrent": "receiver",
            "marblesSampled": 100,
            "probRed": 0.5,
            "practiceLambda": 5,
            "trialLambda": 21.9,
            "instructedLambda": "dishonest_small",
            "drawnRed": 22,
            "reportedRed": 47,
            "inferredRed": 43,
            "playerTrialScore": -21,
            "oppTrialScore": 21,
            "playerTotalScore": -434,
            "oppTotalScore": 331,
            "waitTime": 5513.61223365226,
            "responseTime": 1681165285301,
            "catchQuestion": "How many <b class=\"r\">red<\/b> marbles did your opponent report drawing? ",
            "catchKey": -1,
            "catchResponse": -1,
            "catchTime": 1681165231751,
            "trialTime": 0
        },
        {
            "exptPart": "trial",
            "trialNumber": 46,
            "roleCurrent": "receiver",
            "marblesSampled": 100,
            "probRed": 0.5,
            "practiceLambda": 5,
            "trialLambda": 21.9,
            "instructedLambda": "dishonest_small",
            "drawnRed": 77,
            "reportedRed": 98,
            "inferredRed": 78,
            "playerTrialScore": -1,
            "oppTrialScore": 1,
            "playerTotalScore": -435,
            "oppTotalScore": 332,
            "waitTime": 6205.43662483997,
            "responseTime": 1681165380116,
            "catchQuestion": "How many <b class=\"r\">red<\/b> marbles did your opponent report drawing? ",
            "catchKey": -1,
            "catchResponse": -1,
            "catchTime": 1681165231751,
            "trialTime": 0
        },
        {
            "exptPart": "trial",
            "trialNumber": 47,
            "roleCurrent": "receiver",
            "marblesSampled": 100,
            "probRed": 0.5,
            "practiceLambda": 5,
            "trialLambda": 21.9,
            "instructedLambda": "dishonest_small",
            "drawnRed": 62,
            "reportedRed": 79,
            "inferredRed": 55,
            "playerTrialScore": -7,
            "oppTrialScore": 0,
            "playerTotalScore": -442,
            "oppTotalScore": 332,
            "waitTime": 5135.944231953299,
            "responseTime": 1681165447532,
            "catchQuestion": "How many <b class=\"r\">red<\/b> marbles did your opponent report drawing? ",
            "catchKey": -1,
            "catchResponse": -1,
            "catchTime": 1681165231751,
            "trialTime": 0
        },
        {
            "exptPart": "trial",
            "trialNumber": 48,
            "roleCurrent": "receiver",
            "marblesSampled": 100,
            "probRed": 0.5,
            "practiceLambda": 5,
            "trialLambda": 21.9,
            "instructedLambda": "dishonest_small",
            "drawnRed": 74,
            "reportedRed": 100,
            "inferredRed": 69,
            "playerTrialScore": -5,
            "oppTrialScore": 0,
            "playerTotalScore": -447,
            "oppTotalScore": 332,
            "waitTime": 5256.139612145992,
            "responseTime": 1681165459949,
            "catchQuestion": "How many <b class=\"r\">red<\/b> marbles did your opponent report drawing? ",
            "catchKey": -1,
            "catchResponse": -1,
            "catchTime": 1681165231751,
            "trialTime": 0
        },
        {
            "exptPart": "trial",
            "trialNumber": 49,
            "roleCurrent": "receiver",
            "marblesSampled": 100,
            "probRed": 0.5,
            "practiceLambda": 5,
            "trialLambda": 21.9,
            "instructedLambda": "dishonest_small",
            "drawnRed": 57,
            "reportedRed": 77,
            "inferredRed": 59,
            "playerTrialScore": -2,
            "oppTrialScore": 2,
            "playerTotalScore": -449,
            "oppTotalScore": 334,
            "waitTime": 6883.116469365665,
            "responseTime": 1681165487732,
            "catchQuestion": "How many <b class=\"r\">red<\/b> marbles did your opponent report drawing? ",
            "catchKey": 77,
            "catchResponse": 77,
            "catchTime": 1681165487732,
            "trialTime": 0
        },
        {
            "exptPart": "trial",
            "trialNumber": 50,
            "roleCurrent": "receiver",
            "marblesSampled": 100,
            "probRed": 0.5,
            "practiceLambda": 5,
            "trialLambda": 21.9,
            "instructedLambda": "dishonest_small",
            "drawnRed": 38,
            "reportedRed": 60,
            "inferredRed": 40,
            "playerTrialScore": -2,
            "oppTrialScore": 2,
            "playerTotalScore": -451,
            "oppTotalScore": 336,
            "waitTime": 5738.278397595152,
            "responseTime": 1681165547815,
            "catchQuestion": "How many <b class=\"r\">red<\/b> marbles did your opponent report drawing? ",
            "catchKey": -1,
            "catchResponse": -1,
            "catchTime": 1681165547815,
            "trialTime": 0
        },
        {
            "exptPart": "trial",
            "trialNumber": 51,
            "roleCurrent": "receiver",
            "marblesSampled": 100,
            "probRed": 0.5,
            "practiceLambda": 5,
            "trialLambda": 21.9,
            "instructedLambda": "dishonest_small",
            "drawnRed": 23,
            "reportedRed": 38,
            "inferredRed": 28,
            "playerTrialScore": -5,
            "oppTrialScore": 5,
            "playerTotalScore": -456,
            "oppTotalScore": 341,
            "waitTime": 5806.171968475144,
            "responseTime": 1681165612315,
            "catchQuestion": "How many <b class=\"r\">red<\/b> marbles did your opponent report drawing? ",
            "catchKey": -1,
            "catchResponse": -1,
            "catchTime": 1681165547815,
            "trialTime": 0
        },
        {
            "exptPart": "trial",
            "trialNumber": 52,
            "roleCurrent": "receiver",
            "marblesSampled": 100,
            "probRed": 0.5,
            "practiceLambda": 5,
            "trialLambda": 21.9,
            "instructedLambda": "dishonest_small",
            "drawnRed": 37,
            "reportedRed": 55,
            "inferredRed": 42,
            "playerTrialScore": -5,
            "oppTrialScore": 5,
            "playerTotalScore": -461,
            "oppTotalScore": 346,
            "waitTime": 7032.540509748293,
            "responseTime": 1681165625247,
            "catchQuestion": "How many <b class=\"r\">red<\/b> marbles did your opponent report drawing? ",
            "catchKey": -1,
            "catchResponse": -1,
            "catchTime": 1681165547815,
            "trialTime": 0
        },
        {
            "exptPart": "trial",
            "trialNumber": 53,
            "roleCurrent": "receiver",
            "marblesSampled": 100,
            "probRed": 0.5,
            "practiceLambda": 5,
            "trialLambda": 21.9,
            "instructedLambda": "dishonest_small",
            "drawnRed": 65,
            "reportedRed": 82,
            "inferredRed": 77,
            "playerTrialScore": -12,
            "oppTrialScore": 12,
            "playerTotalScore": -473,
            "oppTotalScore": 358,
            "waitTime": 5897.327106509509,
            "responseTime": 1681165635182,
            "catchQuestion": "How many <b class=\"r\">red<\/b> marbles did your opponent report drawing? ",
            "catchKey": -1,
            "catchResponse": -1,
            "catchTime": 1681165547815,
            "trialTime": 0
        },
        {
            "exptPart": "trial",
            "trialNumber": 54,
            "roleCurrent": "receiver",
            "marblesSampled": 100,
            "probRed": 0.5,
            "practiceLambda": 5,
            "trialLambda": 21.9,
            "instructedLambda": "dishonest_small",
            "drawnRed": 55,
            "reportedRed": 82,
            "inferredRed": 80,
            "playerTrialScore": -25,
            "oppTrialScore": 25,
            "playerTotalScore": -498,
            "oppTotalScore": 383,
            "waitTime": 6226.689950149953,
            "responseTime": 1681165655679,
            "catchQuestion": "How many <b class=\"r\">red<\/b> marbles did your opponent report drawing? ",
            "catchKey": -1,
            "catchResponse": -1,
            "catchTime": 1681165547815,
            "trialTime": 0
        },
        {
            "exptPart": "trial",
            "trialNumber": 55,
            "roleCurrent": "receiver",
            "marblesSampled": 100,
            "probRed": 0.5,
            "practiceLambda": 5,
            "trialLambda": 21.9,
            "instructedLambda": "dishonest_small",
            "drawnRed": 57,
            "reportedRed": 78,
            "inferredRed": 63,
            "playerTrialScore": -6,
            "oppTrialScore": 6,
            "playerTotalScore": -504,
            "oppTotalScore": 389,
            "waitTime": 6561.478538487016,
            "responseTime": 1681165674746,
            "catchQuestion": "How many <b class=\"r\">red<\/b> marbles did your opponent report drawing? ",
            "catchKey": -1,
            "catchResponse": -1,
            "catchTime": 1681165547815,
            "trialTime": 0
        },
        {
            "exptPart": "trial",
            "trialNumber": 56,
            "roleCurrent": "receiver",
            "marblesSampled": 100,
            "probRed": 0.5,
            "practiceLambda": 5,
            "trialLambda": 21.9,
            "instructedLambda": "dishonest_small",
            "drawnRed": 53,
            "reportedRed": 75,
            "inferredRed": 58,
            "playerTrialScore": -5,
            "oppTrialScore": 5,
            "playerTotalScore": -509,
            "oppTotalScore": 394,
            "waitTime": 5225.817394871575,
            "responseTime": 1681165717245,
            "catchQuestion": "How many <b class=\"r\">red<\/b> marbles did your opponent report drawing? ",
            "catchKey": -1,
            "catchResponse": -1,
            "catchTime": 1681165547815,
            "trialTime": 0
        },
        {
            "exptPart": "trial",
            "trialNumber": 57,
            "roleCurrent": "receiver",
            "marblesSampled": 100,
            "probRed": 0.5,
            "practiceLambda": 5,
            "trialLambda": 21.9,
            "instructedLambda": "dishonest_small",
            "drawnRed": 30,
            "reportedRed": 63,
            "inferredRed": 42,
            "playerTrialScore": -12,
            "oppTrialScore": 12,
            "playerTotalScore": -521,
            "oppTotalScore": 406,
            "waitTime": 5989.946434416526,
            "responseTime": 1681165738095,
            "catchQuestion": "How many <b class=\"r\">red<\/b> marbles did your opponent report drawing? ",
            "catchKey": -1,
            "catchResponse": -1,
            "catchTime": 1681165547815,
            "trialTime": 0
        },
        {
            "exptPart": "trial",
            "trialNumber": 58,
            "roleCurrent": "receiver",
            "marblesSampled": 100,
            "probRed": 0.5,
            "practiceLambda": 5,
            "trialLambda": 21.9,
            "instructedLambda": "dishonest_small",
            "drawnRed": 60,
            "reportedRed": 81,
            "inferredRed": 70,
            "playerTrialScore": -10,
            "oppTrialScore": 10,
            "playerTotalScore": -531,
            "oppTotalScore": 416,
            "waitTime": 6952.189461617283,
            "responseTime": 1681165749162,
            "catchQuestion": "How many <b class=\"r\">red<\/b> marbles did your opponent report drawing? ",
            "catchKey": -1,
            "catchResponse": -1,
            "catchTime": 1681165547815,
            "trialTime": 0
        },
        {
            "exptPart": "trial",
            "trialNumber": 59,
            "roleCurrent": "receiver",
            "marblesSampled": 100,
            "probRed": 0.5,
            "practiceLambda": 5,
            "trialLambda": 21.9,
            "instructedLambda": "dishonest_small",
            "drawnRed": 33,
            "reportedRed": 57,
            "inferredRed": 44,
            "playerTrialScore": -11,
            "oppTrialScore": 11,
            "playerTotalScore": -542,
            "oppTotalScore": 427,
            "waitTime": 7302.721387749563,
            "responseTime": 1681165762445,
            "catchQuestion": "How many <b class=\"r\">red<\/b> marbles did your opponent report drawing? ",
            "catchKey": -1,
            "catchResponse": -1,
            "catchTime": 1681165547815,
            "trialTime": 0
        },
        {
            "exptPart": "trial",
            "trialNumber": 60,
            "roleCurrent": "receiver",
            "marblesSampled": 100,
            "probRed": 0.5,
            "practiceLambda": 5,
            "trialLambda": 21.9,
            "instructedLambda": "dishonest_small",
            "drawnRed": 70,
            "reportedRed": 83,
            "inferredRed": 65,
            "playerTrialScore": -5,
            "oppTrialScore": 0,
            "playerTotalScore": -547,
            "oppTotalScore": 427,
            "waitTime": 6213.484706466566,
            "responseTime": 1681165775979,
            "catchQuestion": "How many <b class=\"r\">red<\/b> marbles did your opponent report drawing? ",
            "catchKey": -1,
            "catchResponse": -1,
            "catchTime": 1681165775979,
            "trialTime": 0
        },
        {
            "exptPart": "trial",
            "trialNumber": 61,
            "roleCurrent": "receiver",
            "marblesSampled": 100,
            "probRed": 0.5,
            "practiceLambda": 5,
            "trialLambda": 21.9,
            "instructedLambda": "dishonest_small",
            "drawnRed": 46,
            "reportedRed": 70,
            "inferredRed": 68,
            "playerTrialScore": -22,
            "oppTrialScore": 22,
            "playerTotalScore": -569,
            "oppTotalScore": 449,
            "waitTime": 5296.697318460822,
            "responseTime": 1681165801211,
            "catchQuestion": "How many <b class=\"r\">red<\/b> marbles did your opponent report drawing? ",
            "catchKey": 70,
            "catchResponse": 70,
            "catchTime": 1681165801211,
            "trialTime": 0
        },
        {
            "exptPart": "trial",
            "trialNumber": 62,
            "roleCurrent": "receiver",
            "marblesSampled": 100,
            "probRed": 0.5,
            "practiceLambda": 5,
            "trialLambda": 21.9,
            "instructedLambda": "dishonest_small",
            "drawnRed": 51,
            "reportedRed": 74,
            "inferredRed": 55,
            "playerTrialScore": -4,
            "oppTrialScore": 4,
            "playerTotalScore": -573,
            "oppTotalScore": 453,
            "waitTime": 5910.5692354451985,
            "responseTime": 1681165820144,
            "catchQuestion": "How many <b class=\"r\">red<\/b> marbles did your opponent report drawing? ",
            "catchKey": -1,
            "catchResponse": -1,
            "catchTime": 1681165801211,
            "trialTime": 0
        },
        {
            "exptPart": "trial",
            "trialNumber": 63,
            "roleCurrent": "receiver",
            "marblesSampled": 100,
            "probRed": 0.5,
            "practiceLambda": 5,
            "trialLambda": 21.9,
            "instructedLambda": "dishonest_small",
            "drawnRed": 44,
            "reportedRed": 63,
            "inferredRed": 63,
            "playerTrialScore": -19,
            "oppTrialScore": 19,
            "playerTotalScore": -592,
            "oppTotalScore": 472,
            "waitTime": 6653.96014780332,
            "responseTime": 1681165844078,
            "catchQuestion": "How many <b class=\"r\">red<\/b> marbles did your opponent report drawing? ",
            "catchKey": -1,
            "catchResponse": -1,
            "catchTime": 1681165801211,
            "trialTime": 0
        },
        {
            "exptPart": "trial",
            "trialNumber": 64,
            "roleCurrent": "receiver",
            "marblesSampled": 100,
            "probRed": 0.5,
            "practiceLambda": 5,
            "trialLambda": 21.9,
            "instructedLambda": "dishonest_small",
            "drawnRed": 80,
            "reportedRed": 97,
            "inferredRed": 66,
            "playerTrialScore": -14,
            "oppTrialScore": 0,
            "playerTotalScore": -606,
            "oppTotalScore": 472,
            "waitTime": 7132.746163214588,
            "responseTime": 1681165861177,
            "catchQuestion": "How many <b class=\"r\">red<\/b> marbles did your opponent report drawing? ",
            "catchKey": -1,
            "catchResponse": -1,
            "catchTime": 1681165801211,
            "trialTime": 0
        },
        {
            "exptPart": "trial",
            "trialNumber": 65,
            "roleCurrent": "receiver",
            "marblesSampled": 100,
            "probRed": 0.5,
            "practiceLambda": 5,
            "trialLambda": 21.9,
            "instructedLambda": "dishonest_small",
            "drawnRed": 92,
            "reportedRed": 100,
            "inferredRed": 89,
            "playerTrialScore": -3,
            "oppTrialScore": 0,
            "playerTotalScore": -609,
            "oppTotalScore": 472,
            "waitTime": 5341.647847887989,
            "responseTime": 1681165872544,
            "catchQuestion": "How many <b class=\"r\">red<\/b> marbles did your opponent report drawing? ",
            "catchKey": -1,
            "catchResponse": -1,
            "catchTime": 1681165801211,
            "trialTime": 0
        },
        {
            "exptPart": "trial",
            "trialNumber": 66,
            "roleCurrent": "receiver",
            "marblesSampled": 100,
            "probRed": 0.5,
            "practiceLambda": 5,
            "trialLambda": 21.9,
            "instructedLambda": "dishonest_small",
            "drawnRed": 55,
            "reportedRed": 79,
            "inferredRed": 43,
            "playerTrialScore": -12,
            "oppTrialScore": 0,
            "playerTotalScore": -621,
            "oppTotalScore": 472,
            "waitTime": 5469.90217289913,
            "responseTime": 1681165884777,
            "catchQuestion": "How many <b class=\"r\">red<\/b> marbles did your opponent report drawing? ",
            "catchKey": -1,
            "catchResponse": -1,
            "catchTime": 1681165801211,
            "trialTime": 0
        },
        {
            "exptPart": "trial",
            "trialNumber": 67,
            "roleCurrent": "receiver",
            "marblesSampled": 100,
            "probRed": 0.5,
            "practiceLambda": 5,
            "trialLambda": 21.9,
            "instructedLambda": "dishonest_small",
            "drawnRed": 33,
            "reportedRed": 56,
            "inferredRed": 50,
            "playerTrialScore": -17,
            "oppTrialScore": 17,
            "playerTotalScore": -638,
            "oppTotalScore": 489,
            "waitTime": 5395.0061885785735,
            "responseTime": 1681165973160,
            "catchQuestion": "How many <b class=\"r\">red<\/b> marbles did your opponent report drawing? ",
            "catchKey": -1,
            "catchResponse": -1,
            "catchTime": 1681165801211,
            "trialTime": 0
        },
        {
            "exptPart": "trial",
            "trialNumber": 68,
            "roleCurrent": "receiver",
            "marblesSampled": 100,
            "probRed": 0.5,
            "practiceLambda": 5,
            "trialLambda": 21.9,
            "instructedLambda": "dishonest_small",
            "drawnRed": 37,
            "reportedRed": 60,
            "inferredRed": 55,
            "playerTrialScore": -18,
            "oppTrialScore": 18,
            "playerTotalScore": -656,
            "oppTotalScore": 507,
            "waitTime": 6945.6659234938315,
            "responseTime": 1681165989342,
            "catchQuestion": "How many <b class=\"r\">red<\/b> marbles did your opponent report drawing? ",
            "catchKey": -1,
            "catchResponse": -1,
            "catchTime": 1681165801211,
            "trialTime": 0
        },
        {
            "exptPart": "trial",
            "trialNumber": 69,
            "roleCurrent": "receiver",
            "marblesSampled": 100,
            "probRed": 0.5,
            "practiceLambda": 5,
            "trialLambda": 21.9,
            "instructedLambda": "dishonest_small",
            "drawnRed": 59,
            "reportedRed": 84,
            "inferredRed": 62,
            "playerTrialScore": -3,
            "oppTrialScore": 3,
            "playerTotalScore": -659,
            "oppTotalScore": 510,
            "waitTime": 7159.027489249555,
            "responseTime": 1681166001725,
            "catchQuestion": "How many <b class=\"r\">red<\/b> marbles did your opponent report drawing? ",
            "catchKey": -1,
            "catchResponse": -1,
            "catchTime": 1681165801211,
            "trialTime": 0
        },
        {
            "exptPart": "trial",
            "trialNumber": 70,
            "roleCurrent": "receiver",
            "marblesSampled": 100,
            "probRed": 0.5,
            "practiceLambda": 5,
            "trialLambda": 21.9,
            "instructedLambda": "dishonest_small",
            "drawnRed": 46,
            "reportedRed": 62,
            "inferredRed": 37,
            "playerTrialScore": -9,
            "oppTrialScore": 0,
            "playerTotalScore": -668,
            "oppTotalScore": 510,
            "waitTime": 5987.798245782038,
            "responseTime": 1681166014525,
            "catchQuestion": "How many <b class=\"r\">red<\/b> marbles did your opponent report drawing? ",
            "catchKey": -1,
            "catchResponse": -1,
            "catchTime": 1681166014525,
            "trialTime": 0
        },
        {
            "exptPart": "trial",
            "trialNumber": 71,
            "roleCurrent": "receiver",
            "marblesSampled": 100,
            "probRed": 0.5,
            "practiceLambda": 5,
            "trialLambda": 21.9,
            "instructedLambda": "dishonest_small",
            "drawnRed": 56,
            "reportedRed": 78,
            "inferredRed": 65,
            "playerTrialScore": -9,
            "oppTrialScore": 9,
            "playerTotalScore": -677,
            "oppTotalScore": 519,
            "waitTime": 5440.2530096464025,
            "responseTime": 1681166087908,
            "catchQuestion": "How many <b class=\"r\">red<\/b> marbles did your opponent report drawing? ",
            "catchKey": -1,
            "catchResponse": -1,
            "catchTime": 1681166014525,
            "trialTime": 0
        },
        {
            "exptPart": "trial",
            "trialNumber": 72,
            "roleCurrent": "receiver",
            "marblesSampled": 100,
            "probRed": 0.5,
            "practiceLambda": 5,
            "trialLambda": 21.9,
            "instructedLambda": "dishonest_small",
            "drawnRed": 44,
            "reportedRed": 64,
            "inferredRed": 60,
            "playerTrialScore": -16,
            "oppTrialScore": 16,
            "playerTotalScore": -693,
            "oppTotalScore": 535,
            "waitTime": 5769.540012412808,
            "responseTime": 1681166102724,
            "catchQuestion": "How many <b class=\"r\">red<\/b> marbles did your opponent report drawing? ",
            "catchKey": -1,
            "catchResponse": -1,
            "catchTime": 1681166014525,
            "trialTime": 0
        },
        {
            "exptPart": "trial",
            "trialNumber": 73,
            "roleCurrent": "receiver",
            "marblesSampled": 100,
            "probRed": 0.5,
            "practiceLambda": 5,
            "trialLambda": 21.9,
            "instructedLambda": "dishonest_small",
            "drawnRed": 34,
            "reportedRed": 68,
            "inferredRed": 54,
            "playerTrialScore": -20,
            "oppTrialScore": 20,
            "playerTotalScore": -713,
            "oppTotalScore": 555,
            "waitTime": 6343.6223425340395,
            "responseTime": 1681166119774,
            "catchQuestion": "How many <b class=\"r\">red<\/b> marbles did your opponent report drawing? ",
            "catchKey": -1,
            "catchResponse": -1,
            "catchTime": 1681166014525,
            "trialTime": 0
        },
        {
            "exptPart": "trial",
            "trialNumber": 74,
            "roleCurrent": "receiver",
            "marblesSampled": 100,
            "probRed": 0.5,
            "practiceLambda": 5,
            "trialLambda": 21.9,
            "instructedLambda": "dishonest_small",
            "drawnRed": 57,
            "reportedRed": 83,
            "inferredRed": 75,
            "playerTrialScore": -18,
            "oppTrialScore": 18,
            "playerTotalScore": -731,
            "oppTotalScore": 573,
            "waitTime": 6522.262063031465,
            "responseTime": 1681166134474,
            "catchQuestion": "How many <b class=\"r\">red<\/b> marbles did your opponent report drawing? ",
            "catchKey": -1,
            "catchResponse": -1,
            "catchTime": 1681166014525,
            "trialTime": 0
        },
        {
            "exptPart": "trial",
            "trialNumber": 75,
            "roleCurrent": "receiver",
            "marblesSampled": 100,
            "probRed": 0.5,
            "practiceLambda": 5,
            "trialLambda": 21.9,
            "instructedLambda": "dishonest_small",
            "drawnRed": 75,
            "reportedRed": 100,
            "inferredRed": 48,
            "playerTrialScore": -27,
            "oppTrialScore": 0,
            "playerTotalScore": -758,
            "oppTotalScore": 573,
            "waitTime": 7036.639169248016,
            "responseTime": 1681166149040,
            "catchQuestion": "How many <b class=\"r\">red<\/b> marbles did your opponent report drawing? ",
            "catchKey": -1,
            "catchResponse": -1,
            "catchTime": 1681166014525,
            "trialTime": 0
        },
        {
            "exptPart": "trial",
            "trialNumber": 76,
            "roleCurrent": "receiver",
            "marblesSampled": 100,
            "probRed": 0.5,
            "practiceLambda": 5,
            "trialLambda": 21.9,
            "instructedLambda": "dishonest_small",
            "drawnRed": 35,
            "reportedRed": 53,
            "inferredRed": 35,
            "playerTrialScore": 0,
            "oppTrialScore": 0,
            "playerTotalScore": -758,
            "oppTotalScore": 573,
            "waitTime": 6254.084256315911,
            "responseTime": 1681166160673,
            "catchQuestion": "How many <b class=\"r\">red<\/b> marbles did your opponent report drawing? ",
            "catchKey": -1,
            "catchResponse": -1,
            "catchTime": 1681166014525,
            "trialTime": 0
        },
        {
            "exptPart": "trial",
            "trialNumber": 77,
            "roleCurrent": "receiver",
            "marblesSampled": 100,
            "probRed": 0.5,
            "practiceLambda": 5,
            "trialLambda": 21.9,
            "instructedLambda": "dishonest_small",
            "drawnRed": 48,
            "reportedRed": 63,
            "inferredRed": 35,
            "playerTrialScore": -13,
            "oppTrialScore": 0,
            "playerTotalScore": -771,
            "oppTotalScore": 573,
            "waitTime": 5748.441716294965,
            "responseTime": 1681166178223,
            "catchQuestion": "How many <b class=\"r\">red<\/b> marbles did your opponent report drawing? ",
            "catchKey": -1,
            "catchResponse": -1,
            "catchTime": 1681166014525,
            "trialTime": 0
        },
        {
            "exptPart": "trial",
            "trialNumber": 78,
            "roleCurrent": "receiver",
            "marblesSampled": 100,
            "probRed": 0.5,
            "practiceLambda": 5,
            "trialLambda": 21.9,
            "instructedLambda": "dishonest_small",
            "drawnRed": 27,
            "reportedRed": 48,
            "inferredRed": 38,
            "playerTrialScore": -11,
            "oppTrialScore": 11,
            "playerTotalScore": -782,
            "oppTotalScore": 584,
            "waitTime": 7058.503692944218,
            "responseTime": 1681166200573,
            "catchQuestion": "How many <b class=\"r\">red<\/b> marbles did your opponent report drawing? ",
            "catchKey": -1,
            "catchResponse": -1,
            "catchTime": 1681166014525,
            "trialTime": 0
        },
        {
            "exptPart": "trial",
            "trialNumber": 79,
            "roleCurrent": "receiver",
            "marblesSampled": 100,
            "probRed": 0.5,
            "practiceLambda": 5,
            "trialLambda": 21.9,
            "instructedLambda": "dishonest_small",
            "drawnRed": 36,
            "reportedRed": 60,
            "inferredRed": 42,
            "playerTrialScore": -6,
            "oppTrialScore": 6,
            "playerTotalScore": -788,
            "oppTotalScore": 590,
            "waitTime": 6140.773131096144,
            "responseTime": 1681166222433,
            "catchQuestion": "How many <b class=\"r\">red<\/b> marbles did your opponent report drawing? ",
            "catchKey": -1,
            "catchResponse": -1,
            "catchTime": 1681166014525,
            "trialTime": 0
        },
        {
            "exptPart": "trial",
            "trialNumber": 80,
            "roleCurrent": "receiver",
            "marblesSampled": 100,
            "probRed": 0.5,
            "practiceLambda": 5,
            "trialLambda": 21.9,
            "instructedLambda": "dishonest_small",
            "drawnRed": 33,
            "reportedRed": 67,
            "inferredRed": 47,
            "playerTrialScore": -14,
            "oppTrialScore": 14,
            "playerTotalScore": -802,
            "oppTotalScore": 604,
            "waitTime": 5992.2419740815385,
            "responseTime": 1681166236218,
            "catchQuestion": "How many <b class=\"r\">red<\/b> marbles did your opponent report drawing? ",
            "catchKey": -1,
            "catchResponse": -1,
            "catchTime": 1681166236218,
            "trialTime": 0
        },
        {
            "exptPart": "trial",
            "trialNumber": 81,
            "roleCurrent": "receiver",
            "marblesSampled": 100,
            "probRed": 0.5,
            "practiceLambda": 5,
            "trialLambda": 21.9,
            "instructedLambda": "dishonest_small",
            "drawnRed": 54,
            "reportedRed": 79,
            "inferredRed": 66,
            "playerTrialScore": -12,
            "oppTrialScore": 12,
            "playerTotalScore": -814,
            "oppTotalScore": 616,
            "waitTime": 5186.59873737164,
            "responseTime": 1681166264469,
            "catchQuestion": "How many <b class=\"r\">red<\/b> marbles did your opponent report drawing? ",
            "catchKey": -1,
            "catchResponse": -1,
            "catchTime": 1681166236218,
            "trialTime": 0
        },
        {
            "exptPart": "trial",
            "trialNumber": 82,
            "roleCurrent": "receiver",
            "marblesSampled": 100,
            "probRed": 0.5,
            "practiceLambda": 5,
            "trialLambda": 21.9,
            "instructedLambda": "dishonest_small",
            "drawnRed": 65,
            "reportedRed": 83,
            "inferredRed": 55,
            "playerTrialScore": -10,
            "oppTrialScore": 0,
            "playerTotalScore": -824,
            "oppTotalScore": 616,
            "waitTime": 6696.666710678435,
            "responseTime": 1681166276902,
            "catchQuestion": "How many <b class=\"r\">red<\/b> marbles did your opponent report drawing? ",
            "catchKey": -1,
            "catchResponse": -1,
            "catchTime": 1681166236218,
            "trialTime": 0
        },
        {
            "exptPart": "trial",
            "trialNumber": 83,
            "roleCurrent": "receiver",
            "marblesSampled": 100,
            "probRed": 0.5,
            "practiceLambda": 5,
            "trialLambda": 21.9,
            "instructedLambda": "dishonest_small",
            "drawnRed": 59,
            "reportedRed": 86,
            "inferredRed": 64,
            "playerTrialScore": -5,
            "oppTrialScore": 5,
            "playerTotalScore": -829,
            "oppTotalScore": 621,
            "waitTime": 6985.42086432293,
            "responseTime": 1681166293303,
            "catchQuestion": "How many <b class=\"r\">red<\/b> marbles did your opponent report drawing? ",
            "catchKey": -1,
            "catchResponse": -1,
            "catchTime": 1681166236218,
            "trialTime": 0
        },
        {
            "exptPart": "trial",
            "trialNumber": 84,
            "roleCurrent": "receiver",
            "marblesSampled": 100,
            "probRed": 0.5,
            "practiceLambda": 5,
            "trialLambda": 21.9,
            "instructedLambda": "dishonest_small",
            "drawnRed": 36,
            "reportedRed": 58,
            "inferredRed": 44,
            "playerTrialScore": -8,
            "oppTrialScore": 8,
            "playerTotalScore": -837,
            "oppTotalScore": 629,
            "waitTime": 7447.275015522049,
            "responseTime": 1681166309403,
            "catchQuestion": "How many <b class=\"r\">red<\/b> marbles did your opponent report drawing? ",
            "catchKey": -1,
            "catchResponse": -1,
            "catchTime": 1681166236218,
            "trialTime": 0
        },
        {
            "exptPart": "trial",
            "trialNumber": 85,
            "roleCurrent": "receiver",
            "marblesSampled": 100,
            "probRed": 0.5,
            "practiceLambda": 5,
            "trialLambda": 21.9,
            "instructedLambda": "dishonest_small",
            "drawnRed": 84,
            "reportedRed": 100,
            "inferredRed": 88,
            "playerTrialScore": -4,
            "oppTrialScore": 4,
            "playerTotalScore": -841,
            "oppTotalScore": 633,
            "waitTime": 6928.242186302612,
            "responseTime": 1681166320436,
            "catchQuestion": "How many <b class=\"r\">red<\/b> marbles did your opponent report drawing? ",
            "catchKey": -1,
            "catchResponse": -1,
            "catchTime": 1681166236218,
            "trialTime": 0
        },
        {
            "exptPart": "trial",
            "trialNumber": 86,
            "roleCurrent": "receiver",
            "marblesSampled": 100,
            "probRed": 0.5,
            "practiceLambda": 5,
            "trialLambda": 21.9,
            "instructedLambda": "dishonest_small",
            "drawnRed": 60,
            "reportedRed": 77,
            "inferredRed": 66,
            "playerTrialScore": -6,
            "oppTrialScore": 6,
            "playerTotalScore": -847,
            "oppTotalScore": 639,
            "waitTime": 6839.983400659691,
            "responseTime": 1681166357703,
            "catchQuestion": "How many <b class=\"r\">red<\/b> marbles did your opponent report drawing? ",
            "catchKey": -1,
            "catchResponse": -1,
            "catchTime": 1681166236218,
            "trialTime": 0
        },
        {
            "exptPart": "trial",
            "trialNumber": 87,
            "roleCurrent": "receiver",
            "marblesSampled": 100,
            "probRed": 0.5,
            "practiceLambda": 5,
            "trialLambda": 21.9,
            "instructedLambda": "dishonest_small",
            "drawnRed": 27,
            "reportedRed": 47,
            "inferredRed": 32,
            "playerTrialScore": -5,
            "oppTrialScore": 5,
            "playerTotalScore": -852,
            "oppTotalScore": 644,
            "waitTime": 5367.6370730804,
            "responseTime": 1681166368285,
            "catchQuestion": "How many <b class=\"r\">red<\/b> marbles did your opponent report drawing? ",
            "catchKey": -1,
            "catchResponse": -1,
            "catchTime": 1681166236218,
            "trialTime": 0
        },
        {
            "exptPart": "trial",
            "trialNumber": 88,
            "roleCurrent": "receiver",
            "marblesSampled": 100,
            "probRed": 0.5,
            "practiceLambda": 5,
            "trialLambda": 21.9,
            "instructedLambda": "dishonest_small",
            "drawnRed": 47,
            "reportedRed": 72,
            "inferredRed": 55,
            "playerTrialScore": -8,
            "oppTrialScore": 8,
            "playerTotalScore": -860,
            "oppTotalScore": 652,
            "waitTime": 7412.932146573336,
            "responseTime": 1681166394452,
            "catchQuestion": "How many <b class=\"r\">red<\/b> marbles did your opponent report drawing? ",
            "catchKey": -1,
            "catchResponse": -1,
            "catchTime": 1681166236218,
            "trialTime": 0
        },
        {
            "exptPart": "trial",
            "trialNumber": 89,
            "roleCurrent": "receiver",
            "marblesSampled": 100,
            "probRed": 0.5,
            "practiceLambda": 5,
            "trialLambda": 21.9,
            "instructedLambda": "dishonest_small",
            "drawnRed": 34,
            "reportedRed": 53,
            "inferredRed": 32,
            "playerTrialScore": -2,
            "oppTrialScore": 0,
            "playerTotalScore": -862,
            "oppTotalScore": 652,
            "waitTime": 6751.830780946257,
            "responseTime": 1681166406554,
            "catchQuestion": "How many <b class=\"r\">red<\/b> marbles did your opponent report drawing? ",
            "catchKey": -1,
            "catchResponse": -1,
            "catchTime": 1681166236218,
            "trialTime": 0
        },
        {
            "exptPart": "trial",
            "trialNumber": 90,
            "roleCurrent": "receiver",
            "marblesSampled": 100,
            "probRed": 0.5,
            "practiceLambda": 5,
            "trialLambda": 21.9,
            "instructedLambda": "dishonest_small",
            "drawnRed": 78,
            "reportedRed": 100,
            "inferredRed": 77,
            "playerTrialScore": -1,
            "oppTrialScore": 0,
            "playerTotalScore": -863,
            "oppTotalScore": 652,
            "waitTime": 6551.806300820888,
            "responseTime": 1681166422287,
            "catchQuestion": "How many <b class=\"r\">red<\/b> marbles did your opponent report drawing? ",
            "catchKey": 100,
            "catchResponse": 100,
            "catchTime": 1681166422288,
            "trialTime": 0
        },
        {
            "exptPart": "trial",
            "trialNumber": 91,
            "roleCurrent": "receiver",
            "marblesSampled": 100,
            "probRed": 0.5,
            "practiceLambda": 5,
            "trialLambda": 21.9,
            "instructedLambda": "dishonest_small",
            "drawnRed": 30,
            "reportedRed": 50,
            "inferredRed": 45,
            "playerTrialScore": -15,
            "oppTrialScore": 15,
            "playerTotalScore": -878,
            "oppTotalScore": 667,
            "waitTime": 5753.4944265895065,
            "responseTime": 1681166445918,
            "catchQuestion": "How many <b class=\"r\">red<\/b> marbles did your opponent report drawing? ",
            "catchKey": -1,
            "catchResponse": -1,
            "catchTime": 1681166422288,
            "trialTime": 0
        },
        {
            "exptPart": "trial",
            "trialNumber": 92,
            "roleCurrent": "receiver",
            "marblesSampled": 100,
            "probRed": 0.5,
            "practiceLambda": 5,
            "trialLambda": 21.9,
            "instructedLambda": "dishonest_small",
            "drawnRed": 32,
            "reportedRed": 52,
            "inferredRed": 52,
            "playerTrialScore": -20,
            "oppTrialScore": 20,
            "playerTotalScore": -898,
            "oppTotalScore": 687,
            "waitTime": 5935.446597367275,
            "responseTime": 1681166457952,
            "catchQuestion": "How many <b class=\"r\">red<\/b> marbles did your opponent report drawing? ",
            "catchKey": -1,
            "catchResponse": -1,
            "catchTime": 1681166422288,
            "trialTime": 0
        },
        {
            "exptPart": "trial",
            "trialNumber": 93,
            "roleCurrent": "receiver",
            "marblesSampled": 100,
            "probRed": 0.5,
            "practiceLambda": 5,
            "trialLambda": 21.9,
            "instructedLambda": "dishonest_small",
            "drawnRed": 57,
            "reportedRed": 84,
            "inferredRed": 63,
            "playerTrialScore": -6,
            "oppTrialScore": 6,
            "playerTotalScore": -904,
            "oppTotalScore": 693,
            "waitTime": 6507.750621335052,
            "responseTime": 1681166469702,
            "catchQuestion": "How many <b class=\"r\">red<\/b> marbles did your opponent report drawing? ",
            "catchKey": -1,
            "catchResponse": -1,
            "catchTime": 1681166422288,
            "trialTime": 0
        },
        {
            "exptPart": "trial",
            "trialNumber": 94,
            "roleCurrent": "receiver",
            "marblesSampled": 100,
            "probRed": 0.5,
            "practiceLambda": 5,
            "trialLambda": 21.9,
            "instructedLambda": "dishonest_small",
            "drawnRed": 32,
            "reportedRed": 60,
            "inferredRed": 43,
            "playerTrialScore": -11,
            "oppTrialScore": 11,
            "playerTotalScore": -915,
            "oppTotalScore": 704,
            "waitTime": 7104.549491606193,
            "responseTime": 1681166506402,
            "catchQuestion": "How many <b class=\"r\">red<\/b> marbles did your opponent report drawing? ",
            "catchKey": -1,
            "catchResponse": -1,
            "catchTime": 1681166422288,
            "trialTime": 0
        },
        {
            "exptPart": "trial",
            "trialNumber": 95,
            "roleCurrent": "receiver",
            "marblesSampled": 100,
            "probRed": 0.5,
            "practiceLambda": 5,
            "trialLambda": 21.9,
            "instructedLambda": "dishonest_small",
            "drawnRed": 87,
            "reportedRed": 100,
            "inferredRed": 76,
            "playerTrialScore": -11,
            "oppTrialScore": 0,
            "playerTotalScore": -926,
            "oppTotalScore": 704,
            "waitTime": 6676.8869804428095,
            "responseTime": 1681166521235,
            "catchQuestion": "How many <b class=\"r\">red<\/b> marbles did your opponent report drawing? ",
            "catchKey": -1,
            "catchResponse": -1,
            "catchTime": 1681166422288,
            "trialTime": 0
        },
        {
            "exptPart": "trial",
            "trialNumber": 96,
            "roleCurrent": "receiver",
            "marblesSampled": 100,
            "probRed": 0.5,
            "practiceLambda": 5,
            "trialLambda": 21.9,
            "instructedLambda": "dishonest_small",
            "drawnRed": 53,
            "reportedRed": 81,
            "inferredRed": 56,
            "playerTrialScore": -3,
            "oppTrialScore": 3,
            "playerTotalScore": -929,
            "oppTotalScore": 707,
            "waitTime": 5642.3722205939575,
            "responseTime": 1681166532819,
            "catchQuestion": "How many <b class=\"r\">red<\/b> marbles did your opponent report drawing? ",
            "catchKey": -1,
            "catchResponse": -1,
            "catchTime": 1681166422288,
            "trialTime": 0
        },
        {
            "exptPart": "trial",
            "trialNumber": 97,
            "roleCurrent": "receiver",
            "marblesSampled": 100,
            "probRed": 0.5,
            "practiceLambda": 5,
            "trialLambda": 21.9,
            "instructedLambda": "dishonest_small",
            "drawnRed": 42,
            "reportedRed": 73,
            "inferredRed": 51,
            "playerTrialScore": -9,
            "oppTrialScore": 9,
            "playerTotalScore": -938,
            "oppTotalScore": 716,
            "waitTime": 5939.80352062022,
            "responseTime": 1681166553402,
            "catchQuestion": "How many <b class=\"r\">red<\/b> marbles did your opponent report drawing? ",
            "catchKey": -1,
            "catchResponse": -1,
            "catchTime": 1681166422288,
            "trialTime": 0
        },
        {
            "exptPart": "trial",
            "trialNumber": 98,
            "roleCurrent": "receiver",
            "marblesSampled": 100,
            "probRed": 0.5,
            "practiceLambda": 5,
            "trialLambda": 21.9,
            "instructedLambda": "dishonest_small",
            "drawnRed": 37,
            "reportedRed": 56,
            "inferredRed": 39,
            "playerTrialScore": -2,
            "oppTrialScore": 2,
            "playerTotalScore": -940,
            "oppTotalScore": 718,
            "waitTime": 5137.7687132092315,
            "responseTime": 1681166568785,
            "catchQuestion": "How many <b class=\"r\">red<\/b> marbles did your opponent report drawing? ",
            "catchKey": 56,
            "catchResponse": 56,
            "catchTime": 1681166568785,
            "trialTime": 0
        },
        {
            "exptPart": "trial",
            "trialNumber": 99,
            "roleCurrent": "receiver",
            "marblesSampled": 100,
            "probRed": 0.5,
            "practiceLambda": 5,
            "trialLambda": 21.9,
            "instructedLambda": "dishonest_small",
            "drawnRed": 30,
            "reportedRed": 45,
            "inferredRed": 29,
            "playerTrialScore": -1,
            "oppTrialScore": 0,
            "playerTotalScore": -941,
            "oppTotalScore": 718,
            "waitTime": 5227.937009917352,
            "responseTime": 1681166590318,
            "catchQuestion": "How many <b class=\"r\">red<\/b> marbles did your opponent report drawing? ",
            "catchKey": -1,
            "catchResponse": -1,
            "catchTime": 1681166568785,
            "trialTime": 0
        },
        {
            "exptPart": "trial",
            "trialNumber": 100,
            "roleCurrent": "receiver",
            "marblesSampled": 100,
            "probRed": 0.5,
            "practiceLambda": 5,
            "trialLambda": 21.9,
            "instructedLambda": "dishonest_small",
            "drawnRed": 35,
            "reportedRed": 51,
            "inferredRed": 42,
            "playerTrialScore": -7,
            "oppTrialScore": 7,
            "playerTotalScore": -948,
            "oppTotalScore": 725,
            "waitTime": 5977.721892040792,
            "responseTime": 1681166603935,
            "catchQuestion": "How many <b class=\"r\">red<\/b> marbles did your opponent report drawing? ",
            "catchKey": -1,
            "catchResponse": -1,
            "catchTime": 1681166603935,
            "trialTime": 0
        }
    ]
}