{
    "client": {
        "type": "sona",
        "experiment_id": 2228,
        "credit_token": "b315147ae43241ea9c65086cb510cfb7",
        "survey_code": "40107",
        "sid": "sona-40107",
        "window": {
            "width": 1536,
            "height": 745
        },
        "screen": {
            "width": 1536,
            "height": 864
        },
        "userAgent": "Mozilla\/5.0 (Windows NT 10.0; Win64; x64) AppleWebKit\/537.36 (KHTML, like Gecko) Chrome\/111.0.0.0 Safari\/537.36",
        "score": 0,
        "bonus": 0
    },
    "expt": {
        "saveURL": "submit.simple.php",
        "trials": 100,
        "practiceTrials": 2,
        "marblesSampled": 100,
        "probRed": 0.5,
        "practiceLambdaAI": 5,
        "lambdaAI": 21.9,
        "roles": [
            "sender",
            "receiver"
        ],
        "cost": "unif",
        "goal": "over",
        "oppDishonesty": "honest",
        "catchTrials": [
            3,
            59,
            38,
            5,
            19,
            96,
            64,
            57,
            11,
            92
        ],
        "scoreTotal": {
            "player": -1829,
            "opp": 1738
        },
        "sona": {
            "experiment_id": 2228,
            "credit_token": "b315147ae43241ea9c65086cb510cfb7"
        },
        "pilot": false,
        "debug": false
    },
    "trials": [
        {
            "exptPart": "practice",
            "trialNumber": 1,
            "roleCurrent": "sender",
            "marblesSampled": 100,
            "probRed": 0.5,
            "practiceLambda": 5,
            "trialLambda": 21.9,
            "instructedLambda": "honest",
            "drawnRed": 62,
            "reportedRed": 32,
            "inferredRed": 28,
            "playerTrialScore": 0,
            "oppTrialScore": -34,
            "playerTotalScore": 0,
            "oppTotalScore": -34,
            "waitTime": 2987.8477401317155,
            "responseTime": 1681051464042,
            "catchQuestion": "How many <b class=\"r\">red<\/b> marbles did you actually draw (before any changes)? ",
            "catchKey": 62,
            "catchResponse": 32,
            "catchTime": 1681051464042,
            "trialTime": 0
        },
        {
            "exptPart": "practice",
            "trialNumber": 2,
            "roleCurrent": "receiver",
            "marblesSampled": 100,
            "probRed": 0.5,
            "practiceLambda": 5,
            "trialLambda": 21.9,
            "instructedLambda": "honest",
            "drawnRed": 41,
            "reportedRed": 44,
            "inferredRed": 45,
            "playerTrialScore": -4,
            "oppTrialScore": 4,
            "playerTotalScore": -4,
            "oppTotalScore": -30,
            "waitTime": 6060.496850219419,
            "responseTime": 1681051541824,
            "catchQuestion": "How many <b class=\"r\">red<\/b> marbles did your opponent report drawing? ",
            "catchKey": 44,
            "catchResponse": 43,
            "catchTime": 1681051541824,
            "trialTime": 0
        },
        {
            "exptPart": "trial",
            "trialNumber": 1,
            "roleCurrent": "receiver",
            "marblesSampled": 100,
            "probRed": 0.5,
            "practiceLambda": 5,
            "trialLambda": 21.9,
            "instructedLambda": "honest",
            "drawnRed": 26,
            "reportedRed": 42,
            "inferredRed": 39,
            "playerTrialScore": -13,
            "oppTrialScore": 13,
            "playerTotalScore": -13,
            "oppTotalScore": 13,
            "waitTime": 5378.49385228057,
            "responseTime": 1681051598123,
            "catchQuestion": "How many <b class=\"r\">red<\/b> marbles did your opponent report drawing? ",
            "catchKey": -1,
            "catchResponse": -1,
            "catchTime": 1681051541824,
            "trialTime": 0
        },
        {
            "exptPart": "trial",
            "trialNumber": 2,
            "roleCurrent": "receiver",
            "marblesSampled": 100,
            "probRed": 0.5,
            "practiceLambda": 5,
            "trialLambda": 21.9,
            "instructedLambda": "honest",
            "drawnRed": 21,
            "reportedRed": 42,
            "inferredRed": 37,
            "playerTrialScore": -16,
            "oppTrialScore": 16,
            "playerTotalScore": -29,
            "oppTotalScore": 29,
            "waitTime": 5825.061841600799,
            "responseTime": 1681051629307,
            "catchQuestion": "How many <b class=\"r\">red<\/b> marbles did your opponent report drawing? ",
            "catchKey": -1,
            "catchResponse": -1,
            "catchTime": 1681051541824,
            "trialTime": 0
        },
        {
            "exptPart": "trial",
            "trialNumber": 3,
            "roleCurrent": "receiver",
            "marblesSampled": 100,
            "probRed": 0.5,
            "practiceLambda": 5,
            "trialLambda": 21.9,
            "instructedLambda": "honest",
            "drawnRed": 44,
            "reportedRed": 64,
            "inferredRed": 52,
            "playerTrialScore": -8,
            "oppTrialScore": 8,
            "playerTotalScore": -37,
            "oppTotalScore": 37,
            "waitTime": 6015.660356842942,
            "responseTime": 1681051654006,
            "catchQuestion": "How many <b class=\"r\">red<\/b> marbles did your opponent report drawing? ",
            "catchKey": -1,
            "catchResponse": -1,
            "catchTime": 1681051541824,
            "trialTime": 0
        },
        {
            "exptPart": "trial",
            "trialNumber": 4,
            "roleCurrent": "receiver",
            "marblesSampled": 100,
            "probRed": 0.5,
            "practiceLambda": 5,
            "trialLambda": 21.9,
            "instructedLambda": "honest",
            "drawnRed": 62,
            "reportedRed": 75,
            "inferredRed": 60,
            "playerTrialScore": -2,
            "oppTrialScore": 0,
            "playerTotalScore": -39,
            "oppTotalScore": 37,
            "waitTime": 5319.635046475464,
            "responseTime": 1681051666925,
            "catchQuestion": "How many <b class=\"r\">red<\/b> marbles did your opponent report drawing? ",
            "catchKey": 75,
            "catchResponse": 75,
            "catchTime": 1681051666925,
            "trialTime": 0
        },
        {
            "exptPart": "trial",
            "trialNumber": 5,
            "roleCurrent": "receiver",
            "marblesSampled": 100,
            "probRed": 0.5,
            "practiceLambda": 5,
            "trialLambda": 21.9,
            "instructedLambda": "honest",
            "drawnRed": 45,
            "reportedRed": 63,
            "inferredRed": 52,
            "playerTrialScore": -7,
            "oppTrialScore": 7,
            "playerTotalScore": -46,
            "oppTotalScore": 44,
            "waitTime": 6033.410792112383,
            "responseTime": 1681051710440,
            "catchQuestion": "How many <b class=\"r\">red<\/b> marbles did your opponent report drawing? ",
            "catchKey": -1,
            "catchResponse": -1,
            "catchTime": 1681051666925,
            "trialTime": 0
        },
        {
            "exptPart": "trial",
            "trialNumber": 6,
            "roleCurrent": "receiver",
            "marblesSampled": 100,
            "probRed": 0.5,
            "practiceLambda": 5,
            "trialLambda": 21.9,
            "instructedLambda": "honest",
            "drawnRed": 43,
            "reportedRed": 57,
            "inferredRed": 54,
            "playerTrialScore": -11,
            "oppTrialScore": 11,
            "playerTotalScore": -57,
            "oppTotalScore": 55,
            "waitTime": 5378.857959022043,
            "responseTime": 1681051741421,
            "catchQuestion": "How many <b class=\"r\">red<\/b> marbles did your opponent report drawing? ",
            "catchKey": 57,
            "catchResponse": 57,
            "catchTime": 1681051741421,
            "trialTime": 0
        },
        {
            "exptPart": "trial",
            "trialNumber": 7,
            "roleCurrent": "receiver",
            "marblesSampled": 100,
            "probRed": 0.5,
            "practiceLambda": 5,
            "trialLambda": 21.9,
            "instructedLambda": "honest",
            "drawnRed": 67,
            "reportedRed": 92,
            "inferredRed": 80,
            "playerTrialScore": -13,
            "oppTrialScore": 13,
            "playerTotalScore": -70,
            "oppTotalScore": 68,
            "waitTime": 6627.96060233548,
            "responseTime": 1681051759455,
            "catchQuestion": "How many <b class=\"r\">red<\/b> marbles did your opponent report drawing? ",
            "catchKey": -1,
            "catchResponse": -1,
            "catchTime": 1681051741421,
            "trialTime": 0
        },
        {
            "exptPart": "trial",
            "trialNumber": 8,
            "roleCurrent": "receiver",
            "marblesSampled": 100,
            "probRed": 0.5,
            "practiceLambda": 5,
            "trialLambda": 21.9,
            "instructedLambda": "honest",
            "drawnRed": 78,
            "reportedRed": 99,
            "inferredRed": 75,
            "playerTrialScore": -3,
            "oppTrialScore": 0,
            "playerTotalScore": -73,
            "oppTotalScore": 68,
            "waitTime": 5599.671302299568,
            "responseTime": 1681051775240,
            "catchQuestion": "How many <b class=\"r\">red<\/b> marbles did your opponent report drawing? ",
            "catchKey": -1,
            "catchResponse": -1,
            "catchTime": 1681051741421,
            "trialTime": 0
        },
        {
            "exptPart": "trial",
            "trialNumber": 9,
            "roleCurrent": "receiver",
            "marblesSampled": 100,
            "probRed": 0.5,
            "practiceLambda": 5,
            "trialLambda": 21.9,
            "instructedLambda": "honest",
            "drawnRed": 28,
            "reportedRed": 51,
            "inferredRed": 40,
            "playerTrialScore": -12,
            "oppTrialScore": 12,
            "playerTotalScore": -85,
            "oppTotalScore": 80,
            "waitTime": 5347.922800400356,
            "responseTime": 1681051788272,
            "catchQuestion": "How many <b class=\"r\">red<\/b> marbles did your opponent report drawing? ",
            "catchKey": -1,
            "catchResponse": -1,
            "catchTime": 1681051741421,
            "trialTime": 0
        },
        {
            "exptPart": "trial",
            "trialNumber": 10,
            "roleCurrent": "receiver",
            "marblesSampled": 100,
            "probRed": 0.5,
            "practiceLambda": 5,
            "trialLambda": 21.9,
            "instructedLambda": "honest",
            "drawnRed": 42,
            "reportedRed": 74,
            "inferredRed": 62,
            "playerTrialScore": -20,
            "oppTrialScore": 20,
            "playerTotalScore": -105,
            "oppTotalScore": 100,
            "waitTime": 6120.362608020168,
            "responseTime": 1681051800423,
            "catchQuestion": "How many <b class=\"r\">red<\/b> marbles did your opponent report drawing? ",
            "catchKey": -1,
            "catchResponse": -1,
            "catchTime": 1681051800424,
            "trialTime": 0
        },
        {
            "exptPart": "trial",
            "trialNumber": 11,
            "roleCurrent": "receiver",
            "marblesSampled": 100,
            "probRed": 0.5,
            "practiceLambda": 5,
            "trialLambda": 21.9,
            "instructedLambda": "honest",
            "drawnRed": 35,
            "reportedRed": 56,
            "inferredRed": 55,
            "playerTrialScore": -20,
            "oppTrialScore": 20,
            "playerTotalScore": -125,
            "oppTotalScore": 120,
            "waitTime": 6161.024594216143,
            "responseTime": 1681051820921,
            "catchQuestion": "How many <b class=\"r\">red<\/b> marbles did your opponent report drawing? ",
            "catchKey": -1,
            "catchResponse": -1,
            "catchTime": 1681051800424,
            "trialTime": 0
        },
        {
            "exptPart": "trial",
            "trialNumber": 12,
            "roleCurrent": "receiver",
            "marblesSampled": 100,
            "probRed": 0.5,
            "practiceLambda": 5,
            "trialLambda": 21.9,
            "instructedLambda": "honest",
            "drawnRed": 78,
            "reportedRed": 100,
            "inferredRed": 45,
            "playerTrialScore": -33,
            "oppTrialScore": 0,
            "playerTotalScore": -158,
            "oppTotalScore": 120,
            "waitTime": 5939.226335130859,
            "responseTime": 1681051831677,
            "catchQuestion": "How many <b class=\"r\">red<\/b> marbles did your opponent report drawing? ",
            "catchKey": 100,
            "catchResponse": 100,
            "catchTime": 1681051831678,
            "trialTime": 0
        },
        {
            "exptPart": "trial",
            "trialNumber": 13,
            "roleCurrent": "receiver",
            "marblesSampled": 100,
            "probRed": 0.5,
            "practiceLambda": 5,
            "trialLambda": 21.9,
            "instructedLambda": "honest",
            "drawnRed": 57,
            "reportedRed": 74,
            "inferredRed": 54,
            "playerTrialScore": -3,
            "oppTrialScore": 0,
            "playerTotalScore": -161,
            "oppTotalScore": 120,
            "waitTime": 5534.243856143459,
            "responseTime": 1681051846904,
            "catchQuestion": "How many <b class=\"r\">red<\/b> marbles did your opponent report drawing? ",
            "catchKey": -1,
            "catchResponse": -1,
            "catchTime": 1681051831678,
            "trialTime": 0
        },
        {
            "exptPart": "trial",
            "trialNumber": 14,
            "roleCurrent": "receiver",
            "marblesSampled": 100,
            "probRed": 0.5,
            "practiceLambda": 5,
            "trialLambda": 21.9,
            "instructedLambda": "honest",
            "drawnRed": 51,
            "reportedRed": 81,
            "inferredRed": 67,
            "playerTrialScore": -16,
            "oppTrialScore": 16,
            "playerTotalScore": -177,
            "oppTotalScore": 136,
            "waitTime": 5534.323862880179,
            "responseTime": 1681051855838,
            "catchQuestion": "How many <b class=\"r\">red<\/b> marbles did your opponent report drawing? ",
            "catchKey": -1,
            "catchResponse": -1,
            "catchTime": 1681051831678,
            "trialTime": 0
        },
        {
            "exptPart": "trial",
            "trialNumber": 15,
            "roleCurrent": "receiver",
            "marblesSampled": 100,
            "probRed": 0.5,
            "practiceLambda": 5,
            "trialLambda": 21.9,
            "instructedLambda": "honest",
            "drawnRed": 65,
            "reportedRed": 81,
            "inferredRed": 73,
            "playerTrialScore": -8,
            "oppTrialScore": 8,
            "playerTotalScore": -185,
            "oppTotalScore": 144,
            "waitTime": 6606.4087340468195,
            "responseTime": 1681051867722,
            "catchQuestion": "How many <b class=\"r\">red<\/b> marbles did your opponent report drawing? ",
            "catchKey": -1,
            "catchResponse": -1,
            "catchTime": 1681051831678,
            "trialTime": 0
        },
        {
            "exptPart": "trial",
            "trialNumber": 16,
            "roleCurrent": "receiver",
            "marblesSampled": 100,
            "probRed": 0.5,
            "practiceLambda": 5,
            "trialLambda": 21.9,
            "instructedLambda": "honest",
            "drawnRed": 56,
            "reportedRed": 72,
            "inferredRed": 58,
            "playerTrialScore": -2,
            "oppTrialScore": 2,
            "playerTotalScore": -187,
            "oppTotalScore": 146,
            "waitTime": 5526.894467248176,
            "responseTime": 1681051877939,
            "catchQuestion": "How many <b class=\"r\">red<\/b> marbles did your opponent report drawing? ",
            "catchKey": -1,
            "catchResponse": -1,
            "catchTime": 1681051831678,
            "trialTime": 0
        },
        {
            "exptPart": "trial",
            "trialNumber": 17,
            "roleCurrent": "receiver",
            "marblesSampled": 100,
            "probRed": 0.5,
            "practiceLambda": 5,
            "trialLambda": 21.9,
            "instructedLambda": "honest",
            "drawnRed": 53,
            "reportedRed": 76,
            "inferredRed": 59,
            "playerTrialScore": -6,
            "oppTrialScore": 6,
            "playerTotalScore": -193,
            "oppTotalScore": 152,
            "waitTime": 5183.812191663993,
            "responseTime": 1681051888849,
            "catchQuestion": "How many <b class=\"r\">red<\/b> marbles did your opponent report drawing? ",
            "catchKey": -1,
            "catchResponse": -1,
            "catchTime": 1681051831678,
            "trialTime": 0
        },
        {
            "exptPart": "trial",
            "trialNumber": 18,
            "roleCurrent": "receiver",
            "marblesSampled": 100,
            "probRed": 0.5,
            "practiceLambda": 5,
            "trialLambda": 21.9,
            "instructedLambda": "honest",
            "drawnRed": 89,
            "reportedRed": 100,
            "inferredRed": 74,
            "playerTrialScore": -15,
            "oppTrialScore": 0,
            "playerTotalScore": -208,
            "oppTotalScore": 152,
            "waitTime": 5233.7417104666965,
            "responseTime": 1681051902253,
            "catchQuestion": "How many <b class=\"r\">red<\/b> marbles did your opponent report drawing? ",
            "catchKey": -1,
            "catchResponse": -1,
            "catchTime": 1681051831678,
            "trialTime": 0
        },
        {
            "exptPart": "trial",
            "trialNumber": 19,
            "roleCurrent": "receiver",
            "marblesSampled": 100,
            "probRed": 0.5,
            "practiceLambda": 5,
            "trialLambda": 21.9,
            "instructedLambda": "honest",
            "drawnRed": 43,
            "reportedRed": 68,
            "inferredRed": 59,
            "playerTrialScore": -16,
            "oppTrialScore": 16,
            "playerTotalScore": -224,
            "oppTotalScore": 168,
            "waitTime": 5949.252909327459,
            "responseTime": 1681051915119,
            "catchQuestion": "How many <b class=\"r\">red<\/b> marbles did your opponent report drawing? ",
            "catchKey": -1,
            "catchResponse": -1,
            "catchTime": 1681051831678,
            "trialTime": 0
        },
        {
            "exptPart": "trial",
            "trialNumber": 20,
            "roleCurrent": "receiver",
            "marblesSampled": 100,
            "probRed": 0.5,
            "practiceLambda": 5,
            "trialLambda": 21.9,
            "instructedLambda": "honest",
            "drawnRed": 34,
            "reportedRed": 50,
            "inferredRed": 50,
            "playerTrialScore": -16,
            "oppTrialScore": 16,
            "playerTotalScore": -240,
            "oppTotalScore": 184,
            "waitTime": 7127.718146711971,
            "responseTime": 1681051927503,
            "catchQuestion": "How many <b class=\"r\">red<\/b> marbles did your opponent report drawing? ",
            "catchKey": 50,
            "catchResponse": 50,
            "catchTime": 1681051927503,
            "trialTime": 0
        },
        {
            "exptPart": "trial",
            "trialNumber": 21,
            "roleCurrent": "receiver",
            "marblesSampled": 100,
            "probRed": 0.5,
            "practiceLambda": 5,
            "trialLambda": 21.9,
            "instructedLambda": "honest",
            "drawnRed": 62,
            "reportedRed": 84,
            "inferredRed": 83,
            "playerTrialScore": -21,
            "oppTrialScore": 21,
            "playerTotalScore": -261,
            "oppTotalScore": 205,
            "waitTime": 6939.996311228071,
            "responseTime": 1681053135937,
            "catchQuestion": "How many <b class=\"r\">red<\/b> marbles did your opponent report drawing? ",
            "catchKey": -1,
            "catchResponse": -1,
            "catchTime": 1681051927503,
            "trialTime": 0
        },
        {
            "exptPart": "trial",
            "trialNumber": 22,
            "roleCurrent": "receiver",
            "marblesSampled": 100,
            "probRed": 0.5,
            "practiceLambda": 5,
            "trialLambda": 21.9,
            "instructedLambda": "honest",
            "drawnRed": 55,
            "reportedRed": 78,
            "inferredRed": 71,
            "playerTrialScore": -16,
            "oppTrialScore": 16,
            "playerTotalScore": -277,
            "oppTotalScore": 221,
            "waitTime": 7201.2531745525785,
            "responseTime": 1681053149215,
            "catchQuestion": "How many <b class=\"r\">red<\/b> marbles did your opponent report drawing? ",
            "catchKey": -1,
            "catchResponse": -1,
            "catchTime": 1681051927503,
            "trialTime": 0
        },
        {
            "exptPart": "trial",
            "trialNumber": 23,
            "roleCurrent": "receiver",
            "marblesSampled": 100,
            "probRed": 0.5,
            "practiceLambda": 5,
            "trialLambda": 21.9,
            "instructedLambda": "honest",
            "drawnRed": 86,
            "reportedRed": 100,
            "inferredRed": 90,
            "playerTrialScore": -4,
            "oppTrialScore": 4,
            "playerTotalScore": -281,
            "oppTotalScore": 225,
            "waitTime": 7286.697945046522,
            "responseTime": 1681053164190,
            "catchQuestion": "How many <b class=\"r\">red<\/b> marbles did your opponent report drawing? ",
            "catchKey": -1,
            "catchResponse": -1,
            "catchTime": 1681051927503,
            "trialTime": 0
        },
        {
            "exptPart": "trial",
            "trialNumber": 24,
            "roleCurrent": "receiver",
            "marblesSampled": 100,
            "probRed": 0.5,
            "practiceLambda": 5,
            "trialLambda": 21.9,
            "instructedLambda": "honest",
            "drawnRed": 14,
            "reportedRed": 39,
            "inferredRed": 45,
            "playerTrialScore": -31,
            "oppTrialScore": 31,
            "playerTotalScore": -312,
            "oppTotalScore": 256,
            "waitTime": 5488.322580581353,
            "responseTime": 1681053179204,
            "catchQuestion": "How many <b class=\"r\">red<\/b> marbles did your opponent report drawing? ",
            "catchKey": -1,
            "catchResponse": -1,
            "catchTime": 1681051927503,
            "trialTime": 0
        },
        {
            "exptPart": "trial",
            "trialNumber": 25,
            "roleCurrent": "receiver",
            "marblesSampled": 100,
            "probRed": 0.5,
            "practiceLambda": 5,
            "trialLambda": 21.9,
            "instructedLambda": "honest",
            "drawnRed": 31,
            "reportedRed": 60,
            "inferredRed": 60,
            "playerTrialScore": -29,
            "oppTrialScore": 29,
            "playerTotalScore": -341,
            "oppTotalScore": 285,
            "waitTime": 6009.808432776789,
            "responseTime": 1681053193524,
            "catchQuestion": "How many <b class=\"r\">red<\/b> marbles did your opponent report drawing? ",
            "catchKey": -1,
            "catchResponse": -1,
            "catchTime": 1681051927503,
            "trialTime": 0
        },
        {
            "exptPart": "trial",
            "trialNumber": 26,
            "roleCurrent": "receiver",
            "marblesSampled": 100,
            "probRed": 0.5,
            "practiceLambda": 5,
            "trialLambda": 21.9,
            "instructedLambda": "honest",
            "drawnRed": 35,
            "reportedRed": 64,
            "inferredRed": 50,
            "playerTrialScore": -15,
            "oppTrialScore": 15,
            "playerTotalScore": -356,
            "oppTotalScore": 300,
            "waitTime": 5663.759808324365,
            "responseTime": 1681053210320,
            "catchQuestion": "How many <b class=\"r\">red<\/b> marbles did your opponent report drawing? ",
            "catchKey": -1,
            "catchResponse": -1,
            "catchTime": 1681051927503,
            "trialTime": 0
        },
        {
            "exptPart": "trial",
            "trialNumber": 27,
            "roleCurrent": "receiver",
            "marblesSampled": 100,
            "probRed": 0.5,
            "practiceLambda": 5,
            "trialLambda": 21.9,
            "instructedLambda": "honest",
            "drawnRed": 29,
            "reportedRed": 49,
            "inferredRed": 45,
            "playerTrialScore": -16,
            "oppTrialScore": 16,
            "playerTotalScore": -372,
            "oppTotalScore": 316,
            "waitTime": 6273.039011663297,
            "responseTime": 1681053226170,
            "catchQuestion": "How many <b class=\"r\">red<\/b> marbles did your opponent report drawing? ",
            "catchKey": -1,
            "catchResponse": -1,
            "catchTime": 1681051927503,
            "trialTime": 0
        },
        {
            "exptPart": "trial",
            "trialNumber": 28,
            "roleCurrent": "receiver",
            "marblesSampled": 100,
            "probRed": 0.5,
            "practiceLambda": 5,
            "trialLambda": 21.9,
            "instructedLambda": "honest",
            "drawnRed": 62,
            "reportedRed": 85,
            "inferredRed": 60,
            "playerTrialScore": -2,
            "oppTrialScore": 0,
            "playerTotalScore": -374,
            "oppTotalScore": 316,
            "waitTime": 6958.639436451545,
            "responseTime": 1681053239253,
            "catchQuestion": "How many <b class=\"r\">red<\/b> marbles did your opponent report drawing? ",
            "catchKey": -1,
            "catchResponse": -1,
            "catchTime": 1681051927503,
            "trialTime": 0
        },
        {
            "exptPart": "trial",
            "trialNumber": 29,
            "roleCurrent": "receiver",
            "marblesSampled": 100,
            "probRed": 0.5,
            "practiceLambda": 5,
            "trialLambda": 21.9,
            "instructedLambda": "honest",
            "drawnRed": 95,
            "reportedRed": 100,
            "inferredRed": 95,
            "playerTrialScore": 0,
            "oppTrialScore": 0,
            "playerTotalScore": -374,
            "oppTotalScore": 316,
            "waitTime": 6223.758818345682,
            "responseTime": 1681053254137,
            "catchQuestion": "How many <b class=\"r\">red<\/b> marbles did your opponent report drawing? ",
            "catchKey": -1,
            "catchResponse": -1,
            "catchTime": 1681051927503,
            "trialTime": 0
        },
        {
            "exptPart": "trial",
            "trialNumber": 30,
            "roleCurrent": "receiver",
            "marblesSampled": 100,
            "probRed": 0.5,
            "practiceLambda": 5,
            "trialLambda": 21.9,
            "instructedLambda": "honest",
            "drawnRed": 53,
            "reportedRed": 81,
            "inferredRed": 64,
            "playerTrialScore": -11,
            "oppTrialScore": 11,
            "playerTotalScore": -385,
            "oppTotalScore": 327,
            "waitTime": 7256.888165648485,
            "responseTime": 1681053266268,
            "catchQuestion": "How many <b class=\"r\">red<\/b> marbles did your opponent report drawing? ",
            "catchKey": -1,
            "catchResponse": -1,
            "catchTime": 1681053266268,
            "trialTime": 0
        },
        {
            "exptPart": "trial",
            "trialNumber": 31,
            "roleCurrent": "receiver",
            "marblesSampled": 100,
            "probRed": 0.5,
            "practiceLambda": 5,
            "trialLambda": 21.9,
            "instructedLambda": "honest",
            "drawnRed": 60,
            "reportedRed": 76,
            "inferredRed": 76,
            "playerTrialScore": -16,
            "oppTrialScore": 16,
            "playerTotalScore": -401,
            "oppTotalScore": 343,
            "waitTime": 6757.842874332991,
            "responseTime": 1681053292415,
            "catchQuestion": "How many <b class=\"r\">red<\/b> marbles did your opponent report drawing? ",
            "catchKey": -1,
            "catchResponse": -1,
            "catchTime": 1681053266268,
            "trialTime": 0
        },
        {
            "exptPart": "trial",
            "trialNumber": 32,
            "roleCurrent": "receiver",
            "marblesSampled": 100,
            "probRed": 0.5,
            "practiceLambda": 5,
            "trialLambda": 21.9,
            "instructedLambda": "honest",
            "drawnRed": 51,
            "reportedRed": 75,
            "inferredRed": 75,
            "playerTrialScore": -24,
            "oppTrialScore": 24,
            "playerTotalScore": -425,
            "oppTotalScore": 367,
            "waitTime": 5292.743742159562,
            "responseTime": 1681053300518,
            "catchQuestion": "How many <b class=\"r\">red<\/b> marbles did your opponent report drawing? ",
            "catchKey": -1,
            "catchResponse": -1,
            "catchTime": 1681053266268,
            "trialTime": 0
        },
        {
            "exptPart": "trial",
            "trialNumber": 33,
            "roleCurrent": "receiver",
            "marblesSampled": 100,
            "probRed": 0.5,
            "practiceLambda": 5,
            "trialLambda": 21.9,
            "instructedLambda": "honest",
            "drawnRed": 73,
            "reportedRed": 98,
            "inferredRed": 98,
            "playerTrialScore": -25,
            "oppTrialScore": 25,
            "playerTotalScore": -450,
            "oppTotalScore": 392,
            "waitTime": 5469.1288798424375,
            "responseTime": 1681053309766,
            "catchQuestion": "How many <b class=\"r\">red<\/b> marbles did your opponent report drawing? ",
            "catchKey": -1,
            "catchResponse": -1,
            "catchTime": 1681053266268,
            "trialTime": 0
        },
        {
            "exptPart": "trial",
            "trialNumber": 34,
            "roleCurrent": "receiver",
            "marblesSampled": 100,
            "probRed": 0.5,
            "practiceLambda": 5,
            "trialLambda": 21.9,
            "instructedLambda": "honest",
            "drawnRed": 49,
            "reportedRed": 67,
            "inferredRed": 67,
            "playerTrialScore": -18,
            "oppTrialScore": 18,
            "playerTotalScore": -468,
            "oppTotalScore": 410,
            "waitTime": 6696.69991752938,
            "responseTime": 1681053320536,
            "catchQuestion": "How many <b class=\"r\">red<\/b> marbles did your opponent report drawing? ",
            "catchKey": -1,
            "catchResponse": -1,
            "catchTime": 1681053266268,
            "trialTime": 0
        },
        {
            "exptPart": "trial",
            "trialNumber": 35,
            "roleCurrent": "receiver",
            "marblesSampled": 100,
            "probRed": 0.5,
            "practiceLambda": 5,
            "trialLambda": 21.9,
            "instructedLambda": "honest",
            "drawnRed": 45,
            "reportedRed": 67,
            "inferredRed": 67,
            "playerTrialScore": -22,
            "oppTrialScore": 22,
            "playerTotalScore": -490,
            "oppTotalScore": 432,
            "waitTime": 7499.463413133227,
            "responseTime": 1681053331102,
            "catchQuestion": "How many <b class=\"r\">red<\/b> marbles did your opponent report drawing? ",
            "catchKey": -1,
            "catchResponse": -1,
            "catchTime": 1681053266268,
            "trialTime": 0
        },
        {
            "exptPart": "trial",
            "trialNumber": 36,
            "roleCurrent": "receiver",
            "marblesSampled": 100,
            "probRed": 0.5,
            "practiceLambda": 5,
            "trialLambda": 21.9,
            "instructedLambda": "honest",
            "drawnRed": 78,
            "reportedRed": 100,
            "inferredRed": 100,
            "playerTrialScore": -22,
            "oppTrialScore": 22,
            "playerTotalScore": -512,
            "oppTotalScore": 454,
            "waitTime": 6137.4656812872745,
            "responseTime": 1681053339985,
            "catchQuestion": "How many <b class=\"r\">red<\/b> marbles did your opponent report drawing? ",
            "catchKey": -1,
            "catchResponse": -1,
            "catchTime": 1681053266268,
            "trialTime": 0
        },
        {
            "exptPart": "trial",
            "trialNumber": 37,
            "roleCurrent": "receiver",
            "marblesSampled": 100,
            "probRed": 0.5,
            "practiceLambda": 5,
            "trialLambda": 21.9,
            "instructedLambda": "honest",
            "drawnRed": 71,
            "reportedRed": 90,
            "inferredRed": 90,
            "playerTrialScore": -19,
            "oppTrialScore": 19,
            "playerTotalScore": -531,
            "oppTotalScore": 473,
            "waitTime": 6131.245805940515,
            "responseTime": 1681053349017,
            "catchQuestion": "How many <b class=\"r\">red<\/b> marbles did your opponent report drawing? ",
            "catchKey": -1,
            "catchResponse": -1,
            "catchTime": 1681053266268,
            "trialTime": 0
        },
        {
            "exptPart": "trial",
            "trialNumber": 38,
            "roleCurrent": "receiver",
            "marblesSampled": 100,
            "probRed": 0.5,
            "practiceLambda": 5,
            "trialLambda": 21.9,
            "instructedLambda": "honest",
            "drawnRed": 17,
            "reportedRed": 43,
            "inferredRed": 43,
            "playerTrialScore": -26,
            "oppTrialScore": 26,
            "playerTotalScore": -557,
            "oppTotalScore": 499,
            "waitTime": 5381.554519635212,
            "responseTime": 1681053357000,
            "catchQuestion": "How many <b class=\"r\">red<\/b> marbles did your opponent report drawing? ",
            "catchKey": -1,
            "catchResponse": -1,
            "catchTime": 1681053266268,
            "trialTime": 0
        },
        {
            "exptPart": "trial",
            "trialNumber": 39,
            "roleCurrent": "receiver",
            "marblesSampled": 100,
            "probRed": 0.5,
            "practiceLambda": 5,
            "trialLambda": 21.9,
            "instructedLambda": "honest",
            "drawnRed": 75,
            "reportedRed": 99,
            "inferredRed": 99,
            "playerTrialScore": -24,
            "oppTrialScore": 24,
            "playerTotalScore": -581,
            "oppTotalScore": 523,
            "waitTime": 6314.439401165191,
            "responseTime": 1681053366584,
            "catchQuestion": "How many <b class=\"r\">red<\/b> marbles did your opponent report drawing? ",
            "catchKey": 99,
            "catchResponse": 99,
            "catchTime": 1681053366584,
            "trialTime": 0
        },
        {
            "exptPart": "trial",
            "trialNumber": 40,
            "roleCurrent": "receiver",
            "marblesSampled": 100,
            "probRed": 0.5,
            "practiceLambda": 5,
            "trialLambda": 21.9,
            "instructedLambda": "honest",
            "drawnRed": 73,
            "reportedRed": 92,
            "inferredRed": 92,
            "playerTrialScore": -19,
            "oppTrialScore": 19,
            "playerTotalScore": -600,
            "oppTotalScore": 542,
            "waitTime": 6961.819935600217,
            "responseTime": 1681053384122,
            "catchQuestion": "How many <b class=\"r\">red<\/b> marbles did your opponent report drawing? ",
            "catchKey": -1,
            "catchResponse": -1,
            "catchTime": 1681053384122,
            "trialTime": 0
        },
        {
            "exptPart": "trial",
            "trialNumber": 41,
            "roleCurrent": "receiver",
            "marblesSampled": 100,
            "probRed": 0.5,
            "practiceLambda": 5,
            "trialLambda": 21.9,
            "instructedLambda": "honest",
            "drawnRed": 65,
            "reportedRed": 92,
            "inferredRed": 62,
            "playerTrialScore": -3,
            "oppTrialScore": 0,
            "playerTotalScore": -603,
            "oppTotalScore": 542,
            "waitTime": 5445.555873284253,
            "responseTime": 1681062648838,
            "catchQuestion": "How many <b class=\"r\">red<\/b> marbles did your opponent report drawing? ",
            "catchKey": -1,
            "catchResponse": -1,
            "catchTime": 1681053384122,
            "trialTime": 0
        },
        {
            "exptPart": "trial",
            "trialNumber": 42,
            "roleCurrent": "receiver",
            "marblesSampled": 100,
            "probRed": 0.5,
            "practiceLambda": 5,
            "trialLambda": 21.9,
            "instructedLambda": "honest",
            "drawnRed": 50,
            "reportedRed": 71,
            "inferredRed": 50,
            "playerTrialScore": 0,
            "oppTrialScore": 0,
            "playerTotalScore": -603,
            "oppTotalScore": 542,
            "waitTime": 7325.575655198261,
            "responseTime": 1681062659439,
            "catchQuestion": "How many <b class=\"r\">red<\/b> marbles did your opponent report drawing? ",
            "catchKey": -1,
            "catchResponse": -1,
            "catchTime": 1681053384122,
            "trialTime": 0
        },
        {
            "exptPart": "trial",
            "trialNumber": 43,
            "roleCurrent": "receiver",
            "marblesSampled": 100,
            "probRed": 0.5,
            "practiceLambda": 5,
            "trialLambda": 21.9,
            "instructedLambda": "honest",
            "drawnRed": 73,
            "reportedRed": 92,
            "inferredRed": 87,
            "playerTrialScore": -14,
            "oppTrialScore": 14,
            "playerTotalScore": -617,
            "oppTotalScore": 556,
            "waitTime": 7453.044663190661,
            "responseTime": 1681062684288,
            "catchQuestion": "How many <b class=\"r\">red<\/b> marbles did your opponent report drawing? ",
            "catchKey": -1,
            "catchResponse": -1,
            "catchTime": 1681053384122,
            "trialTime": 0
        },
        {
            "exptPart": "trial",
            "trialNumber": 44,
            "roleCurrent": "receiver",
            "marblesSampled": 100,
            "probRed": 0.5,
            "practiceLambda": 5,
            "trialLambda": 21.9,
            "instructedLambda": "honest",
            "drawnRed": 67,
            "reportedRed": 84,
            "inferredRed": 79,
            "playerTrialScore": -12,
            "oppTrialScore": 12,
            "playerTotalScore": -629,
            "oppTotalScore": 568,
            "waitTime": 6216.828285160911,
            "responseTime": 1681062704869,
            "catchQuestion": "How many <b class=\"r\">red<\/b> marbles did your opponent report drawing? ",
            "catchKey": -1,
            "catchResponse": -1,
            "catchTime": 1681053384122,
            "trialTime": 0
        },
        {
            "exptPart": "trial",
            "trialNumber": 45,
            "roleCurrent": "receiver",
            "marblesSampled": 100,
            "probRed": 0.5,
            "practiceLambda": 5,
            "trialLambda": 21.9,
            "instructedLambda": "honest",
            "drawnRed": 66,
            "reportedRed": 83,
            "inferredRed": 84,
            "playerTrialScore": -18,
            "oppTrialScore": 18,
            "playerTotalScore": -647,
            "oppTotalScore": 586,
            "waitTime": 5543.79318131613,
            "responseTime": 1681062719219,
            "catchQuestion": "How many <b class=\"r\">red<\/b> marbles did your opponent report drawing? ",
            "catchKey": -1,
            "catchResponse": -1,
            "catchTime": 1681053384122,
            "trialTime": 0
        },
        {
            "exptPart": "trial",
            "trialNumber": 46,
            "roleCurrent": "receiver",
            "marblesSampled": 100,
            "probRed": 0.5,
            "practiceLambda": 5,
            "trialLambda": 21.9,
            "instructedLambda": "honest",
            "drawnRed": 69,
            "reportedRed": 87,
            "inferredRed": 85,
            "playerTrialScore": -16,
            "oppTrialScore": 16,
            "playerTotalScore": -663,
            "oppTotalScore": 602,
            "waitTime": 6519.858591475688,
            "responseTime": 1681062754935,
            "catchQuestion": "How many <b class=\"r\">red<\/b> marbles did your opponent report drawing? ",
            "catchKey": -1,
            "catchResponse": -1,
            "catchTime": 1681053384122,
            "trialTime": 0
        },
        {
            "exptPart": "trial",
            "trialNumber": 47,
            "roleCurrent": "receiver",
            "marblesSampled": 100,
            "probRed": 0.5,
            "practiceLambda": 5,
            "trialLambda": 21.9,
            "instructedLambda": "honest",
            "drawnRed": 49,
            "reportedRed": 65,
            "inferredRed": 58,
            "playerTrialScore": -9,
            "oppTrialScore": 9,
            "playerTotalScore": -672,
            "oppTotalScore": 611,
            "waitTime": 7366.855791232359,
            "responseTime": 1681062771421,
            "catchQuestion": "How many <b class=\"r\">red<\/b> marbles did your opponent report drawing? ",
            "catchKey": -1,
            "catchResponse": -1,
            "catchTime": 1681053384122,
            "trialTime": 0
        },
        {
            "exptPart": "trial",
            "trialNumber": 48,
            "roleCurrent": "receiver",
            "marblesSampled": 100,
            "probRed": 0.5,
            "practiceLambda": 5,
            "trialLambda": 21.9,
            "instructedLambda": "honest",
            "drawnRed": 64,
            "reportedRed": 79,
            "inferredRed": 75,
            "playerTrialScore": -11,
            "oppTrialScore": 11,
            "playerTotalScore": -683,
            "oppTotalScore": 622,
            "waitTime": 5517.08634616963,
            "responseTime": 1681062795803,
            "catchQuestion": "How many <b class=\"r\">red<\/b> marbles did your opponent report drawing? ",
            "catchKey": -1,
            "catchResponse": -1,
            "catchTime": 1681053384122,
            "trialTime": 0
        },
        {
            "exptPart": "trial",
            "trialNumber": 49,
            "roleCurrent": "receiver",
            "marblesSampled": 100,
            "probRed": 0.5,
            "practiceLambda": 5,
            "trialLambda": 21.9,
            "instructedLambda": "honest",
            "drawnRed": 50,
            "reportedRed": 66,
            "inferredRed": 62,
            "playerTrialScore": -12,
            "oppTrialScore": 12,
            "playerTotalScore": -695,
            "oppTotalScore": 634,
            "waitTime": 5720.346918280909,
            "responseTime": 1681062810053,
            "catchQuestion": "How many <b class=\"r\">red<\/b> marbles did your opponent report drawing? ",
            "catchKey": -1,
            "catchResponse": -1,
            "catchTime": 1681053384122,
            "trialTime": 0
        },
        {
            "exptPart": "trial",
            "trialNumber": 50,
            "roleCurrent": "receiver",
            "marblesSampled": 100,
            "probRed": 0.5,
            "practiceLambda": 5,
            "trialLambda": 21.9,
            "instructedLambda": "honest",
            "drawnRed": 33,
            "reportedRed": 63,
            "inferredRed": 60,
            "playerTrialScore": -27,
            "oppTrialScore": 27,
            "playerTotalScore": -722,
            "oppTotalScore": 661,
            "waitTime": 5319.322160280384,
            "responseTime": 1681062819337,
            "catchQuestion": "How many <b class=\"r\">red<\/b> marbles did your opponent report drawing? ",
            "catchKey": -1,
            "catchResponse": -1,
            "catchTime": 1681062819337,
            "trialTime": 0
        },
        {
            "exptPart": "trial",
            "trialNumber": 51,
            "roleCurrent": "receiver",
            "marblesSampled": 100,
            "probRed": 0.5,
            "practiceLambda": 5,
            "trialLambda": 21.9,
            "instructedLambda": "honest",
            "drawnRed": 52,
            "reportedRed": 67,
            "inferredRed": 60,
            "playerTrialScore": -8,
            "oppTrialScore": 8,
            "playerTotalScore": -730,
            "oppTotalScore": 669,
            "waitTime": 6095.403809017391,
            "responseTime": 1681062843032,
            "catchQuestion": "How many <b class=\"r\">red<\/b> marbles did your opponent report drawing? ",
            "catchKey": -1,
            "catchResponse": -1,
            "catchTime": 1681062819337,
            "trialTime": 0
        },
        {
            "exptPart": "trial",
            "trialNumber": 52,
            "roleCurrent": "receiver",
            "marblesSampled": 100,
            "probRed": 0.5,
            "practiceLambda": 5,
            "trialLambda": 21.9,
            "instructedLambda": "honest",
            "drawnRed": 40,
            "reportedRed": 57,
            "inferredRed": 57,
            "playerTrialScore": -17,
            "oppTrialScore": 17,
            "playerTotalScore": -747,
            "oppTotalScore": 686,
            "waitTime": 6996.666855020849,
            "responseTime": 1681062865154,
            "catchQuestion": "How many <b class=\"r\">red<\/b> marbles did your opponent report drawing? ",
            "catchKey": -1,
            "catchResponse": -1,
            "catchTime": 1681062819337,
            "trialTime": 0
        },
        {
            "exptPart": "trial",
            "trialNumber": 53,
            "roleCurrent": "receiver",
            "marblesSampled": 100,
            "probRed": 0.5,
            "practiceLambda": 5,
            "trialLambda": 21.9,
            "instructedLambda": "honest",
            "drawnRed": 45,
            "reportedRed": 65,
            "inferredRed": 60,
            "playerTrialScore": -15,
            "oppTrialScore": 15,
            "playerTotalScore": -762,
            "oppTotalScore": 701,
            "waitTime": 5609.761983131451,
            "responseTime": 1681062876851,
            "catchQuestion": "How many <b class=\"r\">red<\/b> marbles did your opponent report drawing? ",
            "catchKey": -1,
            "catchResponse": -1,
            "catchTime": 1681062819337,
            "trialTime": 0
        },
        {
            "exptPart": "trial",
            "trialNumber": 54,
            "roleCurrent": "receiver",
            "marblesSampled": 100,
            "probRed": 0.5,
            "practiceLambda": 5,
            "trialLambda": 21.9,
            "instructedLambda": "honest",
            "drawnRed": 61,
            "reportedRed": 80,
            "inferredRed": 80,
            "playerTrialScore": -19,
            "oppTrialScore": 19,
            "playerTotalScore": -781,
            "oppTotalScore": 720,
            "waitTime": 6880.697094020862,
            "responseTime": 1681062889633,
            "catchQuestion": "How many <b class=\"r\">red<\/b> marbles did your opponent report drawing? ",
            "catchKey": -1,
            "catchResponse": -1,
            "catchTime": 1681062819337,
            "trialTime": 0
        },
        {
            "exptPart": "trial",
            "trialNumber": 55,
            "roleCurrent": "receiver",
            "marblesSampled": 100,
            "probRed": 0.5,
            "practiceLambda": 5,
            "trialLambda": 21.9,
            "instructedLambda": "honest",
            "drawnRed": 62,
            "reportedRed": 82,
            "inferredRed": 80,
            "playerTrialScore": -18,
            "oppTrialScore": 18,
            "playerTotalScore": -799,
            "oppTotalScore": 738,
            "waitTime": 7493.374753815064,
            "responseTime": 1681062905150,
            "catchQuestion": "How many <b class=\"r\">red<\/b> marbles did your opponent report drawing? ",
            "catchKey": -1,
            "catchResponse": -1,
            "catchTime": 1681062819337,
            "trialTime": 0
        },
        {
            "exptPart": "trial",
            "trialNumber": 56,
            "roleCurrent": "receiver",
            "marblesSampled": 100,
            "probRed": 0.5,
            "practiceLambda": 5,
            "trialLambda": 21.9,
            "instructedLambda": "honest",
            "drawnRed": 16,
            "reportedRed": 40,
            "inferredRed": 40,
            "playerTrialScore": -24,
            "oppTrialScore": 24,
            "playerTotalScore": -823,
            "oppTotalScore": 762,
            "waitTime": 7429.104158462093,
            "responseTime": 1681062919099,
            "catchQuestion": "How many <b class=\"r\">red<\/b> marbles did your opponent report drawing? ",
            "catchKey": -1,
            "catchResponse": -1,
            "catchTime": 1681062819337,
            "trialTime": 0
        },
        {
            "exptPart": "trial",
            "trialNumber": 57,
            "roleCurrent": "receiver",
            "marblesSampled": 100,
            "probRed": 0.5,
            "practiceLambda": 5,
            "trialLambda": 21.9,
            "instructedLambda": "honest",
            "drawnRed": 16,
            "reportedRed": 39,
            "inferredRed": 49,
            "playerTrialScore": -33,
            "oppTrialScore": 33,
            "playerTotalScore": -856,
            "oppTotalScore": 795,
            "waitTime": 5860.2107990089335,
            "responseTime": 1681062935876,
            "catchQuestion": "How many <b class=\"r\">red<\/b> marbles did your opponent report drawing? ",
            "catchKey": -1,
            "catchResponse": -1,
            "catchTime": 1681062819337,
            "trialTime": 0
        },
        {
            "exptPart": "trial",
            "trialNumber": 58,
            "roleCurrent": "receiver",
            "marblesSampled": 100,
            "probRed": 0.5,
            "practiceLambda": 5,
            "trialLambda": 21.9,
            "instructedLambda": "honest",
            "drawnRed": 17,
            "reportedRed": 33,
            "inferredRed": 45,
            "playerTrialScore": -28,
            "oppTrialScore": 28,
            "playerTotalScore": -884,
            "oppTotalScore": 823,
            "waitTime": 6808.449523488243,
            "responseTime": 1681062951149,
            "catchQuestion": "How many <b class=\"r\">red<\/b> marbles did your opponent report drawing? ",
            "catchKey": 33,
            "catchResponse": 38,
            "catchTime": 1681062951149,
            "trialTime": 0
        },
        {
            "exptPart": "trial",
            "trialNumber": 59,
            "roleCurrent": "receiver",
            "marblesSampled": 100,
            "probRed": 0.5,
            "practiceLambda": 5,
            "trialLambda": 21.9,
            "instructedLambda": "honest",
            "drawnRed": 16,
            "reportedRed": 33,
            "inferredRed": 45,
            "playerTrialScore": -29,
            "oppTrialScore": 29,
            "playerTotalScore": -913,
            "oppTotalScore": 852,
            "waitTime": 5194.500604812012,
            "responseTime": 1681062977549,
            "catchQuestion": "How many <b class=\"r\">red<\/b> marbles did your opponent report drawing? ",
            "catchKey": -1,
            "catchResponse": -1,
            "catchTime": 1681062951149,
            "trialTime": 0
        },
        {
            "exptPart": "trial",
            "trialNumber": 60,
            "roleCurrent": "receiver",
            "marblesSampled": 100,
            "probRed": 0.5,
            "practiceLambda": 5,
            "trialLambda": 21.9,
            "instructedLambda": "honest",
            "drawnRed": 48,
            "reportedRed": 67,
            "inferredRed": 75,
            "playerTrialScore": -27,
            "oppTrialScore": 27,
            "playerTotalScore": -940,
            "oppTotalScore": 879,
            "waitTime": 6916.206852422016,
            "responseTime": 1681062995034,
            "catchQuestion": "How many <b class=\"r\">red<\/b> marbles did your opponent report drawing? ",
            "catchKey": 67,
            "catchResponse": 67,
            "catchTime": 1681062995034,
            "trialTime": 0
        },
        {
            "exptPart": "trial",
            "trialNumber": 61,
            "roleCurrent": "receiver",
            "marblesSampled": 100,
            "probRed": 0.5,
            "practiceLambda": 5,
            "trialLambda": 21.9,
            "instructedLambda": "honest",
            "drawnRed": 66,
            "reportedRed": 90,
            "inferredRed": 96,
            "playerTrialScore": -30,
            "oppTrialScore": 30,
            "playerTotalScore": -970,
            "oppTotalScore": 909,
            "waitTime": 7041.622880663168,
            "responseTime": 1681063028815,
            "catchQuestion": "How many <b class=\"r\">red<\/b> marbles did your opponent report drawing? ",
            "catchKey": -1,
            "catchResponse": -1,
            "catchTime": 1681062995034,
            "trialTime": 0
        },
        {
            "exptPart": "trial",
            "trialNumber": 62,
            "roleCurrent": "receiver",
            "marblesSampled": 100,
            "probRed": 0.5,
            "practiceLambda": 5,
            "trialLambda": 21.9,
            "instructedLambda": "honest",
            "drawnRed": 43,
            "reportedRed": 63,
            "inferredRed": 75,
            "playerTrialScore": -32,
            "oppTrialScore": 32,
            "playerTotalScore": -1002,
            "oppTotalScore": 941,
            "waitTime": 5267.926376342462,
            "responseTime": 1681063041885,
            "catchQuestion": "How many <b class=\"r\">red<\/b> marbles did your opponent report drawing? ",
            "catchKey": -1,
            "catchResponse": -1,
            "catchTime": 1681062995034,
            "trialTime": 0
        },
        {
            "exptPart": "trial",
            "trialNumber": 63,
            "roleCurrent": "receiver",
            "marblesSampled": 100,
            "probRed": 0.5,
            "practiceLambda": 5,
            "trialLambda": 21.9,
            "instructedLambda": "honest",
            "drawnRed": 25,
            "reportedRed": 39,
            "inferredRed": 48,
            "playerTrialScore": -23,
            "oppTrialScore": 23,
            "playerTotalScore": -1025,
            "oppTotalScore": 964,
            "waitTime": 5362.415225988359,
            "responseTime": 1681063052849,
            "catchQuestion": "How many <b class=\"r\">red<\/b> marbles did your opponent report drawing? ",
            "catchKey": -1,
            "catchResponse": -1,
            "catchTime": 1681062995034,
            "trialTime": 0
        },
        {
            "exptPart": "trial",
            "trialNumber": 64,
            "roleCurrent": "receiver",
            "marblesSampled": 100,
            "probRed": 0.5,
            "practiceLambda": 5,
            "trialLambda": 21.9,
            "instructedLambda": "honest",
            "drawnRed": 60,
            "reportedRed": 84,
            "inferredRed": 85,
            "playerTrialScore": -25,
            "oppTrialScore": 25,
            "playerTotalScore": -1050,
            "oppTotalScore": 989,
            "waitTime": 6684.401183199692,
            "responseTime": 1681063065911,
            "catchQuestion": "How many <b class=\"r\">red<\/b> marbles did your opponent report drawing? ",
            "catchKey": -1,
            "catchResponse": -1,
            "catchTime": 1681062995034,
            "trialTime": 0
        },
        {
            "exptPart": "trial",
            "trialNumber": 65,
            "roleCurrent": "receiver",
            "marblesSampled": 100,
            "probRed": 0.5,
            "practiceLambda": 5,
            "trialLambda": 21.9,
            "instructedLambda": "honest",
            "drawnRed": 64,
            "reportedRed": 87,
            "inferredRed": 91,
            "playerTrialScore": -27,
            "oppTrialScore": 27,
            "playerTotalScore": -1077,
            "oppTotalScore": 1016,
            "waitTime": 6530.964105346215,
            "responseTime": 1681063077881,
            "catchQuestion": "How many <b class=\"r\">red<\/b> marbles did your opponent report drawing? ",
            "catchKey": 87,
            "catchResponse": 87,
            "catchTime": 1681063077881,
            "trialTime": 0
        },
        {
            "exptPart": "trial",
            "trialNumber": 66,
            "roleCurrent": "receiver",
            "marblesSampled": 100,
            "probRed": 0.5,
            "practiceLambda": 5,
            "trialLambda": 21.9,
            "instructedLambda": "honest",
            "drawnRed": 67,
            "reportedRed": 90,
            "inferredRed": 93,
            "playerTrialScore": -26,
            "oppTrialScore": 26,
            "playerTotalScore": -1103,
            "oppTotalScore": 1042,
            "waitTime": 5941.845344915142,
            "responseTime": 1681063097750,
            "catchQuestion": "How many <b class=\"r\">red<\/b> marbles did your opponent report drawing? ",
            "catchKey": -1,
            "catchResponse": -1,
            "catchTime": 1681063077881,
            "trialTime": 0
        },
        {
            "exptPart": "trial",
            "trialNumber": 67,
            "roleCurrent": "receiver",
            "marblesSampled": 100,
            "probRed": 0.5,
            "practiceLambda": 5,
            "trialLambda": 21.9,
            "instructedLambda": "honest",
            "drawnRed": 16,
            "reportedRed": 39,
            "inferredRed": 45,
            "playerTrialScore": -29,
            "oppTrialScore": 29,
            "playerTotalScore": -1132,
            "oppTotalScore": 1071,
            "waitTime": 5518.398040581986,
            "responseTime": 1681063107599,
            "catchQuestion": "How many <b class=\"r\">red<\/b> marbles did your opponent report drawing? ",
            "catchKey": -1,
            "catchResponse": -1,
            "catchTime": 1681063077881,
            "trialTime": 0
        },
        {
            "exptPart": "trial",
            "trialNumber": 68,
            "roleCurrent": "receiver",
            "marblesSampled": 100,
            "probRed": 0.5,
            "practiceLambda": 5,
            "trialLambda": 21.9,
            "instructedLambda": "honest",
            "drawnRed": 18,
            "reportedRed": 38,
            "inferredRed": 47,
            "playerTrialScore": -29,
            "oppTrialScore": 29,
            "playerTotalScore": -1161,
            "oppTotalScore": 1100,
            "waitTime": 6737.690316771289,
            "responseTime": 1681063118331,
            "catchQuestion": "How many <b class=\"r\">red<\/b> marbles did your opponent report drawing? ",
            "catchKey": -1,
            "catchResponse": -1,
            "catchTime": 1681063077881,
            "trialTime": 0
        },
        {
            "exptPart": "trial",
            "trialNumber": 69,
            "roleCurrent": "receiver",
            "marblesSampled": 100,
            "probRed": 0.5,
            "practiceLambda": 5,
            "trialLambda": 21.9,
            "instructedLambda": "honest",
            "drawnRed": 52,
            "reportedRed": 76,
            "inferredRed": 78,
            "playerTrialScore": -26,
            "oppTrialScore": 26,
            "playerTotalScore": -1187,
            "oppTotalScore": 1126,
            "waitTime": 7101.942355868635,
            "responseTime": 1681063129897,
            "catchQuestion": "How many <b class=\"r\">red<\/b> marbles did your opponent report drawing? ",
            "catchKey": -1,
            "catchResponse": -1,
            "catchTime": 1681063077881,
            "trialTime": 0
        },
        {
            "exptPart": "trial",
            "trialNumber": 70,
            "roleCurrent": "receiver",
            "marblesSampled": 100,
            "probRed": 0.5,
            "practiceLambda": 5,
            "trialLambda": 21.9,
            "instructedLambda": "honest",
            "drawnRed": 44,
            "reportedRed": 65,
            "inferredRed": 69,
            "playerTrialScore": -25,
            "oppTrialScore": 25,
            "playerTotalScore": -1212,
            "oppTotalScore": 1151,
            "waitTime": 6486.339257125725,
            "responseTime": 1681063144048,
            "catchQuestion": "How many <b class=\"r\">red<\/b> marbles did your opponent report drawing? ",
            "catchKey": -1,
            "catchResponse": -1,
            "catchTime": 1681063144048,
            "trialTime": 0
        },
        {
            "exptPart": "trial",
            "trialNumber": 71,
            "roleCurrent": "receiver",
            "marblesSampled": 100,
            "probRed": 0.5,
            "practiceLambda": 5,
            "trialLambda": 21.9,
            "instructedLambda": "honest",
            "drawnRed": 75,
            "reportedRed": 92,
            "inferredRed": 95,
            "playerTrialScore": -20,
            "oppTrialScore": 20,
            "playerTotalScore": -1232,
            "oppTotalScore": 1171,
            "waitTime": 7358.740524714543,
            "responseTime": 1681063159698,
            "catchQuestion": "How many <b class=\"r\">red<\/b> marbles did your opponent report drawing? ",
            "catchKey": -1,
            "catchResponse": -1,
            "catchTime": 1681063144048,
            "trialTime": 0
        },
        {
            "exptPart": "trial",
            "trialNumber": 72,
            "roleCurrent": "receiver",
            "marblesSampled": 100,
            "probRed": 0.5,
            "practiceLambda": 5,
            "trialLambda": 21.9,
            "instructedLambda": "honest",
            "drawnRed": 64,
            "reportedRed": 78,
            "inferredRed": 84,
            "playerTrialScore": -20,
            "oppTrialScore": 20,
            "playerTotalScore": -1252,
            "oppTotalScore": 1191,
            "waitTime": 6222.427262033541,
            "responseTime": 1681063170497,
            "catchQuestion": "How many <b class=\"r\">red<\/b> marbles did your opponent report drawing? ",
            "catchKey": -1,
            "catchResponse": -1,
            "catchTime": 1681063144048,
            "trialTime": 0
        },
        {
            "exptPart": "trial",
            "trialNumber": 73,
            "roleCurrent": "receiver",
            "marblesSampled": 100,
            "probRed": 0.5,
            "practiceLambda": 5,
            "trialLambda": 21.9,
            "instructedLambda": "honest",
            "drawnRed": 73,
            "reportedRed": 91,
            "inferredRed": 96,
            "playerTrialScore": -23,
            "oppTrialScore": 23,
            "playerTotalScore": -1275,
            "oppTotalScore": 1214,
            "waitTime": 5606.4368209591885,
            "responseTime": 1681063184563,
            "catchQuestion": "How many <b class=\"r\">red<\/b> marbles did your opponent report drawing? ",
            "catchKey": -1,
            "catchResponse": -1,
            "catchTime": 1681063144048,
            "trialTime": 0
        },
        {
            "exptPart": "trial",
            "trialNumber": 74,
            "roleCurrent": "receiver",
            "marblesSampled": 100,
            "probRed": 0.5,
            "practiceLambda": 5,
            "trialLambda": 21.9,
            "instructedLambda": "honest",
            "drawnRed": 18,
            "reportedRed": 41,
            "inferredRed": 50,
            "playerTrialScore": -32,
            "oppTrialScore": 32,
            "playerTotalScore": -1307,
            "oppTotalScore": 1246,
            "waitTime": 6337.231328412381,
            "responseTime": 1681063196931,
            "catchQuestion": "How many <b class=\"r\">red<\/b> marbles did your opponent report drawing? ",
            "catchKey": -1,
            "catchResponse": -1,
            "catchTime": 1681063144048,
            "trialTime": 0
        },
        {
            "exptPart": "trial",
            "trialNumber": 75,
            "roleCurrent": "receiver",
            "marblesSampled": 100,
            "probRed": 0.5,
            "practiceLambda": 5,
            "trialLambda": 21.9,
            "instructedLambda": "honest",
            "drawnRed": 17,
            "reportedRed": 49,
            "inferredRed": 54,
            "playerTrialScore": -37,
            "oppTrialScore": 37,
            "playerTotalScore": -1344,
            "oppTotalScore": 1283,
            "waitTime": 6067.189575679474,
            "responseTime": 1681063208653,
            "catchQuestion": "How many <b class=\"r\">red<\/b> marbles did your opponent report drawing? ",
            "catchKey": -1,
            "catchResponse": -1,
            "catchTime": 1681063144048,
            "trialTime": 0
        },
        {
            "exptPart": "trial",
            "trialNumber": 76,
            "roleCurrent": "receiver",
            "marblesSampled": 100,
            "probRed": 0.5,
            "practiceLambda": 5,
            "trialLambda": 21.9,
            "instructedLambda": "honest",
            "drawnRed": 68,
            "reportedRed": 85,
            "inferredRed": 88,
            "playerTrialScore": -20,
            "oppTrialScore": 20,
            "playerTotalScore": -1364,
            "oppTotalScore": 1303,
            "waitTime": 5703.859439961941,
            "responseTime": 1681063218548,
            "catchQuestion": "How many <b class=\"r\">red<\/b> marbles did your opponent report drawing? ",
            "catchKey": -1,
            "catchResponse": -1,
            "catchTime": 1681063144048,
            "trialTime": 0
        },
        {
            "exptPart": "trial",
            "trialNumber": 77,
            "roleCurrent": "receiver",
            "marblesSampled": 100,
            "probRed": 0.5,
            "practiceLambda": 5,
            "trialLambda": 21.9,
            "instructedLambda": "honest",
            "drawnRed": 79,
            "reportedRed": 100,
            "inferredRed": 100,
            "playerTrialScore": -21,
            "oppTrialScore": 21,
            "playerTotalScore": -1385,
            "oppTotalScore": 1324,
            "waitTime": 5458.9219961447325,
            "responseTime": 1681063228998,
            "catchQuestion": "How many <b class=\"r\">red<\/b> marbles did your opponent report drawing? ",
            "catchKey": -1,
            "catchResponse": -1,
            "catchTime": 1681063144048,
            "trialTime": 0
        },
        {
            "exptPart": "trial",
            "trialNumber": 78,
            "roleCurrent": "receiver",
            "marblesSampled": 100,
            "probRed": 0.5,
            "practiceLambda": 5,
            "trialLambda": 21.9,
            "instructedLambda": "honest",
            "drawnRed": 33,
            "reportedRed": 55,
            "inferredRed": 60,
            "playerTrialScore": -27,
            "oppTrialScore": 27,
            "playerTotalScore": -1412,
            "oppTotalScore": 1351,
            "waitTime": 5590.229186551333,
            "responseTime": 1681063244948,
            "catchQuestion": "How many <b class=\"r\">red<\/b> marbles did your opponent report drawing? ",
            "catchKey": -1,
            "catchResponse": -1,
            "catchTime": 1681063144048,
            "trialTime": 0
        },
        {
            "exptPart": "trial",
            "trialNumber": 79,
            "roleCurrent": "receiver",
            "marblesSampled": 100,
            "probRed": 0.5,
            "practiceLambda": 5,
            "trialLambda": 21.9,
            "instructedLambda": "honest",
            "drawnRed": 53,
            "reportedRed": 74,
            "inferredRed": 79,
            "playerTrialScore": -26,
            "oppTrialScore": 26,
            "playerTotalScore": -1438,
            "oppTotalScore": 1377,
            "waitTime": 6274.666232055088,
            "responseTime": 1681063256347,
            "catchQuestion": "How many <b class=\"r\">red<\/b> marbles did your opponent report drawing? ",
            "catchKey": -1,
            "catchResponse": -1,
            "catchTime": 1681063144048,
            "trialTime": 0
        },
        {
            "exptPart": "trial",
            "trialNumber": 80,
            "roleCurrent": "receiver",
            "marblesSampled": 100,
            "probRed": 0.5,
            "practiceLambda": 5,
            "trialLambda": 21.9,
            "instructedLambda": "honest",
            "drawnRed": 12,
            "reportedRed": 28,
            "inferredRed": 34,
            "playerTrialScore": -22,
            "oppTrialScore": 22,
            "playerTotalScore": -1460,
            "oppTotalScore": 1399,
            "waitTime": 6896.948427548531,
            "responseTime": 1681063268597,
            "catchQuestion": "How many <b class=\"r\">red<\/b> marbles did your opponent report drawing? ",
            "catchKey": -1,
            "catchResponse": -1,
            "catchTime": 1681063268597,
            "trialTime": 0
        },
        {
            "exptPart": "trial",
            "trialNumber": 81,
            "roleCurrent": "receiver",
            "marblesSampled": 100,
            "probRed": 0.5,
            "practiceLambda": 5,
            "trialLambda": 21.9,
            "instructedLambda": "honest",
            "drawnRed": 9,
            "reportedRed": 29,
            "inferredRed": 40,
            "playerTrialScore": -31,
            "oppTrialScore": 31,
            "playerTotalScore": -1491,
            "oppTotalScore": 1430,
            "waitTime": 5932.5567361490475,
            "responseTime": 1681063290297,
            "catchQuestion": "How many <b class=\"r\">red<\/b> marbles did your opponent report drawing? ",
            "catchKey": -1,
            "catchResponse": -1,
            "catchTime": 1681063268597,
            "trialTime": 0
        },
        {
            "exptPart": "trial",
            "trialNumber": 82,
            "roleCurrent": "receiver",
            "marblesSampled": 100,
            "probRed": 0.5,
            "practiceLambda": 5,
            "trialLambda": 21.9,
            "instructedLambda": "honest",
            "drawnRed": 50,
            "reportedRed": 80,
            "inferredRed": 81,
            "playerTrialScore": -31,
            "oppTrialScore": 31,
            "playerTotalScore": -1522,
            "oppTotalScore": 1461,
            "waitTime": 5738.182382894551,
            "responseTime": 1681063300817,
            "catchQuestion": "How many <b class=\"r\">red<\/b> marbles did your opponent report drawing? ",
            "catchKey": -1,
            "catchResponse": -1,
            "catchTime": 1681063268597,
            "trialTime": 0
        },
        {
            "exptPart": "trial",
            "trialNumber": 83,
            "roleCurrent": "receiver",
            "marblesSampled": 100,
            "probRed": 0.5,
            "practiceLambda": 5,
            "trialLambda": 21.9,
            "instructedLambda": "honest",
            "drawnRed": 30,
            "reportedRed": 47,
            "inferredRed": 49,
            "playerTrialScore": -19,
            "oppTrialScore": 19,
            "playerTotalScore": -1541,
            "oppTotalScore": 1480,
            "waitTime": 5130.16988420234,
            "responseTime": 1681063313729,
            "catchQuestion": "How many <b class=\"r\">red<\/b> marbles did your opponent report drawing? ",
            "catchKey": -1,
            "catchResponse": -1,
            "catchTime": 1681063268597,
            "trialTime": 0
        },
        {
            "exptPart": "trial",
            "trialNumber": 84,
            "roleCurrent": "receiver",
            "marblesSampled": 100,
            "probRed": 0.5,
            "practiceLambda": 5,
            "trialLambda": 21.9,
            "instructedLambda": "honest",
            "drawnRed": 81,
            "reportedRed": 98,
            "inferredRed": 79,
            "playerTrialScore": -2,
            "oppTrialScore": 0,
            "playerTotalScore": -1543,
            "oppTotalScore": 1480,
            "waitTime": 6054.616307796385,
            "responseTime": 1681063348669,
            "catchQuestion": "How many <b class=\"r\">red<\/b> marbles did your opponent report drawing? ",
            "catchKey": -1,
            "catchResponse": -1,
            "catchTime": 1681063268597,
            "trialTime": 0
        },
        {
            "exptPart": "trial",
            "trialNumber": 85,
            "roleCurrent": "receiver",
            "marblesSampled": 100,
            "probRed": 0.5,
            "practiceLambda": 5,
            "trialLambda": 21.9,
            "instructedLambda": "honest",
            "drawnRed": 65,
            "reportedRed": 86,
            "inferredRed": 87,
            "playerTrialScore": -22,
            "oppTrialScore": 22,
            "playerTotalScore": -1565,
            "oppTotalScore": 1502,
            "waitTime": 6670.904652031506,
            "responseTime": 1681063362749,
            "catchQuestion": "How many <b class=\"r\">red<\/b> marbles did your opponent report drawing? ",
            "catchKey": -1,
            "catchResponse": -1,
            "catchTime": 1681063268597,
            "trialTime": 0
        },
        {
            "exptPart": "trial",
            "trialNumber": 86,
            "roleCurrent": "receiver",
            "marblesSampled": 100,
            "probRed": 0.5,
            "practiceLambda": 5,
            "trialLambda": 21.9,
            "instructedLambda": "honest",
            "drawnRed": 45,
            "reportedRed": 60,
            "inferredRed": 68,
            "playerTrialScore": -23,
            "oppTrialScore": 23,
            "playerTotalScore": -1588,
            "oppTotalScore": 1525,
            "waitTime": 6416.702648128652,
            "responseTime": 1681063377844,
            "catchQuestion": "How many <b class=\"r\">red<\/b> marbles did your opponent report drawing? ",
            "catchKey": -1,
            "catchResponse": -1,
            "catchTime": 1681063268597,
            "trialTime": 0
        },
        {
            "exptPart": "trial",
            "trialNumber": 87,
            "roleCurrent": "receiver",
            "marblesSampled": 100,
            "probRed": 0.5,
            "practiceLambda": 5,
            "trialLambda": 21.9,
            "instructedLambda": "honest",
            "drawnRed": 49,
            "reportedRed": 72,
            "inferredRed": 79,
            "playerTrialScore": -30,
            "oppTrialScore": 30,
            "playerTotalScore": -1618,
            "oppTotalScore": 1555,
            "waitTime": 5579.365482010315,
            "responseTime": 1681063388029,
            "catchQuestion": "How many <b class=\"r\">red<\/b> marbles did your opponent report drawing? ",
            "catchKey": -1,
            "catchResponse": -1,
            "catchTime": 1681063268597,
            "trialTime": 0
        },
        {
            "exptPart": "trial",
            "trialNumber": 88,
            "roleCurrent": "receiver",
            "marblesSampled": 100,
            "probRed": 0.5,
            "practiceLambda": 5,
            "trialLambda": 21.9,
            "instructedLambda": "honest",
            "drawnRed": 47,
            "reportedRed": 70,
            "inferredRed": 65,
            "playerTrialScore": -18,
            "oppTrialScore": 18,
            "playerTotalScore": -1636,
            "oppTotalScore": 1573,
            "waitTime": 5483.8721474816775,
            "responseTime": 1681063398327,
            "catchQuestion": "How many <b class=\"r\">red<\/b> marbles did your opponent report drawing? ",
            "catchKey": -1,
            "catchResponse": -1,
            "catchTime": 1681063268597,
            "trialTime": 0
        },
        {
            "exptPart": "trial",
            "trialNumber": 89,
            "roleCurrent": "receiver",
            "marblesSampled": 100,
            "probRed": 0.5,
            "practiceLambda": 5,
            "trialLambda": 21.9,
            "instructedLambda": "honest",
            "drawnRed": 63,
            "reportedRed": 86,
            "inferredRed": 85,
            "playerTrialScore": -22,
            "oppTrialScore": 22,
            "playerTotalScore": -1658,
            "oppTotalScore": 1595,
            "waitTime": 5141.14713611974,
            "responseTime": 1681063407144,
            "catchQuestion": "How many <b class=\"r\">red<\/b> marbles did your opponent report drawing? ",
            "catchKey": -1,
            "catchResponse": -1,
            "catchTime": 1681063268597,
            "trialTime": 0
        },
        {
            "exptPart": "trial",
            "trialNumber": 90,
            "roleCurrent": "receiver",
            "marblesSampled": 100,
            "probRed": 0.5,
            "practiceLambda": 5,
            "trialLambda": 21.9,
            "instructedLambda": "honest",
            "drawnRed": 58,
            "reportedRed": 76,
            "inferredRed": 80,
            "playerTrialScore": -22,
            "oppTrialScore": 22,
            "playerTotalScore": -1680,
            "oppTotalScore": 1617,
            "waitTime": 5663.566222309166,
            "responseTime": 1681063417328,
            "catchQuestion": "How many <b class=\"r\">red<\/b> marbles did your opponent report drawing? ",
            "catchKey": -1,
            "catchResponse": -1,
            "catchTime": 1681063417328,
            "trialTime": 0
        },
        {
            "exptPart": "trial",
            "trialNumber": 91,
            "roleCurrent": "receiver",
            "marblesSampled": 100,
            "probRed": 0.5,
            "practiceLambda": 5,
            "trialLambda": 21.9,
            "instructedLambda": "honest",
            "drawnRed": 68,
            "reportedRed": 95,
            "inferredRed": 90,
            "playerTrialScore": -22,
            "oppTrialScore": 22,
            "playerTotalScore": -1702,
            "oppTotalScore": 1639,
            "waitTime": 6256.250990848577,
            "responseTime": 1681063432377,
            "catchQuestion": "How many <b class=\"r\">red<\/b> marbles did your opponent report drawing? ",
            "catchKey": -1,
            "catchResponse": -1,
            "catchTime": 1681063417328,
            "trialTime": 0
        },
        {
            "exptPart": "trial",
            "trialNumber": 92,
            "roleCurrent": "receiver",
            "marblesSampled": 100,
            "probRed": 0.5,
            "practiceLambda": 5,
            "trialLambda": 21.9,
            "instructedLambda": "honest",
            "drawnRed": 64,
            "reportedRed": 86,
            "inferredRed": 40,
            "playerTrialScore": -24,
            "oppTrialScore": 0,
            "playerTotalScore": -1726,
            "oppTotalScore": 1639,
            "waitTime": 7414.798398909287,
            "responseTime": 1681063445594,
            "catchQuestion": "How many <b class=\"r\">red<\/b> marbles did your opponent report drawing? ",
            "catchKey": -1,
            "catchResponse": -1,
            "catchTime": 1681063417328,
            "trialTime": 0
        },
        {
            "exptPart": "trial",
            "trialNumber": 93,
            "roleCurrent": "receiver",
            "marblesSampled": 100,
            "probRed": 0.5,
            "practiceLambda": 5,
            "trialLambda": 21.9,
            "instructedLambda": "honest",
            "drawnRed": 93,
            "reportedRed": 100,
            "inferredRed": 89,
            "playerTrialScore": -4,
            "oppTrialScore": 0,
            "playerTotalScore": -1730,
            "oppTotalScore": 1639,
            "waitTime": 6873.809733233729,
            "responseTime": 1681063456911,
            "catchQuestion": "How many <b class=\"r\">red<\/b> marbles did your opponent report drawing? ",
            "catchKey": 100,
            "catchResponse": 100,
            "catchTime": 1681063456911,
            "trialTime": 0
        },
        {
            "exptPart": "trial",
            "trialNumber": 94,
            "roleCurrent": "receiver",
            "marblesSampled": 100,
            "probRed": 0.5,
            "practiceLambda": 5,
            "trialLambda": 21.9,
            "instructedLambda": "honest",
            "drawnRed": 95,
            "reportedRed": 100,
            "inferredRed": 100,
            "playerTrialScore": -5,
            "oppTrialScore": 5,
            "playerTotalScore": -1735,
            "oppTotalScore": 1644,
            "waitTime": 5155.462532851371,
            "responseTime": 1681063472345,
            "catchQuestion": "How many <b class=\"r\">red<\/b> marbles did your opponent report drawing? ",
            "catchKey": -1,
            "catchResponse": -1,
            "catchTime": 1681063456911,
            "trialTime": 0
        },
        {
            "exptPart": "trial",
            "trialNumber": 95,
            "roleCurrent": "receiver",
            "marblesSampled": 100,
            "probRed": 0.5,
            "practiceLambda": 5,
            "trialLambda": 21.9,
            "instructedLambda": "honest",
            "drawnRed": 60,
            "reportedRed": 77,
            "inferredRed": 74,
            "playerTrialScore": -14,
            "oppTrialScore": 14,
            "playerTotalScore": -1749,
            "oppTotalScore": 1658,
            "waitTime": 6204.059627371498,
            "responseTime": 1681063485211,
            "catchQuestion": "How many <b class=\"r\">red<\/b> marbles did your opponent report drawing? ",
            "catchKey": -1,
            "catchResponse": -1,
            "catchTime": 1681063456911,
            "trialTime": 0
        },
        {
            "exptPart": "trial",
            "trialNumber": 96,
            "roleCurrent": "receiver",
            "marblesSampled": 100,
            "probRed": 0.5,
            "practiceLambda": 5,
            "trialLambda": 21.9,
            "instructedLambda": "honest",
            "drawnRed": 20,
            "reportedRed": 33,
            "inferredRed": 29,
            "playerTrialScore": -9,
            "oppTrialScore": 9,
            "playerTotalScore": -1758,
            "oppTotalScore": 1667,
            "waitTime": 7280.379168931183,
            "responseTime": 1681063505562,
            "catchQuestion": "How many <b class=\"r\">red<\/b> marbles did your opponent report drawing? ",
            "catchKey": -1,
            "catchResponse": -1,
            "catchTime": 1681063456911,
            "trialTime": 0
        },
        {
            "exptPart": "trial",
            "trialNumber": 97,
            "roleCurrent": "receiver",
            "marblesSampled": 100,
            "probRed": 0.5,
            "practiceLambda": 5,
            "trialLambda": 21.9,
            "instructedLambda": "honest",
            "drawnRed": 85,
            "reportedRed": 100,
            "inferredRed": 98,
            "playerTrialScore": -13,
            "oppTrialScore": 13,
            "playerTotalScore": -1771,
            "oppTotalScore": 1680,
            "waitTime": 5219.700412345792,
            "responseTime": 1681063516311,
            "catchQuestion": "How many <b class=\"r\">red<\/b> marbles did your opponent report drawing? ",
            "catchKey": 100,
            "catchResponse": 100,
            "catchTime": 1681063516311,
            "trialTime": 0
        },
        {
            "exptPart": "trial",
            "trialNumber": 98,
            "roleCurrent": "receiver",
            "marblesSampled": 100,
            "probRed": 0.5,
            "practiceLambda": 5,
            "trialLambda": 21.9,
            "instructedLambda": "honest",
            "drawnRed": 29,
            "reportedRed": 47,
            "inferredRed": 45,
            "playerTrialScore": -16,
            "oppTrialScore": 16,
            "playerTotalScore": -1787,
            "oppTotalScore": 1696,
            "waitTime": 5371.663818959121,
            "responseTime": 1681063530193,
            "catchQuestion": "How many <b class=\"r\">red<\/b> marbles did your opponent report drawing? ",
            "catchKey": -1,
            "catchResponse": -1,
            "catchTime": 1681063516311,
            "trialTime": 0
        },
        {
            "exptPart": "trial",
            "trialNumber": 99,
            "roleCurrent": "receiver",
            "marblesSampled": 100,
            "probRed": 0.5,
            "practiceLambda": 5,
            "trialLambda": 21.9,
            "instructedLambda": "honest",
            "drawnRed": 60,
            "reportedRed": 86,
            "inferredRed": 80,
            "playerTrialScore": -20,
            "oppTrialScore": 20,
            "playerTotalScore": -1807,
            "oppTotalScore": 1716,
            "waitTime": 7209.493517318382,
            "responseTime": 1681063541825,
            "catchQuestion": "How many <b class=\"r\">red<\/b> marbles did your opponent report drawing? ",
            "catchKey": -1,
            "catchResponse": -1,
            "catchTime": 1681063516311,
            "trialTime": 0
        },
        {
            "exptPart": "trial",
            "trialNumber": 100,
            "roleCurrent": "receiver",
            "marblesSampled": 100,
            "probRed": 0.5,
            "practiceLambda": 5,
            "trialLambda": 21.9,
            "instructedLambda": "honest",
            "drawnRed": 78,
            "reportedRed": 100,
            "inferredRed": 100,
            "playerTrialScore": -22,
            "oppTrialScore": 22,
            "playerTotalScore": -1829,
            "oppTotalScore": 1738,
            "waitTime": 7155.1714296200535,
            "responseTime": 1681063552714,
            "catchQuestion": "How many <b class=\"r\">red<\/b> marbles did your opponent report drawing? ",
            "catchKey": -1,
            "catchResponse": -1,
            "catchTime": 1681063552715,
            "trialTime": 0
        }
    ]
}