{
    "client": {
        "type": "sona",
        "experiment_id": 2228,
        "credit_token": "b315147ae43241ea9c65086cb510cfb7",
        "survey_code": "43493",
        "sid": "sona-43493",
        "window": {
            "width": 1536,
            "height": 746
        },
        "screen": {
            "width": 1536,
            "height": 864
        },
        "userAgent": "Mozilla\/5.0 (Windows NT 10.0; Win64; x64) AppleWebKit\/537.36 (KHTML, like Gecko) Chrome\/111.0.0.0 Safari\/537.36",
        "score": 0,
        "bonus": 0
    },
    "expt": {
        "saveURL": "submit.simple.php",
        "trials": 100,
        "practiceTrials": 2,
        "marblesSampled": 100,
        "probRed": 0.5,
        "practiceLambdaAI": 5,
        "lambdaAI": 8.1,
        "roles": [
            "sender",
            "receiver"
        ],
        "cost": "unif",
        "goal": "over",
        "oppDishonesty": "dishonest_big",
        "catchTrials": [
            1,
            80,
            90,
            69,
            5,
            21,
            58,
            67,
            11,
            44
        ],
        "scoreTotal": {
            "player": -667,
            "opp": 350
        },
        "sona": {
            "experiment_id": 2228,
            "credit_token": "b315147ae43241ea9c65086cb510cfb7"
        },
        "pilot": false,
        "debug": false
    },
    "trials": [
        {
            "exptPart": "practice",
            "trialNumber": 1,
            "roleCurrent": "sender",
            "marblesSampled": 100,
            "probRed": 0.5,
            "practiceLambda": 5,
            "trialLambda": 8.1,
            "instructedLambda": "dishonest_big",
            "drawnRed": 35,
            "reportedRed": 36,
            "inferredRed": 32,
            "playerTrialScore": 0,
            "oppTrialScore": -3,
            "playerTotalScore": 0,
            "oppTotalScore": -3,
            "waitTime": 3049.0952938083087,
            "responseTime": 1680741416974,
            "catchQuestion": "How many <b class=\"r\">red<\/b> marbles did you actually draw (before any changes)? ",
            "catchKey": 35,
            "catchResponse": 35,
            "catchTime": 1680741416974,
            "trialTime": 0
        },
        {
            "exptPart": "practice",
            "trialNumber": 2,
            "roleCurrent": "receiver",
            "marblesSampled": 100,
            "probRed": 0.5,
            "practiceLambda": 5,
            "trialLambda": 8.1,
            "instructedLambda": "dishonest_big",
            "drawnRed": 61,
            "reportedRed": 68,
            "inferredRed": 63,
            "playerTrialScore": -2,
            "oppTrialScore": 2,
            "playerTotalScore": -2,
            "oppTotalScore": -1,
            "waitTime": 5431.349059914988,
            "responseTime": 1680741443568,
            "catchQuestion": "How many <b class=\"r\">red<\/b> marbles did your opponent report drawing? ",
            "catchKey": 68,
            "catchResponse": 68,
            "catchTime": 1680741443568,
            "trialTime": 0
        },
        {
            "exptPart": "trial",
            "trialNumber": 1,
            "roleCurrent": "receiver",
            "marblesSampled": 100,
            "probRed": 0.5,
            "practiceLambda": 5,
            "trialLambda": 8.1,
            "instructedLambda": "dishonest_big",
            "drawnRed": 76,
            "reportedRed": 78,
            "inferredRed": 70,
            "playerTrialScore": -6,
            "oppTrialScore": 0,
            "playerTotalScore": -6,
            "oppTotalScore": 0,
            "waitTime": 5263.406544462593,
            "responseTime": 1680741493810,
            "catchQuestion": "How many <b class=\"r\">red<\/b> marbles did your opponent report drawing? ",
            "catchKey": -1,
            "catchResponse": -1,
            "catchTime": 1680741443568,
            "trialTime": 0
        },
        {
            "exptPart": "trial",
            "trialNumber": 2,
            "roleCurrent": "receiver",
            "marblesSampled": 100,
            "probRed": 0.5,
            "practiceLambda": 5,
            "trialLambda": 8.1,
            "instructedLambda": "dishonest_big",
            "drawnRed": 67,
            "reportedRed": 77,
            "inferredRed": 65,
            "playerTrialScore": -2,
            "oppTrialScore": 0,
            "playerTotalScore": -8,
            "oppTotalScore": 0,
            "waitTime": 6125.573569074076,
            "responseTime": 1680741505455,
            "catchQuestion": "How many <b class=\"r\">red<\/b> marbles did your opponent report drawing? ",
            "catchKey": 77,
            "catchResponse": 77,
            "catchTime": 1680741505455,
            "trialTime": 0
        },
        {
            "exptPart": "trial",
            "trialNumber": 3,
            "roleCurrent": "receiver",
            "marblesSampled": 100,
            "probRed": 0.5,
            "practiceLambda": 5,
            "trialLambda": 8.1,
            "instructedLambda": "dishonest_big",
            "drawnRed": 20,
            "reportedRed": 29,
            "inferredRed": 29,
            "playerTrialScore": -9,
            "oppTrialScore": 9,
            "playerTotalScore": -17,
            "oppTotalScore": 9,
            "waitTime": 5387.908611033917,
            "responseTime": 1680741524285,
            "catchQuestion": "How many <b class=\"r\">red<\/b> marbles did your opponent report drawing? ",
            "catchKey": -1,
            "catchResponse": -1,
            "catchTime": 1680741505455,
            "trialTime": 0
        },
        {
            "exptPart": "trial",
            "trialNumber": 4,
            "roleCurrent": "receiver",
            "marblesSampled": 100,
            "probRed": 0.5,
            "practiceLambda": 5,
            "trialLambda": 8.1,
            "instructedLambda": "dishonest_big",
            "drawnRed": 86,
            "reportedRed": 98,
            "inferredRed": 50,
            "playerTrialScore": -36,
            "oppTrialScore": 0,
            "playerTotalScore": -53,
            "oppTotalScore": 9,
            "waitTime": 6424.635795367522,
            "responseTime": 1680741534259,
            "catchQuestion": "How many <b class=\"r\">red<\/b> marbles did your opponent report drawing? ",
            "catchKey": -1,
            "catchResponse": -1,
            "catchTime": 1680741505455,
            "trialTime": 0
        },
        {
            "exptPart": "trial",
            "trialNumber": 5,
            "roleCurrent": "receiver",
            "marblesSampled": 100,
            "probRed": 0.5,
            "practiceLambda": 5,
            "trialLambda": 8.1,
            "instructedLambda": "dishonest_big",
            "drawnRed": 46,
            "reportedRed": 56,
            "inferredRed": 52,
            "playerTrialScore": -6,
            "oppTrialScore": 6,
            "playerTotalScore": -59,
            "oppTotalScore": 15,
            "waitTime": 5292.8324755386875,
            "responseTime": 1680741544604,
            "catchQuestion": "How many <b class=\"r\">red<\/b> marbles did your opponent report drawing? ",
            "catchKey": -1,
            "catchResponse": -1,
            "catchTime": 1680741505455,
            "trialTime": 0
        },
        {
            "exptPart": "trial",
            "trialNumber": 6,
            "roleCurrent": "receiver",
            "marblesSampled": 100,
            "probRed": 0.5,
            "practiceLambda": 5,
            "trialLambda": 8.1,
            "instructedLambda": "dishonest_big",
            "drawnRed": 32,
            "reportedRed": 37,
            "inferredRed": 36,
            "playerTrialScore": -4,
            "oppTrialScore": 4,
            "playerTotalScore": -63,
            "oppTotalScore": 19,
            "waitTime": 6508.049604987365,
            "responseTime": 1680741557119,
            "catchQuestion": "How many <b class=\"r\">red<\/b> marbles did your opponent report drawing? ",
            "catchKey": 37,
            "catchResponse": 37,
            "catchTime": 1680741557119,
            "trialTime": 0
        },
        {
            "exptPart": "trial",
            "trialNumber": 7,
            "roleCurrent": "receiver",
            "marblesSampled": 100,
            "probRed": 0.5,
            "practiceLambda": 5,
            "trialLambda": 8.1,
            "instructedLambda": "dishonest_big",
            "drawnRed": 27,
            "reportedRed": 38,
            "inferredRed": 37,
            "playerTrialScore": -10,
            "oppTrialScore": 10,
            "playerTotalScore": -73,
            "oppTotalScore": 29,
            "waitTime": 5630.765513228618,
            "responseTime": 1680741609483,
            "catchQuestion": "How many <b class=\"r\">red<\/b> marbles did your opponent report drawing? ",
            "catchKey": -1,
            "catchResponse": -1,
            "catchTime": 1680741557119,
            "trialTime": 0
        },
        {
            "exptPart": "trial",
            "trialNumber": 8,
            "roleCurrent": "receiver",
            "marblesSampled": 100,
            "probRed": 0.5,
            "practiceLambda": 5,
            "trialLambda": 8.1,
            "instructedLambda": "dishonest_big",
            "drawnRed": 14,
            "reportedRed": 19,
            "inferredRed": 18,
            "playerTrialScore": -4,
            "oppTrialScore": 4,
            "playerTotalScore": -77,
            "oppTotalScore": 33,
            "waitTime": 7442.264621713212,
            "responseTime": 1680741626388,
            "catchQuestion": "How many <b class=\"r\">red<\/b> marbles did your opponent report drawing? ",
            "catchKey": -1,
            "catchResponse": -1,
            "catchTime": 1680741557119,
            "trialTime": 0
        },
        {
            "exptPart": "trial",
            "trialNumber": 9,
            "roleCurrent": "receiver",
            "marblesSampled": 100,
            "probRed": 0.5,
            "practiceLambda": 5,
            "trialLambda": 8.1,
            "instructedLambda": "dishonest_big",
            "drawnRed": 13,
            "reportedRed": 23,
            "inferredRed": 23,
            "playerTrialScore": -10,
            "oppTrialScore": 10,
            "playerTotalScore": -87,
            "oppTotalScore": 43,
            "waitTime": 6708.489586522441,
            "responseTime": 1680741638932,
            "catchQuestion": "How many <b class=\"r\">red<\/b> marbles did your opponent report drawing? ",
            "catchKey": -1,
            "catchResponse": -1,
            "catchTime": 1680741557119,
            "trialTime": 0
        },
        {
            "exptPart": "trial",
            "trialNumber": 10,
            "roleCurrent": "receiver",
            "marblesSampled": 100,
            "probRed": 0.5,
            "practiceLambda": 5,
            "trialLambda": 8.1,
            "instructedLambda": "dishonest_big",
            "drawnRed": 30,
            "reportedRed": 39,
            "inferredRed": 38,
            "playerTrialScore": -8,
            "oppTrialScore": 8,
            "playerTotalScore": -95,
            "oppTotalScore": 51,
            "waitTime": 5289.516414387554,
            "responseTime": 1680741659018,
            "catchQuestion": "How many <b class=\"r\">red<\/b> marbles did your opponent report drawing? ",
            "catchKey": -1,
            "catchResponse": -1,
            "catchTime": 1680741659018,
            "trialTime": 0
        },
        {
            "exptPart": "trial",
            "trialNumber": 11,
            "roleCurrent": "receiver",
            "marblesSampled": 100,
            "probRed": 0.5,
            "practiceLambda": 5,
            "trialLambda": 8.1,
            "instructedLambda": "dishonest_big",
            "drawnRed": 59,
            "reportedRed": 62,
            "inferredRed": 57,
            "playerTrialScore": -2,
            "oppTrialScore": 0,
            "playerTotalScore": -97,
            "oppTotalScore": 51,
            "waitTime": 5188.022929400968,
            "responseTime": 1680741675726,
            "catchQuestion": "How many <b class=\"r\">red<\/b> marbles did your opponent report drawing? ",
            "catchKey": -1,
            "catchResponse": -1,
            "catchTime": 1680741659018,
            "trialTime": 0
        },
        {
            "exptPart": "trial",
            "trialNumber": 12,
            "roleCurrent": "receiver",
            "marblesSampled": 100,
            "probRed": 0.5,
            "practiceLambda": 5,
            "trialLambda": 8.1,
            "instructedLambda": "dishonest_big",
            "drawnRed": 65,
            "reportedRed": 74,
            "inferredRed": 57,
            "playerTrialScore": -8,
            "oppTrialScore": 0,
            "playerTotalScore": -105,
            "oppTotalScore": 51,
            "waitTime": 5565.712943083872,
            "responseTime": 1680741685586,
            "catchQuestion": "How many <b class=\"r\">red<\/b> marbles did your opponent report drawing? ",
            "catchKey": 74,
            "catchResponse": 74,
            "catchTime": 1680741685586,
            "trialTime": 0
        },
        {
            "exptPart": "trial",
            "trialNumber": 13,
            "roleCurrent": "receiver",
            "marblesSampled": 100,
            "probRed": 0.5,
            "practiceLambda": 5,
            "trialLambda": 8.1,
            "instructedLambda": "dishonest_big",
            "drawnRed": 67,
            "reportedRed": 75,
            "inferredRed": 58,
            "playerTrialScore": -9,
            "oppTrialScore": 0,
            "playerTotalScore": -114,
            "oppTotalScore": 51,
            "waitTime": 5749.806776385661,
            "responseTime": 1680741722234,
            "catchQuestion": "How many <b class=\"r\">red<\/b> marbles did your opponent report drawing? ",
            "catchKey": -1,
            "catchResponse": -1,
            "catchTime": 1680741685586,
            "trialTime": 0
        },
        {
            "exptPart": "trial",
            "trialNumber": 14,
            "roleCurrent": "receiver",
            "marblesSampled": 100,
            "probRed": 0.5,
            "practiceLambda": 5,
            "trialLambda": 8.1,
            "instructedLambda": "dishonest_big",
            "drawnRed": 52,
            "reportedRed": 62,
            "inferredRed": 57,
            "playerTrialScore": -5,
            "oppTrialScore": 5,
            "playerTotalScore": -119,
            "oppTotalScore": 56,
            "waitTime": 5348.573965689127,
            "responseTime": 1680741741217,
            "catchQuestion": "How many <b class=\"r\">red<\/b> marbles did your opponent report drawing? ",
            "catchKey": -1,
            "catchResponse": -1,
            "catchTime": 1680741685586,
            "trialTime": 0
        },
        {
            "exptPart": "trial",
            "trialNumber": 15,
            "roleCurrent": "receiver",
            "marblesSampled": 100,
            "probRed": 0.5,
            "practiceLambda": 5,
            "trialLambda": 8.1,
            "instructedLambda": "dishonest_big",
            "drawnRed": 69,
            "reportedRed": 77,
            "inferredRed": 70,
            "playerTrialScore": -1,
            "oppTrialScore": 1,
            "playerTotalScore": -120,
            "oppTotalScore": 57,
            "waitTime": 5841.504472644603,
            "responseTime": 1680741750527,
            "catchQuestion": "How many <b class=\"r\">red<\/b> marbles did your opponent report drawing? ",
            "catchKey": -1,
            "catchResponse": -1,
            "catchTime": 1680741685586,
            "trialTime": 0
        },
        {
            "exptPart": "trial",
            "trialNumber": 16,
            "roleCurrent": "receiver",
            "marblesSampled": 100,
            "probRed": 0.5,
            "practiceLambda": 5,
            "trialLambda": 8.1,
            "instructedLambda": "dishonest_big",
            "drawnRed": 56,
            "reportedRed": 65,
            "inferredRed": 60,
            "playerTrialScore": -4,
            "oppTrialScore": 4,
            "playerTotalScore": -124,
            "oppTotalScore": 61,
            "waitTime": 6086.235903208821,
            "responseTime": 1680741759901,
            "catchQuestion": "How many <b class=\"r\">red<\/b> marbles did your opponent report drawing? ",
            "catchKey": -1,
            "catchResponse": -1,
            "catchTime": 1680741685586,
            "trialTime": 0
        },
        {
            "exptPart": "trial",
            "trialNumber": 17,
            "roleCurrent": "receiver",
            "marblesSampled": 100,
            "probRed": 0.5,
            "practiceLambda": 5,
            "trialLambda": 8.1,
            "instructedLambda": "dishonest_big",
            "drawnRed": 62,
            "reportedRed": 72,
            "inferredRed": 69,
            "playerTrialScore": -7,
            "oppTrialScore": 7,
            "playerTotalScore": -131,
            "oppTotalScore": 68,
            "waitTime": 6200.2427575656175,
            "responseTime": 1680741781253,
            "catchQuestion": "How many <b class=\"r\">red<\/b> marbles did your opponent report drawing? ",
            "catchKey": -1,
            "catchResponse": -1,
            "catchTime": 1680741685586,
            "trialTime": 0
        },
        {
            "exptPart": "trial",
            "trialNumber": 18,
            "roleCurrent": "receiver",
            "marblesSampled": 100,
            "probRed": 0.5,
            "practiceLambda": 5,
            "trialLambda": 8.1,
            "instructedLambda": "dishonest_big",
            "drawnRed": 25,
            "reportedRed": 32,
            "inferredRed": 32,
            "playerTrialScore": -7,
            "oppTrialScore": 7,
            "playerTotalScore": -138,
            "oppTotalScore": 75,
            "waitTime": 6115.851580588642,
            "responseTime": 1680741791524,
            "catchQuestion": "How many <b class=\"r\">red<\/b> marbles did your opponent report drawing? ",
            "catchKey": -1,
            "catchResponse": -1,
            "catchTime": 1680741685586,
            "trialTime": 0
        },
        {
            "exptPart": "trial",
            "trialNumber": 19,
            "roleCurrent": "receiver",
            "marblesSampled": 100,
            "probRed": 0.5,
            "practiceLambda": 5,
            "trialLambda": 8.1,
            "instructedLambda": "dishonest_big",
            "drawnRed": 55,
            "reportedRed": 66,
            "inferredRed": 60,
            "playerTrialScore": -5,
            "oppTrialScore": 5,
            "playerTotalScore": -143,
            "oppTotalScore": 80,
            "waitTime": 6881.84292840283,
            "responseTime": 1680741802084,
            "catchQuestion": "How many <b class=\"r\">red<\/b> marbles did your opponent report drawing? ",
            "catchKey": -1,
            "catchResponse": -1,
            "catchTime": 1680741685586,
            "trialTime": 0
        },
        {
            "exptPart": "trial",
            "trialNumber": 20,
            "roleCurrent": "receiver",
            "marblesSampled": 100,
            "probRed": 0.5,
            "practiceLambda": 5,
            "trialLambda": 8.1,
            "instructedLambda": "dishonest_big",
            "drawnRed": 64,
            "reportedRed": 73,
            "inferredRed": 69,
            "playerTrialScore": -5,
            "oppTrialScore": 5,
            "playerTotalScore": -148,
            "oppTotalScore": 85,
            "waitTime": 7387.767724294409,
            "responseTime": 1680741814576,
            "catchQuestion": "How many <b class=\"r\">red<\/b> marbles did your opponent report drawing? ",
            "catchKey": -1,
            "catchResponse": -1,
            "catchTime": 1680741814576,
            "trialTime": 0
        },
        {
            "exptPart": "trial",
            "trialNumber": 21,
            "roleCurrent": "receiver",
            "marblesSampled": 100,
            "probRed": 0.5,
            "practiceLambda": 5,
            "trialLambda": 8.1,
            "instructedLambda": "dishonest_big",
            "drawnRed": 40,
            "reportedRed": 53,
            "inferredRed": 49,
            "playerTrialScore": -9,
            "oppTrialScore": 9,
            "playerTotalScore": -157,
            "oppTotalScore": 94,
            "waitTime": 7395.458816473541,
            "responseTime": 1680741864276,
            "catchQuestion": "How many <b class=\"r\">red<\/b> marbles did your opponent report drawing? ",
            "catchKey": -1,
            "catchResponse": -1,
            "catchTime": 1680741814576,
            "trialTime": 0
        },
        {
            "exptPart": "trial",
            "trialNumber": 22,
            "roleCurrent": "receiver",
            "marblesSampled": 100,
            "probRed": 0.5,
            "practiceLambda": 5,
            "trialLambda": 8.1,
            "instructedLambda": "dishonest_big",
            "drawnRed": 65,
            "reportedRed": 72,
            "inferredRed": 67,
            "playerTrialScore": -2,
            "oppTrialScore": 2,
            "playerTotalScore": -159,
            "oppTotalScore": 96,
            "waitTime": 5673.196560382885,
            "responseTime": 1680741873696,
            "catchQuestion": "How many <b class=\"r\">red<\/b> marbles did your opponent report drawing? ",
            "catchKey": 72,
            "catchResponse": 72,
            "catchTime": 1680741873696,
            "trialTime": 0
        },
        {
            "exptPart": "trial",
            "trialNumber": 23,
            "roleCurrent": "receiver",
            "marblesSampled": 100,
            "probRed": 0.5,
            "practiceLambda": 5,
            "trialLambda": 8.1,
            "instructedLambda": "dishonest_big",
            "drawnRed": 42,
            "reportedRed": 50,
            "inferredRed": 49,
            "playerTrialScore": -7,
            "oppTrialScore": 7,
            "playerTotalScore": -166,
            "oppTotalScore": 103,
            "waitTime": 5871.318906186387,
            "responseTime": 1680741988018,
            "catchQuestion": "How many <b class=\"r\">red<\/b> marbles did your opponent report drawing? ",
            "catchKey": -1,
            "catchResponse": -1,
            "catchTime": 1680741873696,
            "trialTime": 0
        },
        {
            "exptPart": "trial",
            "trialNumber": 24,
            "roleCurrent": "receiver",
            "marblesSampled": 100,
            "probRed": 0.5,
            "practiceLambda": 5,
            "trialLambda": 8.1,
            "instructedLambda": "dishonest_big",
            "drawnRed": 51,
            "reportedRed": 54,
            "inferredRed": 50,
            "playerTrialScore": -1,
            "oppTrialScore": 0,
            "playerTotalScore": -167,
            "oppTotalScore": 103,
            "waitTime": 6429.82199636999,
            "responseTime": 1680742000156,
            "catchQuestion": "How many <b class=\"r\">red<\/b> marbles did your opponent report drawing? ",
            "catchKey": -1,
            "catchResponse": -1,
            "catchTime": 1680741873696,
            "trialTime": 0
        },
        {
            "exptPart": "trial",
            "trialNumber": 25,
            "roleCurrent": "receiver",
            "marblesSampled": 100,
            "probRed": 0.5,
            "practiceLambda": 5,
            "trialLambda": 8.1,
            "instructedLambda": "dishonest_big",
            "drawnRed": 44,
            "reportedRed": 54,
            "inferredRed": 49,
            "playerTrialScore": -5,
            "oppTrialScore": 5,
            "playerTotalScore": -172,
            "oppTotalScore": 108,
            "waitTime": 6455.98982477877,
            "responseTime": 1680742011580,
            "catchQuestion": "How many <b class=\"r\">red<\/b> marbles did your opponent report drawing? ",
            "catchKey": -1,
            "catchResponse": -1,
            "catchTime": 1680741873696,
            "trialTime": 0
        },
        {
            "exptPart": "trial",
            "trialNumber": 26,
            "roleCurrent": "receiver",
            "marblesSampled": 100,
            "probRed": 0.5,
            "practiceLambda": 5,
            "trialLambda": 8.1,
            "instructedLambda": "dishonest_big",
            "drawnRed": 70,
            "reportedRed": 83,
            "inferredRed": 67,
            "playerTrialScore": -3,
            "oppTrialScore": 0,
            "playerTotalScore": -175,
            "oppTotalScore": 108,
            "waitTime": 5338.804082442423,
            "responseTime": 1680742023756,
            "catchQuestion": "How many <b class=\"r\">red<\/b> marbles did your opponent report drawing? ",
            "catchKey": -1,
            "catchResponse": -1,
            "catchTime": 1680741873696,
            "trialTime": 0
        },
        {
            "exptPart": "trial",
            "trialNumber": 27,
            "roleCurrent": "receiver",
            "marblesSampled": 100,
            "probRed": 0.5,
            "practiceLambda": 5,
            "trialLambda": 8.1,
            "instructedLambda": "dishonest_big",
            "drawnRed": 39,
            "reportedRed": 46,
            "inferredRed": 44,
            "playerTrialScore": -5,
            "oppTrialScore": 5,
            "playerTotalScore": -180,
            "oppTotalScore": 113,
            "waitTime": 5409.199725126642,
            "responseTime": 1680742033702,
            "catchQuestion": "How many <b class=\"r\">red<\/b> marbles did your opponent report drawing? ",
            "catchKey": -1,
            "catchResponse": -1,
            "catchTime": 1680741873696,
            "trialTime": 0
        },
        {
            "exptPart": "trial",
            "trialNumber": 28,
            "roleCurrent": "receiver",
            "marblesSampled": 100,
            "probRed": 0.5,
            "practiceLambda": 5,
            "trialLambda": 8.1,
            "instructedLambda": "dishonest_big",
            "drawnRed": 30,
            "reportedRed": 34,
            "inferredRed": 34,
            "playerTrialScore": -4,
            "oppTrialScore": 4,
            "playerTotalScore": -184,
            "oppTotalScore": 117,
            "waitTime": 5594.980474289892,
            "responseTime": 1680742044839,
            "catchQuestion": "How many <b class=\"r\">red<\/b> marbles did your opponent report drawing? ",
            "catchKey": -1,
            "catchResponse": -1,
            "catchTime": 1680741873696,
            "trialTime": 0
        },
        {
            "exptPart": "trial",
            "trialNumber": 29,
            "roleCurrent": "receiver",
            "marblesSampled": 100,
            "probRed": 0.5,
            "practiceLambda": 5,
            "trialLambda": 8.1,
            "instructedLambda": "dishonest_big",
            "drawnRed": 25,
            "reportedRed": 33,
            "inferredRed": 30,
            "playerTrialScore": -5,
            "oppTrialScore": 5,
            "playerTotalScore": -189,
            "oppTotalScore": 122,
            "waitTime": 5877.176504753839,
            "responseTime": 1680742057486,
            "catchQuestion": "How many <b class=\"r\">red<\/b> marbles did your opponent report drawing? ",
            "catchKey": -1,
            "catchResponse": -1,
            "catchTime": 1680741873696,
            "trialTime": 0
        },
        {
            "exptPart": "trial",
            "trialNumber": 30,
            "roleCurrent": "receiver",
            "marblesSampled": 100,
            "probRed": 0.5,
            "practiceLambda": 5,
            "trialLambda": 8.1,
            "instructedLambda": "dishonest_big",
            "drawnRed": 12,
            "reportedRed": 22,
            "inferredRed": 20,
            "playerTrialScore": -8,
            "oppTrialScore": 8,
            "playerTotalScore": -197,
            "oppTotalScore": 130,
            "waitTime": 5455.196577559335,
            "responseTime": 1680742067491,
            "catchQuestion": "How many <b class=\"r\">red<\/b> marbles did your opponent report drawing? ",
            "catchKey": -1,
            "catchResponse": -1,
            "catchTime": 1680742067491,
            "trialTime": 0
        },
        {
            "exptPart": "trial",
            "trialNumber": 31,
            "roleCurrent": "receiver",
            "marblesSampled": 100,
            "probRed": 0.5,
            "practiceLambda": 5,
            "trialLambda": 8.1,
            "instructedLambda": "dishonest_big",
            "drawnRed": 64,
            "reportedRed": 71,
            "inferredRed": 60,
            "playerTrialScore": -4,
            "oppTrialScore": 0,
            "playerTotalScore": -201,
            "oppTotalScore": 130,
            "waitTime": 5164.5157295359895,
            "responseTime": 1680742098949,
            "catchQuestion": "How many <b class=\"r\">red<\/b> marbles did your opponent report drawing? ",
            "catchKey": -1,
            "catchResponse": -1,
            "catchTime": 1680742067491,
            "trialTime": 0
        },
        {
            "exptPart": "trial",
            "trialNumber": 32,
            "roleCurrent": "receiver",
            "marblesSampled": 100,
            "probRed": 0.5,
            "practiceLambda": 5,
            "trialLambda": 8.1,
            "instructedLambda": "dishonest_big",
            "drawnRed": 50,
            "reportedRed": 60,
            "inferredRed": 55,
            "playerTrialScore": -5,
            "oppTrialScore": 5,
            "playerTotalScore": -206,
            "oppTotalScore": 135,
            "waitTime": 6807.142603174894,
            "responseTime": 1680742110247,
            "catchQuestion": "How many <b class=\"r\">red<\/b> marbles did your opponent report drawing? ",
            "catchKey": -1,
            "catchResponse": -1,
            "catchTime": 1680742067491,
            "trialTime": 0
        },
        {
            "exptPart": "trial",
            "trialNumber": 33,
            "roleCurrent": "receiver",
            "marblesSampled": 100,
            "probRed": 0.5,
            "practiceLambda": 5,
            "trialLambda": 8.1,
            "instructedLambda": "dishonest_big",
            "drawnRed": 48,
            "reportedRed": 58,
            "inferredRed": 55,
            "playerTrialScore": -7,
            "oppTrialScore": 7,
            "playerTotalScore": -213,
            "oppTotalScore": 142,
            "waitTime": 7092.2200386336735,
            "responseTime": 1680742120711,
            "catchQuestion": "How many <b class=\"r\">red<\/b> marbles did your opponent report drawing? ",
            "catchKey": -1,
            "catchResponse": -1,
            "catchTime": 1680742067491,
            "trialTime": 0
        },
        {
            "exptPart": "trial",
            "trialNumber": 34,
            "roleCurrent": "receiver",
            "marblesSampled": 100,
            "probRed": 0.5,
            "practiceLambda": 5,
            "trialLambda": 8.1,
            "instructedLambda": "dishonest_big",
            "drawnRed": 53,
            "reportedRed": 57,
            "inferredRed": 53,
            "playerTrialScore": 0,
            "oppTrialScore": 0,
            "playerTotalScore": -213,
            "oppTotalScore": 142,
            "waitTime": 5424.779191603073,
            "responseTime": 1680742130079,
            "catchQuestion": "How many <b class=\"r\">red<\/b> marbles did your opponent report drawing? ",
            "catchKey": -1,
            "catchResponse": -1,
            "catchTime": 1680742067491,
            "trialTime": 0
        },
        {
            "exptPart": "trial",
            "trialNumber": 35,
            "roleCurrent": "receiver",
            "marblesSampled": 100,
            "probRed": 0.5,
            "practiceLambda": 5,
            "trialLambda": 8.1,
            "instructedLambda": "dishonest_big",
            "drawnRed": 42,
            "reportedRed": 49,
            "inferredRed": 48,
            "playerTrialScore": -6,
            "oppTrialScore": 6,
            "playerTotalScore": -219,
            "oppTotalScore": 148,
            "waitTime": 6343.011684621826,
            "responseTime": 1680742139884,
            "catchQuestion": "How many <b class=\"r\">red<\/b> marbles did your opponent report drawing? ",
            "catchKey": -1,
            "catchResponse": -1,
            "catchTime": 1680742067491,
            "trialTime": 0
        },
        {
            "exptPart": "trial",
            "trialNumber": 36,
            "roleCurrent": "receiver",
            "marblesSampled": 100,
            "probRed": 0.5,
            "practiceLambda": 5,
            "trialLambda": 8.1,
            "instructedLambda": "dishonest_big",
            "drawnRed": 56,
            "reportedRed": 67,
            "inferredRed": 65,
            "playerTrialScore": -9,
            "oppTrialScore": 9,
            "playerTotalScore": -228,
            "oppTotalScore": 157,
            "waitTime": 6335.666946899388,
            "responseTime": 1680742149328,
            "catchQuestion": "How many <b class=\"r\">red<\/b> marbles did your opponent report drawing? ",
            "catchKey": -1,
            "catchResponse": -1,
            "catchTime": 1680742067491,
            "trialTime": 0
        },
        {
            "exptPart": "trial",
            "trialNumber": 37,
            "roleCurrent": "receiver",
            "marblesSampled": 100,
            "probRed": 0.5,
            "practiceLambda": 5,
            "trialLambda": 8.1,
            "instructedLambda": "dishonest_big",
            "drawnRed": 51,
            "reportedRed": 60,
            "inferredRed": 50,
            "playerTrialScore": -1,
            "oppTrialScore": 0,
            "playerTotalScore": -229,
            "oppTotalScore": 157,
            "waitTime": 5928.580332597905,
            "responseTime": 1680742159691,
            "catchQuestion": "How many <b class=\"r\">red<\/b> marbles did your opponent report drawing? ",
            "catchKey": -1,
            "catchResponse": -1,
            "catchTime": 1680742067491,
            "trialTime": 0
        },
        {
            "exptPart": "trial",
            "trialNumber": 38,
            "roleCurrent": "receiver",
            "marblesSampled": 100,
            "probRed": 0.5,
            "practiceLambda": 5,
            "trialLambda": 8.1,
            "instructedLambda": "dishonest_big",
            "drawnRed": 31,
            "reportedRed": 41,
            "inferredRed": 39,
            "playerTrialScore": -8,
            "oppTrialScore": 8,
            "playerTotalScore": -237,
            "oppTotalScore": 165,
            "waitTime": 7039.311897231049,
            "responseTime": 1680742171215,
            "catchQuestion": "How many <b class=\"r\">red<\/b> marbles did your opponent report drawing? ",
            "catchKey": -1,
            "catchResponse": -1,
            "catchTime": 1680742067491,
            "trialTime": 0
        },
        {
            "exptPart": "trial",
            "trialNumber": 39,
            "roleCurrent": "receiver",
            "marblesSampled": 100,
            "probRed": 0.5,
            "practiceLambda": 5,
            "trialLambda": 8.1,
            "instructedLambda": "dishonest_big",
            "drawnRed": 57,
            "reportedRed": 69,
            "inferredRed": 65,
            "playerTrialScore": -8,
            "oppTrialScore": 8,
            "playerTotalScore": -245,
            "oppTotalScore": 173,
            "waitTime": 5499.991092944299,
            "responseTime": 1680742180173,
            "catchQuestion": "How many <b class=\"r\">red<\/b> marbles did your opponent report drawing? ",
            "catchKey": -1,
            "catchResponse": -1,
            "catchTime": 1680742067491,
            "trialTime": 0
        },
        {
            "exptPart": "trial",
            "trialNumber": 40,
            "roleCurrent": "receiver",
            "marblesSampled": 100,
            "probRed": 0.5,
            "practiceLambda": 5,
            "trialLambda": 8.1,
            "instructedLambda": "dishonest_big",
            "drawnRed": 56,
            "reportedRed": 64,
            "inferredRed": 60,
            "playerTrialScore": -4,
            "oppTrialScore": 4,
            "playerTotalScore": -249,
            "oppTotalScore": 177,
            "waitTime": 5405.957026784445,
            "responseTime": 1680742189670,
            "catchQuestion": "How many <b class=\"r\">red<\/b> marbles did your opponent report drawing? ",
            "catchKey": -1,
            "catchResponse": -1,
            "catchTime": 1680742189670,
            "trialTime": 0
        },
        {
            "exptPart": "trial",
            "trialNumber": 41,
            "roleCurrent": "receiver",
            "marblesSampled": 100,
            "probRed": 0.5,
            "practiceLambda": 5,
            "trialLambda": 8.1,
            "instructedLambda": "dishonest_big",
            "drawnRed": 54,
            "reportedRed": 60,
            "inferredRed": 50,
            "playerTrialScore": -4,
            "oppTrialScore": 0,
            "playerTotalScore": -253,
            "oppTotalScore": 177,
            "waitTime": 7469.244310599005,
            "responseTime": 1680742233505,
            "catchQuestion": "How many <b class=\"r\">red<\/b> marbles did your opponent report drawing? ",
            "catchKey": -1,
            "catchResponse": -1,
            "catchTime": 1680742189670,
            "trialTime": 0
        },
        {
            "exptPart": "trial",
            "trialNumber": 42,
            "roleCurrent": "receiver",
            "marblesSampled": 100,
            "probRed": 0.5,
            "practiceLambda": 5,
            "trialLambda": 8.1,
            "instructedLambda": "dishonest_big",
            "drawnRed": 86,
            "reportedRed": 98,
            "inferredRed": 50,
            "playerTrialScore": -36,
            "oppTrialScore": 0,
            "playerTotalScore": -289,
            "oppTotalScore": 177,
            "waitTime": 5163.003669108402,
            "responseTime": 1680742243065,
            "catchQuestion": "How many <b class=\"r\">red<\/b> marbles did your opponent report drawing? ",
            "catchKey": -1,
            "catchResponse": -1,
            "catchTime": 1680742189670,
            "trialTime": 0
        },
        {
            "exptPart": "trial",
            "trialNumber": 43,
            "roleCurrent": "receiver",
            "marblesSampled": 100,
            "probRed": 0.5,
            "practiceLambda": 5,
            "trialLambda": 8.1,
            "instructedLambda": "dishonest_big",
            "drawnRed": 69,
            "reportedRed": 78,
            "inferredRed": 70,
            "playerTrialScore": -1,
            "oppTrialScore": 1,
            "playerTotalScore": -290,
            "oppTotalScore": 178,
            "waitTime": 5913.463801805393,
            "responseTime": 1680742253130,
            "catchQuestion": "How many <b class=\"r\">red<\/b> marbles did your opponent report drawing? ",
            "catchKey": -1,
            "catchResponse": -1,
            "catchTime": 1680742189670,
            "trialTime": 0
        },
        {
            "exptPart": "trial",
            "trialNumber": 44,
            "roleCurrent": "receiver",
            "marblesSampled": 100,
            "probRed": 0.5,
            "practiceLambda": 5,
            "trialLambda": 8.1,
            "instructedLambda": "dishonest_big",
            "drawnRed": 65,
            "reportedRed": 71,
            "inferredRed": 65,
            "playerTrialScore": 0,
            "oppTrialScore": 0,
            "playerTotalScore": -290,
            "oppTotalScore": 178,
            "waitTime": 5975.209865381719,
            "responseTime": 1680742263023,
            "catchQuestion": "How many <b class=\"r\">red<\/b> marbles did your opponent report drawing? ",
            "catchKey": -1,
            "catchResponse": -1,
            "catchTime": 1680742189670,
            "trialTime": 0
        },
        {
            "exptPart": "trial",
            "trialNumber": 45,
            "roleCurrent": "receiver",
            "marblesSampled": 100,
            "probRed": 0.5,
            "practiceLambda": 5,
            "trialLambda": 8.1,
            "instructedLambda": "dishonest_big",
            "drawnRed": 70,
            "reportedRed": 74,
            "inferredRed": 70,
            "playerTrialScore": 0,
            "oppTrialScore": 0,
            "playerTotalScore": -290,
            "oppTotalScore": 178,
            "waitTime": 5176.96915050419,
            "responseTime": 1680742271481,
            "catchQuestion": "How many <b class=\"r\">red<\/b> marbles did your opponent report drawing? ",
            "catchKey": 74,
            "catchResponse": 74,
            "catchTime": 1680742271481,
            "trialTime": 0
        },
        {
            "exptPart": "trial",
            "trialNumber": 46,
            "roleCurrent": "receiver",
            "marblesSampled": 100,
            "probRed": 0.5,
            "practiceLambda": 5,
            "trialLambda": 8.1,
            "instructedLambda": "dishonest_big",
            "drawnRed": 15,
            "reportedRed": 23,
            "inferredRed": 23,
            "playerTrialScore": -8,
            "oppTrialScore": 8,
            "playerTotalScore": -298,
            "oppTotalScore": 186,
            "waitTime": 5525.461433327828,
            "responseTime": 1680742288757,
            "catchQuestion": "How many <b class=\"r\">red<\/b> marbles did your opponent report drawing? ",
            "catchKey": -1,
            "catchResponse": -1,
            "catchTime": 1680742271481,
            "trialTime": 0
        },
        {
            "exptPart": "trial",
            "trialNumber": 47,
            "roleCurrent": "receiver",
            "marblesSampled": 100,
            "probRed": 0.5,
            "practiceLambda": 5,
            "trialLambda": 8.1,
            "instructedLambda": "dishonest_big",
            "drawnRed": 46,
            "reportedRed": 57,
            "inferredRed": 55,
            "playerTrialScore": -9,
            "oppTrialScore": 9,
            "playerTotalScore": -307,
            "oppTotalScore": 195,
            "waitTime": 5294.827346867128,
            "responseTime": 1680742300664,
            "catchQuestion": "How many <b class=\"r\">red<\/b> marbles did your opponent report drawing? ",
            "catchKey": -1,
            "catchResponse": -1,
            "catchTime": 1680742271481,
            "trialTime": 0
        },
        {
            "exptPart": "trial",
            "trialNumber": 48,
            "roleCurrent": "receiver",
            "marblesSampled": 100,
            "probRed": 0.5,
            "practiceLambda": 5,
            "trialLambda": 8.1,
            "instructedLambda": "dishonest_big",
            "drawnRed": 42,
            "reportedRed": 53,
            "inferredRed": 46,
            "playerTrialScore": -4,
            "oppTrialScore": 4,
            "playerTotalScore": -311,
            "oppTotalScore": 199,
            "waitTime": 5821.417947259275,
            "responseTime": 1680742311491,
            "catchQuestion": "How many <b class=\"r\">red<\/b> marbles did your opponent report drawing? ",
            "catchKey": -1,
            "catchResponse": -1,
            "catchTime": 1680742271481,
            "trialTime": 0
        },
        {
            "exptPart": "trial",
            "trialNumber": 49,
            "roleCurrent": "receiver",
            "marblesSampled": 100,
            "probRed": 0.5,
            "practiceLambda": 5,
            "trialLambda": 8.1,
            "instructedLambda": "dishonest_big",
            "drawnRed": 51,
            "reportedRed": 63,
            "inferredRed": 58,
            "playerTrialScore": -7,
            "oppTrialScore": 7,
            "playerTotalScore": -318,
            "oppTotalScore": 206,
            "waitTime": 5927.639581606592,
            "responseTime": 1680742323055,
            "catchQuestion": "How many <b class=\"r\">red<\/b> marbles did your opponent report drawing? ",
            "catchKey": -1,
            "catchResponse": -1,
            "catchTime": 1680742271481,
            "trialTime": 0
        },
        {
            "exptPart": "trial",
            "trialNumber": 50,
            "roleCurrent": "receiver",
            "marblesSampled": 100,
            "probRed": 0.5,
            "practiceLambda": 5,
            "trialLambda": 8.1,
            "instructedLambda": "dishonest_big",
            "drawnRed": 26,
            "reportedRed": 36,
            "inferredRed": 32,
            "playerTrialScore": -6,
            "oppTrialScore": 6,
            "playerTotalScore": -324,
            "oppTotalScore": 212,
            "waitTime": 5903.998921902159,
            "responseTime": 1680742334684,
            "catchQuestion": "How many <b class=\"r\">red<\/b> marbles did your opponent report drawing? ",
            "catchKey": -1,
            "catchResponse": -1,
            "catchTime": 1680742334684,
            "trialTime": 0
        },
        {
            "exptPart": "trial",
            "trialNumber": 51,
            "roleCurrent": "receiver",
            "marblesSampled": 100,
            "probRed": 0.5,
            "practiceLambda": 5,
            "trialLambda": 8.1,
            "instructedLambda": "dishonest_big",
            "drawnRed": 57,
            "reportedRed": 71,
            "inferredRed": 67,
            "playerTrialScore": -10,
            "oppTrialScore": 10,
            "playerTotalScore": -334,
            "oppTotalScore": 222,
            "waitTime": 5306.49376058278,
            "responseTime": 1680742380527,
            "catchQuestion": "How many <b class=\"r\">red<\/b> marbles did your opponent report drawing? ",
            "catchKey": -1,
            "catchResponse": -1,
            "catchTime": 1680742334684,
            "trialTime": 0
        },
        {
            "exptPart": "trial",
            "trialNumber": 52,
            "roleCurrent": "receiver",
            "marblesSampled": 100,
            "probRed": 0.5,
            "practiceLambda": 5,
            "trialLambda": 8.1,
            "instructedLambda": "dishonest_big",
            "drawnRed": 49,
            "reportedRed": 57,
            "inferredRed": 53,
            "playerTrialScore": -4,
            "oppTrialScore": 4,
            "playerTotalScore": -338,
            "oppTotalScore": 226,
            "waitTime": 5764.297537018869,
            "responseTime": 1680742390096,
            "catchQuestion": "How many <b class=\"r\">red<\/b> marbles did your opponent report drawing? ",
            "catchKey": -1,
            "catchResponse": -1,
            "catchTime": 1680742334684,
            "trialTime": 0
        },
        {
            "exptPart": "trial",
            "trialNumber": 53,
            "roleCurrent": "receiver",
            "marblesSampled": 100,
            "probRed": 0.5,
            "practiceLambda": 5,
            "trialLambda": 8.1,
            "instructedLambda": "dishonest_big",
            "drawnRed": 38,
            "reportedRed": 49,
            "inferredRed": 45,
            "playerTrialScore": -7,
            "oppTrialScore": 7,
            "playerTotalScore": -345,
            "oppTotalScore": 233,
            "waitTime": 7296.460080546889,
            "responseTime": 1680742404392,
            "catchQuestion": "How many <b class=\"r\">red<\/b> marbles did your opponent report drawing? ",
            "catchKey": -1,
            "catchResponse": -1,
            "catchTime": 1680742334684,
            "trialTime": 0
        },
        {
            "exptPart": "trial",
            "trialNumber": 54,
            "roleCurrent": "receiver",
            "marblesSampled": 100,
            "probRed": 0.5,
            "practiceLambda": 5,
            "trialLambda": 8.1,
            "instructedLambda": "dishonest_big",
            "drawnRed": 55,
            "reportedRed": 64,
            "inferredRed": 56,
            "playerTrialScore": -1,
            "oppTrialScore": 1,
            "playerTotalScore": -346,
            "oppTotalScore": 234,
            "waitTime": 6865.75778379129,
            "responseTime": 1680742414452,
            "catchQuestion": "How many <b class=\"r\">red<\/b> marbles did your opponent report drawing? ",
            "catchKey": -1,
            "catchResponse": -1,
            "catchTime": 1680742334684,
            "trialTime": 0
        },
        {
            "exptPart": "trial",
            "trialNumber": 55,
            "roleCurrent": "receiver",
            "marblesSampled": 100,
            "probRed": 0.5,
            "practiceLambda": 5,
            "trialLambda": 8.1,
            "instructedLambda": "dishonest_big",
            "drawnRed": 72,
            "reportedRed": 75,
            "inferredRed": 69,
            "playerTrialScore": -3,
            "oppTrialScore": 0,
            "playerTotalScore": -349,
            "oppTotalScore": 234,
            "waitTime": 5637.066525402723,
            "responseTime": 1680742424423,
            "catchQuestion": "How many <b class=\"r\">red<\/b> marbles did your opponent report drawing? ",
            "catchKey": -1,
            "catchResponse": -1,
            "catchTime": 1680742334684,
            "trialTime": 0
        },
        {
            "exptPart": "trial",
            "trialNumber": 56,
            "roleCurrent": "receiver",
            "marblesSampled": 100,
            "probRed": 0.5,
            "practiceLambda": 5,
            "trialLambda": 8.1,
            "instructedLambda": "dishonest_big",
            "drawnRed": 86,
            "reportedRed": 93,
            "inferredRed": 60,
            "playerTrialScore": -26,
            "oppTrialScore": 0,
            "playerTotalScore": -375,
            "oppTotalScore": 234,
            "waitTime": 6597.99578795178,
            "responseTime": 1680742438123,
            "catchQuestion": "How many <b class=\"r\">red<\/b> marbles did your opponent report drawing? ",
            "catchKey": -1,
            "catchResponse": -1,
            "catchTime": 1680742334684,
            "trialTime": 0
        },
        {
            "exptPart": "trial",
            "trialNumber": 57,
            "roleCurrent": "receiver",
            "marblesSampled": 100,
            "probRed": 0.5,
            "practiceLambda": 5,
            "trialLambda": 8.1,
            "instructedLambda": "dishonest_big",
            "drawnRed": 64,
            "reportedRed": 73,
            "inferredRed": 67,
            "playerTrialScore": -3,
            "oppTrialScore": 3,
            "playerTotalScore": -378,
            "oppTotalScore": 237,
            "waitTime": 5169.600133303713,
            "responseTime": 1680742447500,
            "catchQuestion": "How many <b class=\"r\">red<\/b> marbles did your opponent report drawing? ",
            "catchKey": -1,
            "catchResponse": -1,
            "catchTime": 1680742334684,
            "trialTime": 0
        },
        {
            "exptPart": "trial",
            "trialNumber": 58,
            "roleCurrent": "receiver",
            "marblesSampled": 100,
            "probRed": 0.5,
            "practiceLambda": 5,
            "trialLambda": 8.1,
            "instructedLambda": "dishonest_big",
            "drawnRed": 47,
            "reportedRed": 51,
            "inferredRed": 47,
            "playerTrialScore": 0,
            "oppTrialScore": 0,
            "playerTotalScore": -378,
            "oppTotalScore": 237,
            "waitTime": 5475.422067161842,
            "responseTime": 1680742456640,
            "catchQuestion": "How many <b class=\"r\">red<\/b> marbles did your opponent report drawing? ",
            "catchKey": -1,
            "catchResponse": -1,
            "catchTime": 1680742334684,
            "trialTime": 0
        },
        {
            "exptPart": "trial",
            "trialNumber": 59,
            "roleCurrent": "receiver",
            "marblesSampled": 100,
            "probRed": 0.5,
            "practiceLambda": 5,
            "trialLambda": 8.1,
            "instructedLambda": "dishonest_big",
            "drawnRed": 19,
            "reportedRed": 30,
            "inferredRed": 27,
            "playerTrialScore": -8,
            "oppTrialScore": 8,
            "playerTotalScore": -386,
            "oppTotalScore": 245,
            "waitTime": 5153.477721292126,
            "responseTime": 1680742465843,
            "catchQuestion": "How many <b class=\"r\">red<\/b> marbles did your opponent report drawing? ",
            "catchKey": 30,
            "catchResponse": 30,
            "catchTime": 1680742465843,
            "trialTime": 0
        },
        {
            "exptPart": "trial",
            "trialNumber": 60,
            "roleCurrent": "receiver",
            "marblesSampled": 100,
            "probRed": 0.5,
            "practiceLambda": 5,
            "trialLambda": 8.1,
            "instructedLambda": "dishonest_big",
            "drawnRed": 24,
            "reportedRed": 29,
            "inferredRed": 27,
            "playerTrialScore": -3,
            "oppTrialScore": 3,
            "playerTotalScore": -389,
            "oppTotalScore": 248,
            "waitTime": 5627.635081899572,
            "responseTime": 1680742526558,
            "catchQuestion": "How many <b class=\"r\">red<\/b> marbles did your opponent report drawing? ",
            "catchKey": -1,
            "catchResponse": -1,
            "catchTime": 1680742526558,
            "trialTime": 0
        },
        {
            "exptPart": "trial",
            "trialNumber": 61,
            "roleCurrent": "receiver",
            "marblesSampled": 100,
            "probRed": 0.5,
            "practiceLambda": 5,
            "trialLambda": 8.1,
            "instructedLambda": "dishonest_big",
            "drawnRed": 44,
            "reportedRed": 49,
            "inferredRed": 45,
            "playerTrialScore": -1,
            "oppTrialScore": 1,
            "playerTotalScore": -390,
            "oppTotalScore": 249,
            "waitTime": 5841.171831558816,
            "responseTime": 1680742539197,
            "catchQuestion": "How many <b class=\"r\">red<\/b> marbles did your opponent report drawing? ",
            "catchKey": -1,
            "catchResponse": -1,
            "catchTime": 1680742526558,
            "trialTime": 0
        },
        {
            "exptPart": "trial",
            "trialNumber": 62,
            "roleCurrent": "receiver",
            "marblesSampled": 100,
            "probRed": 0.5,
            "practiceLambda": 5,
            "trialLambda": 8.1,
            "instructedLambda": "dishonest_big",
            "drawnRed": 49,
            "reportedRed": 57,
            "inferredRed": 50,
            "playerTrialScore": -1,
            "oppTrialScore": 1,
            "playerTotalScore": -391,
            "oppTotalScore": 250,
            "waitTime": 7374.4234662646895,
            "responseTime": 1680742552272,
            "catchQuestion": "How many <b class=\"r\">red<\/b> marbles did your opponent report drawing? ",
            "catchKey": -1,
            "catchResponse": -1,
            "catchTime": 1680742526558,
            "trialTime": 0
        },
        {
            "exptPart": "trial",
            "trialNumber": 63,
            "roleCurrent": "receiver",
            "marblesSampled": 100,
            "probRed": 0.5,
            "practiceLambda": 5,
            "trialLambda": 8.1,
            "instructedLambda": "dishonest_big",
            "drawnRed": 17,
            "reportedRed": 26,
            "inferredRed": 24,
            "playerTrialScore": -7,
            "oppTrialScore": 7,
            "playerTotalScore": -398,
            "oppTotalScore": 257,
            "waitTime": 5328.822535766115,
            "responseTime": 1680742562643,
            "catchQuestion": "How many <b class=\"r\">red<\/b> marbles did your opponent report drawing? ",
            "catchKey": -1,
            "catchResponse": -1,
            "catchTime": 1680742526558,
            "trialTime": 0
        },
        {
            "exptPart": "trial",
            "trialNumber": 64,
            "roleCurrent": "receiver",
            "marblesSampled": 100,
            "probRed": 0.5,
            "practiceLambda": 5,
            "trialLambda": 8.1,
            "instructedLambda": "dishonest_big",
            "drawnRed": 52,
            "reportedRed": 63,
            "inferredRed": 59,
            "playerTrialScore": -7,
            "oppTrialScore": 7,
            "playerTotalScore": -405,
            "oppTotalScore": 264,
            "waitTime": 5806.047223566482,
            "responseTime": 1680742573409,
            "catchQuestion": "How many <b class=\"r\">red<\/b> marbles did your opponent report drawing? ",
            "catchKey": -1,
            "catchResponse": -1,
            "catchTime": 1680742526558,
            "trialTime": 0
        },
        {
            "exptPart": "trial",
            "trialNumber": 65,
            "roleCurrent": "receiver",
            "marblesSampled": 100,
            "probRed": 0.5,
            "practiceLambda": 5,
            "trialLambda": 8.1,
            "instructedLambda": "dishonest_big",
            "drawnRed": 44,
            "reportedRed": 51,
            "inferredRed": 45,
            "playerTrialScore": -1,
            "oppTrialScore": 1,
            "playerTotalScore": -406,
            "oppTotalScore": 265,
            "waitTime": 5485.220065095455,
            "responseTime": 1680742585705,
            "catchQuestion": "How many <b class=\"r\">red<\/b> marbles did your opponent report drawing? ",
            "catchKey": -1,
            "catchResponse": -1,
            "catchTime": 1680742526558,
            "trialTime": 0
        },
        {
            "exptPart": "trial",
            "trialNumber": 66,
            "roleCurrent": "receiver",
            "marblesSampled": 100,
            "probRed": 0.5,
            "practiceLambda": 5,
            "trialLambda": 8.1,
            "instructedLambda": "dishonest_big",
            "drawnRed": 54,
            "reportedRed": 58,
            "inferredRed": 51,
            "playerTrialScore": -3,
            "oppTrialScore": 0,
            "playerTotalScore": -409,
            "oppTotalScore": 265,
            "waitTime": 5376.73198025652,
            "responseTime": 1680742595325,
            "catchQuestion": "How many <b class=\"r\">red<\/b> marbles did your opponent report drawing? ",
            "catchKey": -1,
            "catchResponse": -1,
            "catchTime": 1680742526558,
            "trialTime": 0
        },
        {
            "exptPart": "trial",
            "trialNumber": 67,
            "roleCurrent": "receiver",
            "marblesSampled": 100,
            "probRed": 0.5,
            "practiceLambda": 5,
            "trialLambda": 8.1,
            "instructedLambda": "dishonest_big",
            "drawnRed": 80,
            "reportedRed": 91,
            "inferredRed": 60,
            "playerTrialScore": -20,
            "oppTrialScore": 0,
            "playerTotalScore": -429,
            "oppTotalScore": 265,
            "waitTime": 6784.557987009198,
            "responseTime": 1680742606346,
            "catchQuestion": "How many <b class=\"r\">red<\/b> marbles did your opponent report drawing? ",
            "catchKey": -1,
            "catchResponse": -1,
            "catchTime": 1680742526558,
            "trialTime": 0
        },
        {
            "exptPart": "trial",
            "trialNumber": 68,
            "roleCurrent": "receiver",
            "marblesSampled": 100,
            "probRed": 0.5,
            "practiceLambda": 5,
            "trialLambda": 8.1,
            "instructedLambda": "dishonest_big",
            "drawnRed": 12,
            "reportedRed": 20,
            "inferredRed": 19,
            "playerTrialScore": -7,
            "oppTrialScore": 7,
            "playerTotalScore": -436,
            "oppTotalScore": 272,
            "waitTime": 5155.581395313982,
            "responseTime": 1680742615209,
            "catchQuestion": "How many <b class=\"r\">red<\/b> marbles did your opponent report drawing? ",
            "catchKey": 20,
            "catchResponse": 20,
            "catchTime": 1680742615209,
            "trialTime": 0
        },
        {
            "exptPart": "trial",
            "trialNumber": 69,
            "roleCurrent": "receiver",
            "marblesSampled": 100,
            "probRed": 0.5,
            "practiceLambda": 5,
            "trialLambda": 8.1,
            "instructedLambda": "dishonest_big",
            "drawnRed": 24,
            "reportedRed": 30,
            "inferredRed": 27,
            "playerTrialScore": -3,
            "oppTrialScore": 3,
            "playerTotalScore": -439,
            "oppTotalScore": 275,
            "waitTime": 6276.312346825354,
            "responseTime": 1680742652724,
            "catchQuestion": "How many <b class=\"r\">red<\/b> marbles did your opponent report drawing? ",
            "catchKey": -1,
            "catchResponse": -1,
            "catchTime": 1680742615209,
            "trialTime": 0
        },
        {
            "exptPart": "trial",
            "trialNumber": 70,
            "roleCurrent": "receiver",
            "marblesSampled": 100,
            "probRed": 0.5,
            "practiceLambda": 5,
            "trialLambda": 8.1,
            "instructedLambda": "dishonest_big",
            "drawnRed": 50,
            "reportedRed": 54,
            "inferredRed": 49,
            "playerTrialScore": -1,
            "oppTrialScore": 0,
            "playerTotalScore": -440,
            "oppTotalScore": 275,
            "waitTime": 5589.008545566682,
            "responseTime": 1680742662861,
            "catchQuestion": "How many <b class=\"r\">red<\/b> marbles did your opponent report drawing? ",
            "catchKey": 54,
            "catchResponse": 54,
            "catchTime": 1680742662861,
            "trialTime": 0
        },
        {
            "exptPart": "trial",
            "trialNumber": 71,
            "roleCurrent": "receiver",
            "marblesSampled": 100,
            "probRed": 0.5,
            "practiceLambda": 5,
            "trialLambda": 8.1,
            "instructedLambda": "dishonest_big",
            "drawnRed": 87,
            "reportedRed": 93,
            "inferredRed": 68,
            "playerTrialScore": -19,
            "oppTrialScore": 0,
            "playerTotalScore": -459,
            "oppTotalScore": 275,
            "waitTime": 5835.143388866912,
            "responseTime": 1680742681058,
            "catchQuestion": "How many <b class=\"r\">red<\/b> marbles did your opponent report drawing? ",
            "catchKey": -1,
            "catchResponse": -1,
            "catchTime": 1680742662861,
            "trialTime": 0
        },
        {
            "exptPart": "trial",
            "trialNumber": 72,
            "roleCurrent": "receiver",
            "marblesSampled": 100,
            "probRed": 0.5,
            "practiceLambda": 5,
            "trialLambda": 8.1,
            "instructedLambda": "dishonest_big",
            "drawnRed": 26,
            "reportedRed": 30,
            "inferredRed": 27,
            "playerTrialScore": -1,
            "oppTrialScore": 1,
            "playerTotalScore": -460,
            "oppTotalScore": 276,
            "waitTime": 6413.931917224932,
            "responseTime": 1680742691042,
            "catchQuestion": "How many <b class=\"r\">red<\/b> marbles did your opponent report drawing? ",
            "catchKey": -1,
            "catchResponse": -1,
            "catchTime": 1680742662861,
            "trialTime": 0
        },
        {
            "exptPart": "trial",
            "trialNumber": 73,
            "roleCurrent": "receiver",
            "marblesSampled": 100,
            "probRed": 0.5,
            "practiceLambda": 5,
            "trialLambda": 8.1,
            "instructedLambda": "dishonest_big",
            "drawnRed": 60,
            "reportedRed": 71,
            "inferredRed": 68,
            "playerTrialScore": -8,
            "oppTrialScore": 8,
            "playerTotalScore": -468,
            "oppTotalScore": 284,
            "waitTime": 6374.853324606646,
            "responseTime": 1680742708584,
            "catchQuestion": "How many <b class=\"r\">red<\/b> marbles did your opponent report drawing? ",
            "catchKey": -1,
            "catchResponse": -1,
            "catchTime": 1680742662861,
            "trialTime": 0
        },
        {
            "exptPart": "trial",
            "trialNumber": 74,
            "roleCurrent": "receiver",
            "marblesSampled": 100,
            "probRed": 0.5,
            "practiceLambda": 5,
            "trialLambda": 8.1,
            "instructedLambda": "dishonest_big",
            "drawnRed": 54,
            "reportedRed": 62,
            "inferredRed": 57,
            "playerTrialScore": -3,
            "oppTrialScore": 3,
            "playerTotalScore": -471,
            "oppTotalScore": 287,
            "waitTime": 6443.296752004132,
            "responseTime": 1680742725857,
            "catchQuestion": "How many <b class=\"r\">red<\/b> marbles did your opponent report drawing? ",
            "catchKey": -1,
            "catchResponse": -1,
            "catchTime": 1680742662861,
            "trialTime": 0
        },
        {
            "exptPart": "trial",
            "trialNumber": 75,
            "roleCurrent": "receiver",
            "marblesSampled": 100,
            "probRed": 0.5,
            "practiceLambda": 5,
            "trialLambda": 8.1,
            "instructedLambda": "dishonest_big",
            "drawnRed": 70,
            "reportedRed": 78,
            "inferredRed": 70,
            "playerTrialScore": 0,
            "oppTrialScore": 0,
            "playerTotalScore": -471,
            "oppTotalScore": 287,
            "waitTime": 5393.218363816315,
            "responseTime": 1680742736927,
            "catchQuestion": "How many <b class=\"r\">red<\/b> marbles did your opponent report drawing? ",
            "catchKey": -1,
            "catchResponse": -1,
            "catchTime": 1680742662861,
            "trialTime": 0
        },
        {
            "exptPart": "trial",
            "trialNumber": 76,
            "roleCurrent": "receiver",
            "marblesSampled": 100,
            "probRed": 0.5,
            "practiceLambda": 5,
            "trialLambda": 8.1,
            "instructedLambda": "dishonest_big",
            "drawnRed": 33,
            "reportedRed": 42,
            "inferredRed": 39,
            "playerTrialScore": -6,
            "oppTrialScore": 6,
            "playerTotalScore": -477,
            "oppTotalScore": 293,
            "waitTime": 6487.069990166683,
            "responseTime": 1680742748845,
            "catchQuestion": "How many <b class=\"r\">red<\/b> marbles did your opponent report drawing? ",
            "catchKey": -1,
            "catchResponse": -1,
            "catchTime": 1680742662861,
            "trialTime": 0
        },
        {
            "exptPart": "trial",
            "trialNumber": 77,
            "roleCurrent": "receiver",
            "marblesSampled": 100,
            "probRed": 0.5,
            "practiceLambda": 5,
            "trialLambda": 8.1,
            "instructedLambda": "dishonest_big",
            "drawnRed": 47,
            "reportedRed": 55,
            "inferredRed": 50,
            "playerTrialScore": -3,
            "oppTrialScore": 3,
            "playerTotalScore": -480,
            "oppTotalScore": 296,
            "waitTime": 6497.912222558145,
            "responseTime": 1680742759563,
            "catchQuestion": "How many <b class=\"r\">red<\/b> marbles did your opponent report drawing? ",
            "catchKey": -1,
            "catchResponse": -1,
            "catchTime": 1680742662861,
            "trialTime": 0
        },
        {
            "exptPart": "trial",
            "trialNumber": 78,
            "roleCurrent": "receiver",
            "marblesSampled": 100,
            "probRed": 0.5,
            "practiceLambda": 5,
            "trialLambda": 8.1,
            "instructedLambda": "dishonest_big",
            "drawnRed": 76,
            "reportedRed": 83,
            "inferredRed": 70,
            "playerTrialScore": -6,
            "oppTrialScore": 0,
            "playerTotalScore": -486,
            "oppTotalScore": 296,
            "waitTime": 5522.325618090676,
            "responseTime": 1680742772079,
            "catchQuestion": "How many <b class=\"r\">red<\/b> marbles did your opponent report drawing? ",
            "catchKey": -1,
            "catchResponse": -1,
            "catchTime": 1680742662861,
            "trialTime": 0
        },
        {
            "exptPart": "trial",
            "trialNumber": 79,
            "roleCurrent": "receiver",
            "marblesSampled": 100,
            "probRed": 0.5,
            "practiceLambda": 5,
            "trialLambda": 8.1,
            "instructedLambda": "dishonest_big",
            "drawnRed": 43,
            "reportedRed": 54,
            "inferredRed": 49,
            "playerTrialScore": -6,
            "oppTrialScore": 6,
            "playerTotalScore": -492,
            "oppTotalScore": 302,
            "waitTime": 6414.976164603179,
            "responseTime": 1680742783076,
            "catchQuestion": "How many <b class=\"r\">red<\/b> marbles did your opponent report drawing? ",
            "catchKey": -1,
            "catchResponse": -1,
            "catchTime": 1680742662861,
            "trialTime": 0
        },
        {
            "exptPart": "trial",
            "trialNumber": 80,
            "roleCurrent": "receiver",
            "marblesSampled": 100,
            "probRed": 0.5,
            "practiceLambda": 5,
            "trialLambda": 8.1,
            "instructedLambda": "dishonest_big",
            "drawnRed": 43,
            "reportedRed": 49,
            "inferredRed": 45,
            "playerTrialScore": -2,
            "oppTrialScore": 2,
            "playerTotalScore": -494,
            "oppTotalScore": 304,
            "waitTime": 5702.8317415414585,
            "responseTime": 1680742792303,
            "catchQuestion": "How many <b class=\"r\">red<\/b> marbles did your opponent report drawing? ",
            "catchKey": -1,
            "catchResponse": -1,
            "catchTime": 1680742792303,
            "trialTime": 0
        },
        {
            "exptPart": "trial",
            "trialNumber": 81,
            "roleCurrent": "receiver",
            "marblesSampled": 100,
            "probRed": 0.5,
            "practiceLambda": 5,
            "trialLambda": 8.1,
            "instructedLambda": "dishonest_big",
            "drawnRed": 45,
            "reportedRed": 53,
            "inferredRed": 49,
            "playerTrialScore": -4,
            "oppTrialScore": 4,
            "playerTotalScore": -498,
            "oppTotalScore": 308,
            "waitTime": 6226.608298209108,
            "responseTime": 1680742805569,
            "catchQuestion": "How many <b class=\"r\">red<\/b> marbles did your opponent report drawing? ",
            "catchKey": 53,
            "catchResponse": 53,
            "catchTime": 1680742805569,
            "trialTime": 0
        },
        {
            "exptPart": "trial",
            "trialNumber": 82,
            "roleCurrent": "receiver",
            "marblesSampled": 100,
            "probRed": 0.5,
            "practiceLambda": 5,
            "trialLambda": 8.1,
            "instructedLambda": "dishonest_big",
            "drawnRed": 68,
            "reportedRed": 77,
            "inferredRed": 67,
            "playerTrialScore": -1,
            "oppTrialScore": 0,
            "playerTotalScore": -499,
            "oppTotalScore": 308,
            "waitTime": 5271.381685000837,
            "responseTime": 1680742824730,
            "catchQuestion": "How many <b class=\"r\">red<\/b> marbles did your opponent report drawing? ",
            "catchKey": -1,
            "catchResponse": -1,
            "catchTime": 1680742805569,
            "trialTime": 0
        },
        {
            "exptPart": "trial",
            "trialNumber": 83,
            "roleCurrent": "receiver",
            "marblesSampled": 100,
            "probRed": 0.5,
            "practiceLambda": 5,
            "trialLambda": 8.1,
            "instructedLambda": "dishonest_big",
            "drawnRed": 62,
            "reportedRed": 73,
            "inferredRed": 67,
            "playerTrialScore": -5,
            "oppTrialScore": 5,
            "playerTotalScore": -504,
            "oppTotalScore": 313,
            "waitTime": 6060.550466048584,
            "responseTime": 1680742838181,
            "catchQuestion": "How many <b class=\"r\">red<\/b> marbles did your opponent report drawing? ",
            "catchKey": -1,
            "catchResponse": -1,
            "catchTime": 1680742805569,
            "trialTime": 0
        },
        {
            "exptPart": "trial",
            "trialNumber": 84,
            "roleCurrent": "receiver",
            "marblesSampled": 100,
            "probRed": 0.5,
            "practiceLambda": 5,
            "trialLambda": 8.1,
            "instructedLambda": "dishonest_big",
            "drawnRed": 35,
            "reportedRed": 42,
            "inferredRed": 39,
            "playerTrialScore": -4,
            "oppTrialScore": 4,
            "playerTotalScore": -508,
            "oppTotalScore": 317,
            "waitTime": 5158.398883541789,
            "responseTime": 1680742847061,
            "catchQuestion": "How many <b class=\"r\">red<\/b> marbles did your opponent report drawing? ",
            "catchKey": -1,
            "catchResponse": -1,
            "catchTime": 1680742805569,
            "trialTime": 0
        },
        {
            "exptPart": "trial",
            "trialNumber": 85,
            "roleCurrent": "receiver",
            "marblesSampled": 100,
            "probRed": 0.5,
            "practiceLambda": 5,
            "trialLambda": 8.1,
            "instructedLambda": "dishonest_big",
            "drawnRed": 81,
            "reportedRed": 89,
            "inferredRed": 70,
            "playerTrialScore": -11,
            "oppTrialScore": 0,
            "playerTotalScore": -519,
            "oppTotalScore": 317,
            "waitTime": 6445.773268758177,
            "responseTime": 1680742856941,
            "catchQuestion": "How many <b class=\"r\">red<\/b> marbles did your opponent report drawing? ",
            "catchKey": -1,
            "catchResponse": -1,
            "catchTime": 1680742805569,
            "trialTime": 0
        },
        {
            "exptPart": "trial",
            "trialNumber": 86,
            "roleCurrent": "receiver",
            "marblesSampled": 100,
            "probRed": 0.5,
            "practiceLambda": 5,
            "trialLambda": 8.1,
            "instructedLambda": "dishonest_big",
            "drawnRed": 68,
            "reportedRed": 73,
            "inferredRed": 65,
            "playerTrialScore": -3,
            "oppTrialScore": 0,
            "playerTotalScore": -522,
            "oppTotalScore": 317,
            "waitTime": 5869.1055826156935,
            "responseTime": 1680742889316,
            "catchQuestion": "How many <b class=\"r\">red<\/b> marbles did your opponent report drawing? ",
            "catchKey": -1,
            "catchResponse": -1,
            "catchTime": 1680742805569,
            "trialTime": 0
        },
        {
            "exptPart": "trial",
            "trialNumber": 87,
            "roleCurrent": "receiver",
            "marblesSampled": 100,
            "probRed": 0.5,
            "practiceLambda": 5,
            "trialLambda": 8.1,
            "instructedLambda": "dishonest_big",
            "drawnRed": 43,
            "reportedRed": 52,
            "inferredRed": 47,
            "playerTrialScore": -4,
            "oppTrialScore": 4,
            "playerTotalScore": -526,
            "oppTotalScore": 321,
            "waitTime": 6083.888039970639,
            "responseTime": 1680742900361,
            "catchQuestion": "How many <b class=\"r\">red<\/b> marbles did your opponent report drawing? ",
            "catchKey": -1,
            "catchResponse": -1,
            "catchTime": 1680742805569,
            "trialTime": 0
        },
        {
            "exptPart": "trial",
            "trialNumber": 88,
            "roleCurrent": "receiver",
            "marblesSampled": 100,
            "probRed": 0.5,
            "practiceLambda": 5,
            "trialLambda": 8.1,
            "instructedLambda": "dishonest_big",
            "drawnRed": 35,
            "reportedRed": 45,
            "inferredRed": 42,
            "playerTrialScore": -7,
            "oppTrialScore": 7,
            "playerTotalScore": -533,
            "oppTotalScore": 328,
            "waitTime": 7006.50635681327,
            "responseTime": 1680742930354,
            "catchQuestion": "How many <b class=\"r\">red<\/b> marbles did your opponent report drawing? ",
            "catchKey": -1,
            "catchResponse": -1,
            "catchTime": 1680742805569,
            "trialTime": 0
        },
        {
            "exptPart": "trial",
            "trialNumber": 89,
            "roleCurrent": "receiver",
            "marblesSampled": 100,
            "probRed": 0.5,
            "practiceLambda": 5,
            "trialLambda": 8.1,
            "instructedLambda": "dishonest_big",
            "drawnRed": 35,
            "reportedRed": 41,
            "inferredRed": 36,
            "playerTrialScore": -1,
            "oppTrialScore": 1,
            "playerTotalScore": -534,
            "oppTotalScore": 329,
            "waitTime": 5792.000837121709,
            "responseTime": 1680742939597,
            "catchQuestion": "How many <b class=\"r\">red<\/b> marbles did your opponent report drawing? ",
            "catchKey": -1,
            "catchResponse": -1,
            "catchTime": 1680742805569,
            "trialTime": 0
        },
        {
            "exptPart": "trial",
            "trialNumber": 90,
            "roleCurrent": "receiver",
            "marblesSampled": 100,
            "probRed": 0.5,
            "practiceLambda": 5,
            "trialLambda": 8.1,
            "instructedLambda": "dishonest_big",
            "drawnRed": 84,
            "reportedRed": 93,
            "inferredRed": 60,
            "playerTrialScore": -24,
            "oppTrialScore": 0,
            "playerTotalScore": -558,
            "oppTotalScore": 329,
            "waitTime": 5686.027927236959,
            "responseTime": 1680742951814,
            "catchQuestion": "How many <b class=\"r\">red<\/b> marbles did your opponent report drawing? ",
            "catchKey": -1,
            "catchResponse": -1,
            "catchTime": 1680742951814,
            "trialTime": 0
        },
        {
            "exptPart": "trial",
            "trialNumber": 91,
            "roleCurrent": "receiver",
            "marblesSampled": 100,
            "probRed": 0.5,
            "practiceLambda": 5,
            "trialLambda": 8.1,
            "instructedLambda": "dishonest_big",
            "drawnRed": 82,
            "reportedRed": 89,
            "inferredRed": 50,
            "playerTrialScore": -32,
            "oppTrialScore": 0,
            "playerTotalScore": -590,
            "oppTotalScore": 329,
            "waitTime": 5846.118795017302,
            "responseTime": 1680742963158,
            "catchQuestion": "How many <b class=\"r\">red<\/b> marbles did your opponent report drawing? ",
            "catchKey": 89,
            "catchResponse": 90,
            "catchTime": 1680742963159,
            "trialTime": 0
        },
        {
            "exptPart": "trial",
            "trialNumber": 92,
            "roleCurrent": "receiver",
            "marblesSampled": 100,
            "probRed": 0.5,
            "practiceLambda": 5,
            "trialLambda": 8.1,
            "instructedLambda": "dishonest_big",
            "drawnRed": 77,
            "reportedRed": 82,
            "inferredRed": 56,
            "playerTrialScore": -21,
            "oppTrialScore": 0,
            "playerTotalScore": -611,
            "oppTotalScore": 329,
            "waitTime": 5485.824067363549,
            "responseTime": 1680742993390,
            "catchQuestion": "How many <b class=\"r\">red<\/b> marbles did your opponent report drawing? ",
            "catchKey": -1,
            "catchResponse": -1,
            "catchTime": 1680742963159,
            "trialTime": 0
        },
        {
            "exptPart": "trial",
            "trialNumber": 93,
            "roleCurrent": "receiver",
            "marblesSampled": 100,
            "probRed": 0.5,
            "practiceLambda": 5,
            "trialLambda": 8.1,
            "instructedLambda": "dishonest_big",
            "drawnRed": 42,
            "reportedRed": 49,
            "inferredRed": 46,
            "playerTrialScore": -4,
            "oppTrialScore": 4,
            "playerTotalScore": -615,
            "oppTotalScore": 333,
            "waitTime": 7314.599219739468,
            "responseTime": 1680743005036,
            "catchQuestion": "How many <b class=\"r\">red<\/b> marbles did your opponent report drawing? ",
            "catchKey": -1,
            "catchResponse": -1,
            "catchTime": 1680742963159,
            "trialTime": 0
        },
        {
            "exptPart": "trial",
            "trialNumber": 94,
            "roleCurrent": "receiver",
            "marblesSampled": 100,
            "probRed": 0.5,
            "practiceLambda": 5,
            "trialLambda": 8.1,
            "instructedLambda": "dishonest_big",
            "drawnRed": 62,
            "reportedRed": 70,
            "inferredRed": 57,
            "playerTrialScore": -5,
            "oppTrialScore": 0,
            "playerTotalScore": -620,
            "oppTotalScore": 333,
            "waitTime": 5813.720728477807,
            "responseTime": 1680743014890,
            "catchQuestion": "How many <b class=\"r\">red<\/b> marbles did your opponent report drawing? ",
            "catchKey": -1,
            "catchResponse": -1,
            "catchTime": 1680742963159,
            "trialTime": 0
        },
        {
            "exptPart": "trial",
            "trialNumber": 95,
            "roleCurrent": "receiver",
            "marblesSampled": 100,
            "probRed": 0.5,
            "practiceLambda": 5,
            "trialLambda": 8.1,
            "instructedLambda": "dishonest_big",
            "drawnRed": 62,
            "reportedRed": 68,
            "inferredRed": 55,
            "playerTrialScore": -7,
            "oppTrialScore": 0,
            "playerTotalScore": -627,
            "oppTotalScore": 333,
            "waitTime": 6151.710839703848,
            "responseTime": 1680743026952,
            "catchQuestion": "How many <b class=\"r\">red<\/b> marbles did your opponent report drawing? ",
            "catchKey": -1,
            "catchResponse": -1,
            "catchTime": 1680742963159,
            "trialTime": 0
        },
        {
            "exptPart": "trial",
            "trialNumber": 96,
            "roleCurrent": "receiver",
            "marblesSampled": 100,
            "probRed": 0.5,
            "practiceLambda": 5,
            "trialLambda": 8.1,
            "instructedLambda": "dishonest_big",
            "drawnRed": 21,
            "reportedRed": 26,
            "inferredRed": 25,
            "playerTrialScore": -4,
            "oppTrialScore": 4,
            "playerTotalScore": -631,
            "oppTotalScore": 337,
            "waitTime": 6639.360102775468,
            "responseTime": 1680743038815,
            "catchQuestion": "How many <b class=\"r\">red<\/b> marbles did your opponent report drawing? ",
            "catchKey": -1,
            "catchResponse": -1,
            "catchTime": 1680742963159,
            "trialTime": 0
        },
        {
            "exptPart": "trial",
            "trialNumber": 97,
            "roleCurrent": "receiver",
            "marblesSampled": 100,
            "probRed": 0.5,
            "practiceLambda": 5,
            "trialLambda": 8.1,
            "instructedLambda": "dishonest_big",
            "drawnRed": 78,
            "reportedRed": 82,
            "inferredRed": 55,
            "playerTrialScore": -23,
            "oppTrialScore": 0,
            "playerTotalScore": -654,
            "oppTotalScore": 337,
            "waitTime": 7197.338230689526,
            "responseTime": 1680743049916,
            "catchQuestion": "How many <b class=\"r\">red<\/b> marbles did your opponent report drawing? ",
            "catchKey": -1,
            "catchResponse": -1,
            "catchTime": 1680742963159,
            "trialTime": 0
        },
        {
            "exptPart": "trial",
            "trialNumber": 98,
            "roleCurrent": "receiver",
            "marblesSampled": 100,
            "probRed": 0.5,
            "practiceLambda": 5,
            "trialLambda": 8.1,
            "instructedLambda": "dishonest_big",
            "drawnRed": 50,
            "reportedRed": 61,
            "inferredRed": 55,
            "playerTrialScore": -5,
            "oppTrialScore": 5,
            "playerTotalScore": -659,
            "oppTotalScore": 342,
            "waitTime": 5959.894733001209,
            "responseTime": 1680743058964,
            "catchQuestion": "How many <b class=\"r\">red<\/b> marbles did your opponent report drawing? ",
            "catchKey": -1,
            "catchResponse": -1,
            "catchTime": 1680742963159,
            "trialTime": 0
        },
        {
            "exptPart": "trial",
            "trialNumber": 99,
            "roleCurrent": "receiver",
            "marblesSampled": 100,
            "probRed": 0.5,
            "practiceLambda": 5,
            "trialLambda": 8.1,
            "instructedLambda": "dishonest_big",
            "drawnRed": 28,
            "reportedRed": 36,
            "inferredRed": 33,
            "playerTrialScore": -5,
            "oppTrialScore": 5,
            "playerTotalScore": -664,
            "oppTotalScore": 347,
            "waitTime": 6397.329643141626,
            "responseTime": 1680743070299,
            "catchQuestion": "How many <b class=\"r\">red<\/b> marbles did your opponent report drawing? ",
            "catchKey": -1,
            "catchResponse": -1,
            "catchTime": 1680742963159,
            "trialTime": 0
        },
        {
            "exptPart": "trial",
            "trialNumber": 100,
            "roleCurrent": "receiver",
            "marblesSampled": 100,
            "probRed": 0.5,
            "practiceLambda": 5,
            "trialLambda": 8.1,
            "instructedLambda": "dishonest_big",
            "drawnRed": 30,
            "reportedRed": 36,
            "inferredRed": 33,
            "playerTrialScore": -3,
            "oppTrialScore": 3,
            "playerTotalScore": -667,
            "oppTotalScore": 350,
            "waitTime": 6004.6955629099775,
            "responseTime": 1680743079339,
            "catchQuestion": "How many <b class=\"r\">red<\/b> marbles did your opponent report drawing? ",
            "catchKey": -1,
            "catchResponse": -1,
            "catchTime": 1680743079339,
            "trialTime": 0
        }
    ]
}