{
    "client": {
        "type": "sona",
        "experiment_id": 2228,
        "credit_token": "b315147ae43241ea9c65086cb510cfb7",
        "survey_code": "39002",
        "sid": "sona-39002",
        "window": {
            "width": 1536,
            "height": 714
        },
        "screen": {
            "width": 1536,
            "height": 864
        },
        "userAgent": "Mozilla\/5.0 (Windows NT 10.0; Win64; x64) AppleWebKit\/537.36 (KHTML, like Gecko) Chrome\/111.0.0.0 Safari\/537.36",
        "score": 0,
        "bonus": 0
    },
    "expt": {
        "saveURL": "submit.simple.php",
        "trials": 100,
        "practiceTrials": 2,
        "marblesSampled": 100,
        "probRed": 0.5,
        "practiceLambdaAI": 5,
        "lambdaAI": 0.3,
        "roles": [
            "sender",
            "receiver"
        ],
        "cost": "unif",
        "goal": "over",
        "oppDishonesty": "honest",
        "catchTrials": [
            84,
            40,
            76,
            90,
            44,
            16,
            14,
            99,
            81,
            22
        ],
        "scoreTotal": {
            "player": -2154,
            "opp": 168
        },
        "sona": {
            "experiment_id": 2228,
            "credit_token": "b315147ae43241ea9c65086cb510cfb7"
        },
        "pilot": false,
        "debug": false
    },
    "trials": [
        {
            "exptPart": "practice",
            "trialNumber": 1,
            "roleCurrent": "sender",
            "marblesSampled": 100,
            "probRed": 0.5,
            "practiceLambda": 5,
            "trialLambda": 0.3,
            "instructedLambda": "honest",
            "drawnRed": 16,
            "reportedRed": 19,
            "inferredRed": 15,
            "playerTrialScore": 0,
            "oppTrialScore": -1,
            "playerTotalScore": 0,
            "oppTotalScore": -1,
            "waitTime": 2598.918936915703,
            "responseTime": 1680793974510,
            "catchQuestion": "How many <b class=\"r\">red<\/b> marbles did you actually draw (before any changes)? ",
            "catchKey": 16,
            "catchResponse": 18,
            "catchTime": 1680793974511,
            "trialTime": 0
        },
        {
            "exptPart": "practice",
            "trialNumber": 2,
            "roleCurrent": "receiver",
            "marblesSampled": 100,
            "probRed": 0.5,
            "practiceLambda": 5,
            "trialLambda": 0.3,
            "instructedLambda": "honest",
            "drawnRed": 84,
            "reportedRed": 94,
            "inferredRed": 90,
            "playerTrialScore": -6,
            "oppTrialScore": 6,
            "playerTotalScore": -6,
            "oppTotalScore": 5,
            "waitTime": 5746.432698008093,
            "responseTime": 1680794024710,
            "catchQuestion": "How many <b class=\"r\">red<\/b> marbles did your opponent report drawing? ",
            "catchKey": 94,
            "catchResponse": 90,
            "catchTime": 1680794024710,
            "trialTime": 0
        },
        {
            "exptPart": "trial",
            "trialNumber": 1,
            "roleCurrent": "receiver",
            "marblesSampled": 100,
            "probRed": 0.5,
            "practiceLambda": 5,
            "trialLambda": 0.3,
            "instructedLambda": "honest",
            "drawnRed": 84,
            "reportedRed": 85,
            "inferredRed": 76,
            "playerTrialScore": -8,
            "oppTrialScore": 0,
            "playerTotalScore": -8,
            "oppTotalScore": 0,
            "waitTime": 6668.148507311096,
            "responseTime": 1680794067626,
            "catchQuestion": "How many <b class=\"r\">red<\/b> marbles did your opponent report drawing? ",
            "catchKey": -1,
            "catchResponse": -1,
            "catchTime": 1680794024710,
            "trialTime": 0
        },
        {
            "exptPart": "trial",
            "trialNumber": 2,
            "roleCurrent": "receiver",
            "marblesSampled": 100,
            "probRed": 0.5,
            "practiceLambda": 5,
            "trialLambda": 0.3,
            "instructedLambda": "honest",
            "drawnRed": 86,
            "reportedRed": 87,
            "inferredRed": 75,
            "playerTrialScore": -11,
            "oppTrialScore": 0,
            "playerTotalScore": -19,
            "oppTotalScore": 0,
            "waitTime": 6512.912530771648,
            "responseTime": 1680794085082,
            "catchQuestion": "How many <b class=\"r\">red<\/b> marbles did your opponent report drawing? ",
            "catchKey": -1,
            "catchResponse": -1,
            "catchTime": 1680794024710,
            "trialTime": 0
        },
        {
            "exptPart": "trial",
            "trialNumber": 3,
            "roleCurrent": "receiver",
            "marblesSampled": 100,
            "probRed": 0.5,
            "practiceLambda": 5,
            "trialLambda": 0.3,
            "instructedLambda": "honest",
            "drawnRed": 70,
            "reportedRed": 70,
            "inferredRed": 75,
            "playerTrialScore": -5,
            "oppTrialScore": 5,
            "playerTotalScore": -24,
            "oppTotalScore": 5,
            "waitTime": 6102.507976548918,
            "responseTime": 1680794111482,
            "catchQuestion": "How many <b class=\"r\">red<\/b> marbles did your opponent report drawing? ",
            "catchKey": -1,
            "catchResponse": -1,
            "catchTime": 1680794024710,
            "trialTime": 0
        },
        {
            "exptPart": "trial",
            "trialNumber": 4,
            "roleCurrent": "receiver",
            "marblesSampled": 100,
            "probRed": 0.5,
            "practiceLambda": 5,
            "trialLambda": 0.3,
            "instructedLambda": "honest",
            "drawnRed": 44,
            "reportedRed": 44,
            "inferredRed": 84,
            "playerTrialScore": -40,
            "oppTrialScore": 40,
            "playerTotalScore": -64,
            "oppTotalScore": 45,
            "waitTime": 5523.601449076314,
            "responseTime": 1680794129645,
            "catchQuestion": "How many <b class=\"r\">red<\/b> marbles did your opponent report drawing? ",
            "catchKey": -1,
            "catchResponse": -1,
            "catchTime": 1680794024710,
            "trialTime": 0
        },
        {
            "exptPart": "trial",
            "trialNumber": 5,
            "roleCurrent": "receiver",
            "marblesSampled": 100,
            "probRed": 0.5,
            "practiceLambda": 5,
            "trialLambda": 0.3,
            "instructedLambda": "honest",
            "drawnRed": 42,
            "reportedRed": 43,
            "inferredRed": 65,
            "playerTrialScore": -23,
            "oppTrialScore": 23,
            "playerTotalScore": -87,
            "oppTotalScore": 68,
            "waitTime": 7217.323705308306,
            "responseTime": 1680794153325,
            "catchQuestion": "How many <b class=\"r\">red<\/b> marbles did your opponent report drawing? ",
            "catchKey": -1,
            "catchResponse": -1,
            "catchTime": 1680794024710,
            "trialTime": 0
        },
        {
            "exptPart": "trial",
            "trialNumber": 6,
            "roleCurrent": "receiver",
            "marblesSampled": 100,
            "probRed": 0.5,
            "practiceLambda": 5,
            "trialLambda": 0.3,
            "instructedLambda": "honest",
            "drawnRed": 27,
            "reportedRed": 27,
            "inferredRed": 16,
            "playerTrialScore": -11,
            "oppTrialScore": 0,
            "playerTotalScore": -98,
            "oppTotalScore": 68,
            "waitTime": 5486.776990749485,
            "responseTime": 1680794168910,
            "catchQuestion": "How many <b class=\"r\">red<\/b> marbles did your opponent report drawing? ",
            "catchKey": -1,
            "catchResponse": -1,
            "catchTime": 1680794024710,
            "trialTime": 0
        },
        {
            "exptPart": "trial",
            "trialNumber": 7,
            "roleCurrent": "receiver",
            "marblesSampled": 100,
            "probRed": 0.5,
            "practiceLambda": 5,
            "trialLambda": 0.3,
            "instructedLambda": "honest",
            "drawnRed": 70,
            "reportedRed": 70,
            "inferredRed": 16,
            "playerTrialScore": -54,
            "oppTrialScore": 0,
            "playerTotalScore": -152,
            "oppTotalScore": 68,
            "waitTime": 5967.437584368197,
            "responseTime": 1680794187016,
            "catchQuestion": "How many <b class=\"r\">red<\/b> marbles did your opponent report drawing? ",
            "catchKey": -1,
            "catchResponse": -1,
            "catchTime": 1680794024710,
            "trialTime": 0
        },
        {
            "exptPart": "trial",
            "trialNumber": 8,
            "roleCurrent": "receiver",
            "marblesSampled": 100,
            "probRed": 0.5,
            "practiceLambda": 5,
            "trialLambda": 0.3,
            "instructedLambda": "honest",
            "drawnRed": 48,
            "reportedRed": 48,
            "inferredRed": 25,
            "playerTrialScore": -23,
            "oppTrialScore": 0,
            "playerTotalScore": -175,
            "oppTotalScore": 68,
            "waitTime": 5158.508967145307,
            "responseTime": 1680794204105,
            "catchQuestion": "How many <b class=\"r\">red<\/b> marbles did your opponent report drawing? ",
            "catchKey": -1,
            "catchResponse": -1,
            "catchTime": 1680794024710,
            "trialTime": 0
        },
        {
            "exptPart": "trial",
            "trialNumber": 9,
            "roleCurrent": "receiver",
            "marblesSampled": 100,
            "probRed": 0.5,
            "practiceLambda": 5,
            "trialLambda": 0.3,
            "instructedLambda": "honest",
            "drawnRed": 42,
            "reportedRed": 42,
            "inferredRed": 28,
            "playerTrialScore": -14,
            "oppTrialScore": 0,
            "playerTotalScore": -189,
            "oppTotalScore": 68,
            "waitTime": 5618.162691556042,
            "responseTime": 1680794215463,
            "catchQuestion": "How many <b class=\"r\">red<\/b> marbles did your opponent report drawing? ",
            "catchKey": -1,
            "catchResponse": -1,
            "catchTime": 1680794024710,
            "trialTime": 0
        },
        {
            "exptPart": "trial",
            "trialNumber": 10,
            "roleCurrent": "receiver",
            "marblesSampled": 100,
            "probRed": 0.5,
            "practiceLambda": 5,
            "trialLambda": 0.3,
            "instructedLambda": "honest",
            "drawnRed": 48,
            "reportedRed": 48,
            "inferredRed": 24,
            "playerTrialScore": -24,
            "oppTrialScore": 0,
            "playerTotalScore": -213,
            "oppTotalScore": 68,
            "waitTime": 7024.056017188976,
            "responseTime": 1680794227824,
            "catchQuestion": "How many <b class=\"r\">red<\/b> marbles did your opponent report drawing? ",
            "catchKey": -1,
            "catchResponse": -1,
            "catchTime": 1680794227824,
            "trialTime": 0
        },
        {
            "exptPart": "trial",
            "trialNumber": 11,
            "roleCurrent": "receiver",
            "marblesSampled": 100,
            "probRed": 0.5,
            "practiceLambda": 5,
            "trialLambda": 0.3,
            "instructedLambda": "honest",
            "drawnRed": 74,
            "reportedRed": 74,
            "inferredRed": 71,
            "playerTrialScore": -3,
            "oppTrialScore": 0,
            "playerTotalScore": -216,
            "oppTotalScore": 68,
            "waitTime": 5829.981214112088,
            "responseTime": 1680794245433,
            "catchQuestion": "How many <b class=\"r\">red<\/b> marbles did your opponent report drawing? ",
            "catchKey": -1,
            "catchResponse": -1,
            "catchTime": 1680794227824,
            "trialTime": 0
        },
        {
            "exptPart": "trial",
            "trialNumber": 12,
            "roleCurrent": "receiver",
            "marblesSampled": 100,
            "probRed": 0.5,
            "practiceLambda": 5,
            "trialLambda": 0.3,
            "instructedLambda": "honest",
            "drawnRed": 46,
            "reportedRed": 46,
            "inferredRed": 42,
            "playerTrialScore": -4,
            "oppTrialScore": 0,
            "playerTotalScore": -220,
            "oppTotalScore": 68,
            "waitTime": 5702.3507971537165,
            "responseTime": 1680794256648,
            "catchQuestion": "How many <b class=\"r\">red<\/b> marbles did your opponent report drawing? ",
            "catchKey": -1,
            "catchResponse": -1,
            "catchTime": 1680794227824,
            "trialTime": 0
        },
        {
            "exptPart": "trial",
            "trialNumber": 13,
            "roleCurrent": "receiver",
            "marblesSampled": 100,
            "probRed": 0.5,
            "practiceLambda": 5,
            "trialLambda": 0.3,
            "instructedLambda": "honest",
            "drawnRed": 81,
            "reportedRed": 82,
            "inferredRed": 77,
            "playerTrialScore": -4,
            "oppTrialScore": 0,
            "playerTotalScore": -224,
            "oppTotalScore": 68,
            "waitTime": 7071.557330401236,
            "responseTime": 1680794272010,
            "catchQuestion": "How many <b class=\"r\">red<\/b> marbles did your opponent report drawing? ",
            "catchKey": -1,
            "catchResponse": -1,
            "catchTime": 1680794227824,
            "trialTime": 0
        },
        {
            "exptPart": "trial",
            "trialNumber": 14,
            "roleCurrent": "receiver",
            "marblesSampled": 100,
            "probRed": 0.5,
            "practiceLambda": 5,
            "trialLambda": 0.3,
            "instructedLambda": "honest",
            "drawnRed": 56,
            "reportedRed": 56,
            "inferredRed": 52,
            "playerTrialScore": -4,
            "oppTrialScore": 0,
            "playerTotalScore": -228,
            "oppTotalScore": 68,
            "waitTime": 7114.106501694838,
            "responseTime": 1680794286487,
            "catchQuestion": "How many <b class=\"r\">red<\/b> marbles did your opponent report drawing? ",
            "catchKey": -1,
            "catchResponse": -1,
            "catchTime": 1680794227824,
            "trialTime": 0
        },
        {
            "exptPart": "trial",
            "trialNumber": 15,
            "roleCurrent": "receiver",
            "marblesSampled": 100,
            "probRed": 0.5,
            "practiceLambda": 5,
            "trialLambda": 0.3,
            "instructedLambda": "honest",
            "drawnRed": 64,
            "reportedRed": 64,
            "inferredRed": 61,
            "playerTrialScore": -3,
            "oppTrialScore": 0,
            "playerTotalScore": -231,
            "oppTotalScore": 68,
            "waitTime": 7068.601807010945,
            "responseTime": 1680794305247,
            "catchQuestion": "How many <b class=\"r\">red<\/b> marbles did your opponent report drawing? ",
            "catchKey": 64,
            "catchResponse": 61,
            "catchTime": 1680794305247,
            "trialTime": 0
        },
        {
            "exptPart": "trial",
            "trialNumber": 16,
            "roleCurrent": "receiver",
            "marblesSampled": 100,
            "probRed": 0.5,
            "practiceLambda": 5,
            "trialLambda": 0.3,
            "instructedLambda": "honest",
            "drawnRed": 67,
            "reportedRed": 67,
            "inferredRed": 45,
            "playerTrialScore": -22,
            "oppTrialScore": 0,
            "playerTotalScore": -253,
            "oppTotalScore": 68,
            "waitTime": 6084.015287941782,
            "responseTime": 1680794332261,
            "catchQuestion": "How many <b class=\"r\">red<\/b> marbles did your opponent report drawing? ",
            "catchKey": -1,
            "catchResponse": -1,
            "catchTime": 1680794305247,
            "trialTime": 0
        },
        {
            "exptPart": "trial",
            "trialNumber": 17,
            "roleCurrent": "receiver",
            "marblesSampled": 100,
            "probRed": 0.5,
            "practiceLambda": 5,
            "trialLambda": 0.3,
            "instructedLambda": "honest",
            "drawnRed": 36,
            "reportedRed": 37,
            "inferredRed": 22,
            "playerTrialScore": -14,
            "oppTrialScore": 0,
            "playerTotalScore": -267,
            "oppTotalScore": 68,
            "waitTime": 5227.332748439294,
            "responseTime": 1680794355529,
            "catchQuestion": "How many <b class=\"r\">red<\/b> marbles did your opponent report drawing? ",
            "catchKey": 37,
            "catchResponse": 67,
            "catchTime": 1680794355529,
            "trialTime": 0
        },
        {
            "exptPart": "trial",
            "trialNumber": 18,
            "roleCurrent": "receiver",
            "marblesSampled": 100,
            "probRed": 0.5,
            "practiceLambda": 5,
            "trialLambda": 0.3,
            "instructedLambda": "honest",
            "drawnRed": 53,
            "reportedRed": 53,
            "inferredRed": 45,
            "playerTrialScore": -8,
            "oppTrialScore": 0,
            "playerTotalScore": -275,
            "oppTotalScore": 68,
            "waitTime": 5536.849253959765,
            "responseTime": 1680794379961,
            "catchQuestion": "How many <b class=\"r\">red<\/b> marbles did your opponent report drawing? ",
            "catchKey": -1,
            "catchResponse": -1,
            "catchTime": 1680794355529,
            "trialTime": 0
        },
        {
            "exptPart": "trial",
            "trialNumber": 19,
            "roleCurrent": "receiver",
            "marblesSampled": 100,
            "probRed": 0.5,
            "practiceLambda": 5,
            "trialLambda": 0.3,
            "instructedLambda": "honest",
            "drawnRed": 42,
            "reportedRed": 43,
            "inferredRed": 24,
            "playerTrialScore": -18,
            "oppTrialScore": 0,
            "playerTotalScore": -293,
            "oppTotalScore": 68,
            "waitTime": 6567.069544644856,
            "responseTime": 1680794393015,
            "catchQuestion": "How many <b class=\"r\">red<\/b> marbles did your opponent report drawing? ",
            "catchKey": -1,
            "catchResponse": -1,
            "catchTime": 1680794355529,
            "trialTime": 0
        },
        {
            "exptPart": "trial",
            "trialNumber": 20,
            "roleCurrent": "receiver",
            "marblesSampled": 100,
            "probRed": 0.5,
            "practiceLambda": 5,
            "trialLambda": 0.3,
            "instructedLambda": "honest",
            "drawnRed": 21,
            "reportedRed": 21,
            "inferredRed": 42,
            "playerTrialScore": -21,
            "oppTrialScore": 21,
            "playerTotalScore": -314,
            "oppTotalScore": 89,
            "waitTime": 5416.232366969014,
            "responseTime": 1680794405751,
            "catchQuestion": "How many <b class=\"r\">red<\/b> marbles did your opponent report drawing? ",
            "catchKey": -1,
            "catchResponse": -1,
            "catchTime": 1680794405751,
            "trialTime": 0
        },
        {
            "exptPart": "trial",
            "trialNumber": 21,
            "roleCurrent": "receiver",
            "marblesSampled": 100,
            "probRed": 0.5,
            "practiceLambda": 5,
            "trialLambda": 0.3,
            "instructedLambda": "honest",
            "drawnRed": 69,
            "reportedRed": 69,
            "inferredRed": 36,
            "playerTrialScore": -33,
            "oppTrialScore": 0,
            "playerTotalScore": -347,
            "oppTotalScore": 89,
            "waitTime": 6204.169437655114,
            "responseTime": 1680794422843,
            "catchQuestion": "How many <b class=\"r\">red<\/b> marbles did your opponent report drawing? ",
            "catchKey": -1,
            "catchResponse": -1,
            "catchTime": 1680794405751,
            "trialTime": 0
        },
        {
            "exptPart": "trial",
            "trialNumber": 22,
            "roleCurrent": "receiver",
            "marblesSampled": 100,
            "probRed": 0.5,
            "practiceLambda": 5,
            "trialLambda": 0.3,
            "instructedLambda": "honest",
            "drawnRed": 70,
            "reportedRed": 71,
            "inferredRed": 16,
            "playerTrialScore": -54,
            "oppTrialScore": 0,
            "playerTotalScore": -401,
            "oppTotalScore": 89,
            "waitTime": 5324.148222184664,
            "responseTime": 1680794431614,
            "catchQuestion": "How many <b class=\"r\">red<\/b> marbles did your opponent report drawing? ",
            "catchKey": -1,
            "catchResponse": -1,
            "catchTime": 1680794405751,
            "trialTime": 0
        },
        {
            "exptPart": "trial",
            "trialNumber": 23,
            "roleCurrent": "receiver",
            "marblesSampled": 100,
            "probRed": 0.5,
            "practiceLambda": 5,
            "trialLambda": 0.3,
            "instructedLambda": "honest",
            "drawnRed": 54,
            "reportedRed": 54,
            "inferredRed": 16,
            "playerTrialScore": -38,
            "oppTrialScore": 0,
            "playerTotalScore": -439,
            "oppTotalScore": 89,
            "waitTime": 5139.115453431148,
            "responseTime": 1680794439337,
            "catchQuestion": "How many <b class=\"r\">red<\/b> marbles did your opponent report drawing? ",
            "catchKey": 54,
            "catchResponse": 54,
            "catchTime": 1680794439337,
            "trialTime": 0
        },
        {
            "exptPart": "trial",
            "trialNumber": 24,
            "roleCurrent": "receiver",
            "marblesSampled": 100,
            "probRed": 0.5,
            "practiceLambda": 5,
            "trialLambda": 0.3,
            "instructedLambda": "honest",
            "drawnRed": 49,
            "reportedRed": 49,
            "inferredRed": 16,
            "playerTrialScore": -33,
            "oppTrialScore": 0,
            "playerTotalScore": -472,
            "oppTotalScore": 89,
            "waitTime": 6390.611485627365,
            "responseTime": 1680794454712,
            "catchQuestion": "How many <b class=\"r\">red<\/b> marbles did your opponent report drawing? ",
            "catchKey": -1,
            "catchResponse": -1,
            "catchTime": 1680794439337,
            "trialTime": 0
        },
        {
            "exptPart": "trial",
            "trialNumber": 25,
            "roleCurrent": "receiver",
            "marblesSampled": 100,
            "probRed": 0.5,
            "practiceLambda": 5,
            "trialLambda": 0.3,
            "instructedLambda": "honest",
            "drawnRed": 44,
            "reportedRed": 44,
            "inferredRed": 16,
            "playerTrialScore": -28,
            "oppTrialScore": 0,
            "playerTotalScore": -500,
            "oppTotalScore": 89,
            "waitTime": 6636.839904766216,
            "responseTime": 1680794465145,
            "catchQuestion": "How many <b class=\"r\">red<\/b> marbles did your opponent report drawing? ",
            "catchKey": -1,
            "catchResponse": -1,
            "catchTime": 1680794439337,
            "trialTime": 0
        },
        {
            "exptPart": "trial",
            "trialNumber": 26,
            "roleCurrent": "receiver",
            "marblesSampled": 100,
            "probRed": 0.5,
            "practiceLambda": 5,
            "trialLambda": 0.3,
            "instructedLambda": "honest",
            "drawnRed": 55,
            "reportedRed": 55,
            "inferredRed": 25,
            "playerTrialScore": -30,
            "oppTrialScore": 0,
            "playerTotalScore": -530,
            "oppTotalScore": 89,
            "waitTime": 7192.9106548794225,
            "responseTime": 1680794476209,
            "catchQuestion": "How many <b class=\"r\">red<\/b> marbles did your opponent report drawing? ",
            "catchKey": -1,
            "catchResponse": -1,
            "catchTime": 1680794439337,
            "trialTime": 0
        },
        {
            "exptPart": "trial",
            "trialNumber": 27,
            "roleCurrent": "receiver",
            "marblesSampled": 100,
            "probRed": 0.5,
            "practiceLambda": 5,
            "trialLambda": 0.3,
            "instructedLambda": "honest",
            "drawnRed": 61,
            "reportedRed": 61,
            "inferredRed": 16,
            "playerTrialScore": -45,
            "oppTrialScore": 0,
            "playerTotalScore": -575,
            "oppTotalScore": 89,
            "waitTime": 5737.657069602559,
            "responseTime": 1680794485959,
            "catchQuestion": "How many <b class=\"r\">red<\/b> marbles did your opponent report drawing? ",
            "catchKey": -1,
            "catchResponse": -1,
            "catchTime": 1680794439337,
            "trialTime": 0
        },
        {
            "exptPart": "trial",
            "trialNumber": 28,
            "roleCurrent": "receiver",
            "marblesSampled": 100,
            "probRed": 0.5,
            "practiceLambda": 5,
            "trialLambda": 0.3,
            "instructedLambda": "honest",
            "drawnRed": 74,
            "reportedRed": 74,
            "inferredRed": 18,
            "playerTrialScore": -56,
            "oppTrialScore": 0,
            "playerTotalScore": -631,
            "oppTotalScore": 89,
            "waitTime": 6226.67723291121,
            "responseTime": 1680794497889,
            "catchQuestion": "How many <b class=\"r\">red<\/b> marbles did your opponent report drawing? ",
            "catchKey": -1,
            "catchResponse": -1,
            "catchTime": 1680794439337,
            "trialTime": 0
        },
        {
            "exptPart": "trial",
            "trialNumber": 29,
            "roleCurrent": "receiver",
            "marblesSampled": 100,
            "probRed": 0.5,
            "practiceLambda": 5,
            "trialLambda": 0.3,
            "instructedLambda": "honest",
            "drawnRed": 9,
            "reportedRed": 9,
            "inferredRed": 16,
            "playerTrialScore": -7,
            "oppTrialScore": 7,
            "playerTotalScore": -638,
            "oppTotalScore": 96,
            "waitTime": 5430.685734827273,
            "responseTime": 1680794509140,
            "catchQuestion": "How many <b class=\"r\">red<\/b> marbles did your opponent report drawing? ",
            "catchKey": -1,
            "catchResponse": -1,
            "catchTime": 1680794439337,
            "trialTime": 0
        },
        {
            "exptPart": "trial",
            "trialNumber": 30,
            "roleCurrent": "receiver",
            "marblesSampled": 100,
            "probRed": 0.5,
            "practiceLambda": 5,
            "trialLambda": 0.3,
            "instructedLambda": "honest",
            "drawnRed": 83,
            "reportedRed": 83,
            "inferredRed": 16,
            "playerTrialScore": -67,
            "oppTrialScore": 0,
            "playerTotalScore": -705,
            "oppTotalScore": 96,
            "waitTime": 7151.5005575391715,
            "responseTime": 1680794522837,
            "catchQuestion": "How many <b class=\"r\">red<\/b> marbles did your opponent report drawing? ",
            "catchKey": -1,
            "catchResponse": -1,
            "catchTime": 1680794522837,
            "trialTime": 0
        },
        {
            "exptPart": "trial",
            "trialNumber": 31,
            "roleCurrent": "receiver",
            "marblesSampled": 100,
            "probRed": 0.5,
            "practiceLambda": 5,
            "trialLambda": 0.3,
            "instructedLambda": "honest",
            "drawnRed": 55,
            "reportedRed": 55,
            "inferredRed": 25,
            "playerTrialScore": -30,
            "oppTrialScore": 0,
            "playerTotalScore": -735,
            "oppTotalScore": 96,
            "waitTime": 5505.859336220323,
            "responseTime": 1680794537675,
            "catchQuestion": "How many <b class=\"r\">red<\/b> marbles did your opponent report drawing? ",
            "catchKey": -1,
            "catchResponse": -1,
            "catchTime": 1680794522837,
            "trialTime": 0
        },
        {
            "exptPart": "trial",
            "trialNumber": 32,
            "roleCurrent": "receiver",
            "marblesSampled": 100,
            "probRed": 0.5,
            "practiceLambda": 5,
            "trialLambda": 0.3,
            "instructedLambda": "honest",
            "drawnRed": 33,
            "reportedRed": 34,
            "inferredRed": 30,
            "playerTrialScore": -3,
            "oppTrialScore": 0,
            "playerTotalScore": -738,
            "oppTotalScore": 96,
            "waitTime": 6469.630406026012,
            "responseTime": 1680794549834,
            "catchQuestion": "How many <b class=\"r\">red<\/b> marbles did your opponent report drawing? ",
            "catchKey": -1,
            "catchResponse": -1,
            "catchTime": 1680794522837,
            "trialTime": 0
        },
        {
            "exptPart": "trial",
            "trialNumber": 33,
            "roleCurrent": "receiver",
            "marblesSampled": 100,
            "probRed": 0.5,
            "practiceLambda": 5,
            "trialLambda": 0.3,
            "instructedLambda": "honest",
            "drawnRed": 61,
            "reportedRed": 62,
            "inferredRed": 70,
            "playerTrialScore": -9,
            "oppTrialScore": 9,
            "playerTotalScore": -747,
            "oppTotalScore": 105,
            "waitTime": 5713.865206193324,
            "responseTime": 1680794562148,
            "catchQuestion": "How many <b class=\"r\">red<\/b> marbles did your opponent report drawing? ",
            "catchKey": -1,
            "catchResponse": -1,
            "catchTime": 1680794522837,
            "trialTime": 0
        },
        {
            "exptPart": "trial",
            "trialNumber": 34,
            "roleCurrent": "receiver",
            "marblesSampled": 100,
            "probRed": 0.5,
            "practiceLambda": 5,
            "trialLambda": 0.3,
            "instructedLambda": "honest",
            "drawnRed": 22,
            "reportedRed": 22,
            "inferredRed": 30,
            "playerTrialScore": -8,
            "oppTrialScore": 8,
            "playerTotalScore": -755,
            "oppTotalScore": 113,
            "waitTime": 5201.098999934234,
            "responseTime": 1680794574091,
            "catchQuestion": "How many <b class=\"r\">red<\/b> marbles did your opponent report drawing? ",
            "catchKey": -1,
            "catchResponse": -1,
            "catchTime": 1680794522837,
            "trialTime": 0
        },
        {
            "exptPart": "trial",
            "trialNumber": 35,
            "roleCurrent": "receiver",
            "marblesSampled": 100,
            "probRed": 0.5,
            "practiceLambda": 5,
            "trialLambda": 0.3,
            "instructedLambda": "honest",
            "drawnRed": 33,
            "reportedRed": 34,
            "inferredRed": 29,
            "playerTrialScore": -4,
            "oppTrialScore": 0,
            "playerTotalScore": -759,
            "oppTotalScore": 113,
            "waitTime": 6186.892221539908,
            "responseTime": 1680794587494,
            "catchQuestion": "How many <b class=\"r\">red<\/b> marbles did your opponent report drawing? ",
            "catchKey": -1,
            "catchResponse": -1,
            "catchTime": 1680794522837,
            "trialTime": 0
        },
        {
            "exptPart": "trial",
            "trialNumber": 36,
            "roleCurrent": "receiver",
            "marblesSampled": 100,
            "probRed": 0.5,
            "practiceLambda": 5,
            "trialLambda": 0.3,
            "instructedLambda": "honest",
            "drawnRed": 36,
            "reportedRed": 36,
            "inferredRed": 30,
            "playerTrialScore": -6,
            "oppTrialScore": 0,
            "playerTotalScore": -765,
            "oppTotalScore": 113,
            "waitTime": 5224.5517002741435,
            "responseTime": 1680794596652,
            "catchQuestion": "How many <b class=\"r\">red<\/b> marbles did your opponent report drawing? ",
            "catchKey": -1,
            "catchResponse": -1,
            "catchTime": 1680794522837,
            "trialTime": 0
        },
        {
            "exptPart": "trial",
            "trialNumber": 37,
            "roleCurrent": "receiver",
            "marblesSampled": 100,
            "probRed": 0.5,
            "practiceLambda": 5,
            "trialLambda": 0.3,
            "instructedLambda": "honest",
            "drawnRed": 93,
            "reportedRed": 94,
            "inferredRed": 85,
            "playerTrialScore": -8,
            "oppTrialScore": 0,
            "playerTotalScore": -773,
            "oppTotalScore": 113,
            "waitTime": 7124.5103094027145,
            "responseTime": 1680794610099,
            "catchQuestion": "How many <b class=\"r\">red<\/b> marbles did your opponent report drawing? ",
            "catchKey": -1,
            "catchResponse": -1,
            "catchTime": 1680794522837,
            "trialTime": 0
        },
        {
            "exptPart": "trial",
            "trialNumber": 38,
            "roleCurrent": "receiver",
            "marblesSampled": 100,
            "probRed": 0.5,
            "practiceLambda": 5,
            "trialLambda": 0.3,
            "instructedLambda": "honest",
            "drawnRed": 21,
            "reportedRed": 21,
            "inferredRed": 20,
            "playerTrialScore": -1,
            "oppTrialScore": 0,
            "playerTotalScore": -774,
            "oppTotalScore": 113,
            "waitTime": 5591.210942550345,
            "responseTime": 1680794621670,
            "catchQuestion": "How many <b class=\"r\">red<\/b> marbles did your opponent report drawing? ",
            "catchKey": -1,
            "catchResponse": -1,
            "catchTime": 1680794522837,
            "trialTime": 0
        },
        {
            "exptPart": "trial",
            "trialNumber": 39,
            "roleCurrent": "receiver",
            "marblesSampled": 100,
            "probRed": 0.5,
            "practiceLambda": 5,
            "trialLambda": 0.3,
            "instructedLambda": "honest",
            "drawnRed": 21,
            "reportedRed": 21,
            "inferredRed": 30,
            "playerTrialScore": -9,
            "oppTrialScore": 9,
            "playerTotalScore": -783,
            "oppTotalScore": 122,
            "waitTime": 6370.179399749561,
            "responseTime": 1680794650054,
            "catchQuestion": "How many <b class=\"r\">red<\/b> marbles did your opponent report drawing? ",
            "catchKey": -1,
            "catchResponse": -1,
            "catchTime": 1680794522837,
            "trialTime": 0
        },
        {
            "exptPart": "trial",
            "trialNumber": 40,
            "roleCurrent": "receiver",
            "marblesSampled": 100,
            "probRed": 0.5,
            "practiceLambda": 5,
            "trialLambda": 0.3,
            "instructedLambda": "honest",
            "drawnRed": 34,
            "reportedRed": 34,
            "inferredRed": 30,
            "playerTrialScore": -4,
            "oppTrialScore": 0,
            "playerTotalScore": -787,
            "oppTotalScore": 122,
            "waitTime": 7229.508863753763,
            "responseTime": 1680794667121,
            "catchQuestion": "How many <b class=\"r\">red<\/b> marbles did your opponent report drawing? ",
            "catchKey": -1,
            "catchResponse": -1,
            "catchTime": 1680794667122,
            "trialTime": 0
        },
        {
            "exptPart": "trial",
            "trialNumber": 41,
            "roleCurrent": "receiver",
            "marblesSampled": 100,
            "probRed": 0.5,
            "practiceLambda": 5,
            "trialLambda": 0.3,
            "instructedLambda": "honest",
            "drawnRed": 44,
            "reportedRed": 44,
            "inferredRed": 38,
            "playerTrialScore": -6,
            "oppTrialScore": 0,
            "playerTotalScore": -793,
            "oppTotalScore": 122,
            "waitTime": 5671.686872788387,
            "responseTime": 1680794690500,
            "catchQuestion": "How many <b class=\"r\">red<\/b> marbles did your opponent report drawing? ",
            "catchKey": 44,
            "catchResponse": 44,
            "catchTime": 1680794690501,
            "trialTime": 0
        },
        {
            "exptPart": "trial",
            "trialNumber": 42,
            "roleCurrent": "receiver",
            "marblesSampled": 100,
            "probRed": 0.5,
            "practiceLambda": 5,
            "trialLambda": 0.3,
            "instructedLambda": "honest",
            "drawnRed": 45,
            "reportedRed": 45,
            "inferredRed": 20,
            "playerTrialScore": -25,
            "oppTrialScore": 0,
            "playerTotalScore": -818,
            "oppTotalScore": 122,
            "waitTime": 5936.211860777316,
            "responseTime": 1680794708942,
            "catchQuestion": "How many <b class=\"r\">red<\/b> marbles did your opponent report drawing? ",
            "catchKey": -1,
            "catchResponse": -1,
            "catchTime": 1680794690501,
            "trialTime": 0
        },
        {
            "exptPart": "trial",
            "trialNumber": 43,
            "roleCurrent": "receiver",
            "marblesSampled": 100,
            "probRed": 0.5,
            "practiceLambda": 5,
            "trialLambda": 0.3,
            "instructedLambda": "honest",
            "drawnRed": 37,
            "reportedRed": 38,
            "inferredRed": 20,
            "playerTrialScore": -17,
            "oppTrialScore": 0,
            "playerTotalScore": -835,
            "oppTotalScore": 122,
            "waitTime": 6037.782337661567,
            "responseTime": 1680794727009,
            "catchQuestion": "How many <b class=\"r\">red<\/b> marbles did your opponent report drawing? ",
            "catchKey": -1,
            "catchResponse": -1,
            "catchTime": 1680794690501,
            "trialTime": 0
        },
        {
            "exptPart": "trial",
            "trialNumber": 44,
            "roleCurrent": "receiver",
            "marblesSampled": 100,
            "probRed": 0.5,
            "practiceLambda": 5,
            "trialLambda": 0.3,
            "instructedLambda": "honest",
            "drawnRed": 8,
            "reportedRed": 9,
            "inferredRed": 16,
            "playerTrialScore": -8,
            "oppTrialScore": 8,
            "playerTotalScore": -843,
            "oppTotalScore": 130,
            "waitTime": 5799.464169427141,
            "responseTime": 1680794739233,
            "catchQuestion": "How many <b class=\"r\">red<\/b> marbles did your opponent report drawing? ",
            "catchKey": -1,
            "catchResponse": -1,
            "catchTime": 1680794690501,
            "trialTime": 0
        },
        {
            "exptPart": "trial",
            "trialNumber": 45,
            "roleCurrent": "receiver",
            "marblesSampled": 100,
            "probRed": 0.5,
            "practiceLambda": 5,
            "trialLambda": 0.3,
            "instructedLambda": "honest",
            "drawnRed": 49,
            "reportedRed": 49,
            "inferredRed": 22,
            "playerTrialScore": -27,
            "oppTrialScore": 0,
            "playerTotalScore": -870,
            "oppTotalScore": 130,
            "waitTime": 6028.705305289563,
            "responseTime": 1680794752720,
            "catchQuestion": "How many <b class=\"r\">red<\/b> marbles did your opponent report drawing? ",
            "catchKey": 49,
            "catchResponse": 45,
            "catchTime": 1680794752720,
            "trialTime": 0
        },
        {
            "exptPart": "trial",
            "trialNumber": 46,
            "roleCurrent": "receiver",
            "marblesSampled": 100,
            "probRed": 0.5,
            "practiceLambda": 5,
            "trialLambda": 0.3,
            "instructedLambda": "honest",
            "drawnRed": 47,
            "reportedRed": 48,
            "inferredRed": 40,
            "playerTrialScore": -7,
            "oppTrialScore": 0,
            "playerTotalScore": -877,
            "oppTotalScore": 130,
            "waitTime": 6223.77640112038,
            "responseTime": 1680794771450,
            "catchQuestion": "How many <b class=\"r\">red<\/b> marbles did your opponent report drawing? ",
            "catchKey": -1,
            "catchResponse": -1,
            "catchTime": 1680794752720,
            "trialTime": 0
        },
        {
            "exptPart": "trial",
            "trialNumber": 47,
            "roleCurrent": "receiver",
            "marblesSampled": 100,
            "probRed": 0.5,
            "practiceLambda": 5,
            "trialLambda": 0.3,
            "instructedLambda": "honest",
            "drawnRed": 33,
            "reportedRed": 34,
            "inferredRed": 40,
            "playerTrialScore": -7,
            "oppTrialScore": 7,
            "playerTotalScore": -884,
            "oppTotalScore": 137,
            "waitTime": 5812.7786940670685,
            "responseTime": 1680794781965,
            "catchQuestion": "How many <b class=\"r\">red<\/b> marbles did your opponent report drawing? ",
            "catchKey": -1,
            "catchResponse": -1,
            "catchTime": 1680794752720,
            "trialTime": 0
        },
        {
            "exptPart": "trial",
            "trialNumber": 48,
            "roleCurrent": "receiver",
            "marblesSampled": 100,
            "probRed": 0.5,
            "practiceLambda": 5,
            "trialLambda": 0.3,
            "instructedLambda": "honest",
            "drawnRed": 29,
            "reportedRed": 29,
            "inferredRed": 35,
            "playerTrialScore": -6,
            "oppTrialScore": 6,
            "playerTotalScore": -890,
            "oppTotalScore": 143,
            "waitTime": 6126.576199159079,
            "responseTime": 1680794791434,
            "catchQuestion": "How many <b class=\"r\">red<\/b> marbles did your opponent report drawing? ",
            "catchKey": -1,
            "catchResponse": -1,
            "catchTime": 1680794752720,
            "trialTime": 0
        },
        {
            "exptPart": "trial",
            "trialNumber": 49,
            "roleCurrent": "receiver",
            "marblesSampled": 100,
            "probRed": 0.5,
            "practiceLambda": 5,
            "trialLambda": 0.3,
            "instructedLambda": "honest",
            "drawnRed": 52,
            "reportedRed": 52,
            "inferredRed": 22,
            "playerTrialScore": -30,
            "oppTrialScore": 0,
            "playerTotalScore": -920,
            "oppTotalScore": 143,
            "waitTime": 6951.592428993581,
            "responseTime": 1680794806568,
            "catchQuestion": "How many <b class=\"r\">red<\/b> marbles did your opponent report drawing? ",
            "catchKey": -1,
            "catchResponse": -1,
            "catchTime": 1680794752720,
            "trialTime": 0
        },
        {
            "exptPart": "trial",
            "trialNumber": 50,
            "roleCurrent": "receiver",
            "marblesSampled": 100,
            "probRed": 0.5,
            "practiceLambda": 5,
            "trialLambda": 0.3,
            "instructedLambda": "honest",
            "drawnRed": 55,
            "reportedRed": 55,
            "inferredRed": 47,
            "playerTrialScore": -8,
            "oppTrialScore": 0,
            "playerTotalScore": -928,
            "oppTotalScore": 143,
            "waitTime": 5233.007125214893,
            "responseTime": 1680794815446,
            "catchQuestion": "How many <b class=\"r\">red<\/b> marbles did your opponent report drawing? ",
            "catchKey": -1,
            "catchResponse": -1,
            "catchTime": 1680794815446,
            "trialTime": 0
        },
        {
            "exptPart": "trial",
            "trialNumber": 51,
            "roleCurrent": "receiver",
            "marblesSampled": 100,
            "probRed": 0.5,
            "practiceLambda": 5,
            "trialLambda": 0.3,
            "instructedLambda": "honest",
            "drawnRed": 43,
            "reportedRed": 43,
            "inferredRed": 35,
            "playerTrialScore": -8,
            "oppTrialScore": 0,
            "playerTotalScore": -936,
            "oppTotalScore": 143,
            "waitTime": 7384.351610047363,
            "responseTime": 1680794830118,
            "catchQuestion": "How many <b class=\"r\">red<\/b> marbles did your opponent report drawing? ",
            "catchKey": -1,
            "catchResponse": -1,
            "catchTime": 1680794815446,
            "trialTime": 0
        },
        {
            "exptPart": "trial",
            "trialNumber": 52,
            "roleCurrent": "receiver",
            "marblesSampled": 100,
            "probRed": 0.5,
            "practiceLambda": 5,
            "trialLambda": 0.3,
            "instructedLambda": "honest",
            "drawnRed": 57,
            "reportedRed": 58,
            "inferredRed": 47,
            "playerTrialScore": -10,
            "oppTrialScore": 0,
            "playerTotalScore": -946,
            "oppTotalScore": 143,
            "waitTime": 5395.529677207808,
            "responseTime": 1680794839504,
            "catchQuestion": "How many <b class=\"r\">red<\/b> marbles did your opponent report drawing? ",
            "catchKey": -1,
            "catchResponse": -1,
            "catchTime": 1680794815446,
            "trialTime": 0
        },
        {
            "exptPart": "trial",
            "trialNumber": 53,
            "roleCurrent": "receiver",
            "marblesSampled": 100,
            "probRed": 0.5,
            "practiceLambda": 5,
            "trialLambda": 0.3,
            "instructedLambda": "honest",
            "drawnRed": 61,
            "reportedRed": 63,
            "inferredRed": 54,
            "playerTrialScore": -7,
            "oppTrialScore": 0,
            "playerTotalScore": -953,
            "oppTotalScore": 143,
            "waitTime": 6439.1544378659055,
            "responseTime": 1680794857680,
            "catchQuestion": "How many <b class=\"r\">red<\/b> marbles did your opponent report drawing? ",
            "catchKey": -1,
            "catchResponse": -1,
            "catchTime": 1680794815446,
            "trialTime": 0
        },
        {
            "exptPart": "trial",
            "trialNumber": 54,
            "roleCurrent": "receiver",
            "marblesSampled": 100,
            "probRed": 0.5,
            "practiceLambda": 5,
            "trialLambda": 0.3,
            "instructedLambda": "honest",
            "drawnRed": 26,
            "reportedRed": 27,
            "inferredRed": 35,
            "playerTrialScore": -9,
            "oppTrialScore": 9,
            "playerTotalScore": -962,
            "oppTotalScore": 152,
            "waitTime": 6917.511150070255,
            "responseTime": 1680794880279,
            "catchQuestion": "How many <b class=\"r\">red<\/b> marbles did your opponent report drawing? ",
            "catchKey": -1,
            "catchResponse": -1,
            "catchTime": 1680794815446,
            "trialTime": 0
        },
        {
            "exptPart": "trial",
            "trialNumber": 55,
            "roleCurrent": "receiver",
            "marblesSampled": 100,
            "probRed": 0.5,
            "practiceLambda": 5,
            "trialLambda": 0.3,
            "instructedLambda": "honest",
            "drawnRed": 36,
            "reportedRed": 37,
            "inferredRed": 42,
            "playerTrialScore": -6,
            "oppTrialScore": 6,
            "playerTotalScore": -968,
            "oppTotalScore": 158,
            "waitTime": 5645.51177161976,
            "responseTime": 1680794890448,
            "catchQuestion": "How many <b class=\"r\">red<\/b> marbles did your opponent report drawing? ",
            "catchKey": -1,
            "catchResponse": -1,
            "catchTime": 1680794815446,
            "trialTime": 0
        },
        {
            "exptPart": "trial",
            "trialNumber": 56,
            "roleCurrent": "receiver",
            "marblesSampled": 100,
            "probRed": 0.5,
            "practiceLambda": 5,
            "trialLambda": 0.3,
            "instructedLambda": "honest",
            "drawnRed": 35,
            "reportedRed": 36,
            "inferredRed": 27,
            "playerTrialScore": -8,
            "oppTrialScore": 0,
            "playerTotalScore": -976,
            "oppTotalScore": 158,
            "waitTime": 5754.704438594123,
            "responseTime": 1680794902046,
            "catchQuestion": "How many <b class=\"r\">red<\/b> marbles did your opponent report drawing? ",
            "catchKey": -1,
            "catchResponse": -1,
            "catchTime": 1680794815446,
            "trialTime": 0
        },
        {
            "exptPart": "trial",
            "trialNumber": 57,
            "roleCurrent": "receiver",
            "marblesSampled": 100,
            "probRed": 0.5,
            "practiceLambda": 5,
            "trialLambda": 0.3,
            "instructedLambda": "honest",
            "drawnRed": 60,
            "reportedRed": 61,
            "inferredRed": 32,
            "playerTrialScore": -28,
            "oppTrialScore": 0,
            "playerTotalScore": -1004,
            "oppTotalScore": 158,
            "waitTime": 5519.560150119351,
            "responseTime": 1680794912034,
            "catchQuestion": "How many <b class=\"r\">red<\/b> marbles did your opponent report drawing? ",
            "catchKey": -1,
            "catchResponse": -1,
            "catchTime": 1680794815446,
            "trialTime": 0
        },
        {
            "exptPart": "trial",
            "trialNumber": 58,
            "roleCurrent": "receiver",
            "marblesSampled": 100,
            "probRed": 0.5,
            "practiceLambda": 5,
            "trialLambda": 0.3,
            "instructedLambda": "honest",
            "drawnRed": 36,
            "reportedRed": 36,
            "inferredRed": 27,
            "playerTrialScore": -9,
            "oppTrialScore": 0,
            "playerTotalScore": -1013,
            "oppTotalScore": 158,
            "waitTime": 7409.892533302251,
            "responseTime": 1680794928963,
            "catchQuestion": "How many <b class=\"r\">red<\/b> marbles did your opponent report drawing? ",
            "catchKey": -1,
            "catchResponse": -1,
            "catchTime": 1680794815446,
            "trialTime": 0
        },
        {
            "exptPart": "trial",
            "trialNumber": 59,
            "roleCurrent": "receiver",
            "marblesSampled": 100,
            "probRed": 0.5,
            "practiceLambda": 5,
            "trialLambda": 0.3,
            "instructedLambda": "honest",
            "drawnRed": 30,
            "reportedRed": 30,
            "inferredRed": 25,
            "playerTrialScore": -5,
            "oppTrialScore": 0,
            "playerTotalScore": -1018,
            "oppTotalScore": 158,
            "waitTime": 5793.986244514113,
            "responseTime": 1680794938914,
            "catchQuestion": "How many <b class=\"r\">red<\/b> marbles did your opponent report drawing? ",
            "catchKey": -1,
            "catchResponse": -1,
            "catchTime": 1680794815446,
            "trialTime": 0
        },
        {
            "exptPart": "trial",
            "trialNumber": 60,
            "roleCurrent": "receiver",
            "marblesSampled": 100,
            "probRed": 0.5,
            "practiceLambda": 5,
            "trialLambda": 0.3,
            "instructedLambda": "honest",
            "drawnRed": 44,
            "reportedRed": 45,
            "inferredRed": 37,
            "playerTrialScore": -7,
            "oppTrialScore": 0,
            "playerTotalScore": -1025,
            "oppTotalScore": 158,
            "waitTime": 5714.642124380562,
            "responseTime": 1680794947861,
            "catchQuestion": "How many <b class=\"r\">red<\/b> marbles did your opponent report drawing? ",
            "catchKey": -1,
            "catchResponse": -1,
            "catchTime": 1680794947861,
            "trialTime": 0
        },
        {
            "exptPart": "trial",
            "trialNumber": 61,
            "roleCurrent": "receiver",
            "marblesSampled": 100,
            "probRed": 0.5,
            "practiceLambda": 5,
            "trialLambda": 0.3,
            "instructedLambda": "honest",
            "drawnRed": 72,
            "reportedRed": 72,
            "inferredRed": 4,
            "playerTrialScore": -68,
            "oppTrialScore": 0,
            "playerTotalScore": -1093,
            "oppTotalScore": 158,
            "waitTime": 5595.4762308541995,
            "responseTime": 1680794958169,
            "catchQuestion": "How many <b class=\"r\">red<\/b> marbles did your opponent report drawing? ",
            "catchKey": -1,
            "catchResponse": -1,
            "catchTime": 1680794947861,
            "trialTime": 0
        },
        {
            "exptPart": "trial",
            "trialNumber": 62,
            "roleCurrent": "receiver",
            "marblesSampled": 100,
            "probRed": 0.5,
            "practiceLambda": 5,
            "trialLambda": 0.3,
            "instructedLambda": "honest",
            "drawnRed": 62,
            "reportedRed": 63,
            "inferredRed": 10,
            "playerTrialScore": -52,
            "oppTrialScore": 0,
            "playerTotalScore": -1145,
            "oppTotalScore": 158,
            "waitTime": 5855.795238659133,
            "responseTime": 1680794967710,
            "catchQuestion": "How many <b class=\"r\">red<\/b> marbles did your opponent report drawing? ",
            "catchKey": -1,
            "catchResponse": -1,
            "catchTime": 1680794947861,
            "trialTime": 0
        },
        {
            "exptPart": "trial",
            "trialNumber": 63,
            "roleCurrent": "receiver",
            "marblesSampled": 100,
            "probRed": 0.5,
            "practiceLambda": 5,
            "trialLambda": 0.3,
            "instructedLambda": "honest",
            "drawnRed": 55,
            "reportedRed": 55,
            "inferredRed": 8,
            "playerTrialScore": -47,
            "oppTrialScore": 0,
            "playerTotalScore": -1192,
            "oppTotalScore": 158,
            "waitTime": 7131.549899518949,
            "responseTime": 1680794979808,
            "catchQuestion": "How many <b class=\"r\">red<\/b> marbles did your opponent report drawing? ",
            "catchKey": -1,
            "catchResponse": -1,
            "catchTime": 1680794947861,
            "trialTime": 0
        },
        {
            "exptPart": "trial",
            "trialNumber": 64,
            "roleCurrent": "receiver",
            "marblesSampled": 100,
            "probRed": 0.5,
            "practiceLambda": 5,
            "trialLambda": 0.3,
            "instructedLambda": "honest",
            "drawnRed": 72,
            "reportedRed": 72,
            "inferredRed": 12,
            "playerTrialScore": -60,
            "oppTrialScore": 0,
            "playerTotalScore": -1252,
            "oppTotalScore": 158,
            "waitTime": 5773.912937647379,
            "responseTime": 1680794992812,
            "catchQuestion": "How many <b class=\"r\">red<\/b> marbles did your opponent report drawing? ",
            "catchKey": -1,
            "catchResponse": -1,
            "catchTime": 1680794947861,
            "trialTime": 0
        },
        {
            "exptPart": "trial",
            "trialNumber": 65,
            "roleCurrent": "receiver",
            "marblesSampled": 100,
            "probRed": 0.5,
            "practiceLambda": 5,
            "trialLambda": 0.3,
            "instructedLambda": "honest",
            "drawnRed": 73,
            "reportedRed": 74,
            "inferredRed": 12,
            "playerTrialScore": -61,
            "oppTrialScore": 0,
            "playerTotalScore": -1313,
            "oppTotalScore": 158,
            "waitTime": 5641.589337791649,
            "responseTime": 1680795002936,
            "catchQuestion": "How many <b class=\"r\">red<\/b> marbles did your opponent report drawing? ",
            "catchKey": -1,
            "catchResponse": -1,
            "catchTime": 1680794947861,
            "trialTime": 0
        },
        {
            "exptPart": "trial",
            "trialNumber": 66,
            "roleCurrent": "receiver",
            "marblesSampled": 100,
            "probRed": 0.5,
            "practiceLambda": 5,
            "trialLambda": 0.3,
            "instructedLambda": "honest",
            "drawnRed": 31,
            "reportedRed": 31,
            "inferredRed": 25,
            "playerTrialScore": -6,
            "oppTrialScore": 0,
            "playerTotalScore": -1319,
            "oppTotalScore": 158,
            "waitTime": 5360.2897335466705,
            "responseTime": 1680795012681,
            "catchQuestion": "How many <b class=\"r\">red<\/b> marbles did your opponent report drawing? ",
            "catchKey": -1,
            "catchResponse": -1,
            "catchTime": 1680794947861,
            "trialTime": 0
        },
        {
            "exptPart": "trial",
            "trialNumber": 67,
            "roleCurrent": "receiver",
            "marblesSampled": 100,
            "probRed": 0.5,
            "practiceLambda": 5,
            "trialLambda": 0.3,
            "instructedLambda": "honest",
            "drawnRed": 37,
            "reportedRed": 37,
            "inferredRed": 12,
            "playerTrialScore": -25,
            "oppTrialScore": 0,
            "playerTotalScore": -1344,
            "oppTotalScore": 158,
            "waitTime": 6455.887560545066,
            "responseTime": 1680795023141,
            "catchQuestion": "How many <b class=\"r\">red<\/b> marbles did your opponent report drawing? ",
            "catchKey": -1,
            "catchResponse": -1,
            "catchTime": 1680794947861,
            "trialTime": 0
        },
        {
            "exptPart": "trial",
            "trialNumber": 68,
            "roleCurrent": "receiver",
            "marblesSampled": 100,
            "probRed": 0.5,
            "practiceLambda": 5,
            "trialLambda": 0.3,
            "instructedLambda": "honest",
            "drawnRed": 44,
            "reportedRed": 44,
            "inferredRed": 20,
            "playerTrialScore": -24,
            "oppTrialScore": 0,
            "playerTotalScore": -1368,
            "oppTotalScore": 158,
            "waitTime": 5550.0958574627475,
            "responseTime": 1680795032850,
            "catchQuestion": "How many <b class=\"r\">red<\/b> marbles did your opponent report drawing? ",
            "catchKey": -1,
            "catchResponse": -1,
            "catchTime": 1680794947861,
            "trialTime": 0
        },
        {
            "exptPart": "trial",
            "trialNumber": 69,
            "roleCurrent": "receiver",
            "marblesSampled": 100,
            "probRed": 0.5,
            "practiceLambda": 5,
            "trialLambda": 0.3,
            "instructedLambda": "honest",
            "drawnRed": 52,
            "reportedRed": 52,
            "inferredRed": 22,
            "playerTrialScore": -30,
            "oppTrialScore": 0,
            "playerTotalScore": -1398,
            "oppTotalScore": 158,
            "waitTime": 6155.545348147546,
            "responseTime": 1680795043675,
            "catchQuestion": "How many <b class=\"r\">red<\/b> marbles did your opponent report drawing? ",
            "catchKey": -1,
            "catchResponse": -1,
            "catchTime": 1680794947861,
            "trialTime": 0
        },
        {
            "exptPart": "trial",
            "trialNumber": 70,
            "roleCurrent": "receiver",
            "marblesSampled": 100,
            "probRed": 0.5,
            "practiceLambda": 5,
            "trialLambda": 0.3,
            "instructedLambda": "honest",
            "drawnRed": 18,
            "reportedRed": 18,
            "inferredRed": 25,
            "playerTrialScore": -7,
            "oppTrialScore": 7,
            "playerTotalScore": -1405,
            "oppTotalScore": 165,
            "waitTime": 5414.888882584144,
            "responseTime": 1680795055081,
            "catchQuestion": "How many <b class=\"r\">red<\/b> marbles did your opponent report drawing? ",
            "catchKey": -1,
            "catchResponse": -1,
            "catchTime": 1680795055081,
            "trialTime": 0
        },
        {
            "exptPart": "trial",
            "trialNumber": 71,
            "roleCurrent": "receiver",
            "marblesSampled": 100,
            "probRed": 0.5,
            "practiceLambda": 5,
            "trialLambda": 0.3,
            "instructedLambda": "honest",
            "drawnRed": 75,
            "reportedRed": 76,
            "inferredRed": 16,
            "playerTrialScore": -59,
            "oppTrialScore": 0,
            "playerTotalScore": -1464,
            "oppTotalScore": 165,
            "waitTime": 7412.530100801372,
            "responseTime": 1680795074013,
            "catchQuestion": "How many <b class=\"r\">red<\/b> marbles did your opponent report drawing? ",
            "catchKey": -1,
            "catchResponse": -1,
            "catchTime": 1680795055081,
            "trialTime": 0
        },
        {
            "exptPart": "trial",
            "trialNumber": 72,
            "roleCurrent": "receiver",
            "marblesSampled": 100,
            "probRed": 0.5,
            "practiceLambda": 5,
            "trialLambda": 0.3,
            "instructedLambda": "honest",
            "drawnRed": 84,
            "reportedRed": 86,
            "inferredRed": 40,
            "playerTrialScore": -44,
            "oppTrialScore": 0,
            "playerTotalScore": -1508,
            "oppTotalScore": 165,
            "waitTime": 5338.420788688774,
            "responseTime": 1680795085418,
            "catchQuestion": "How many <b class=\"r\">red<\/b> marbles did your opponent report drawing? ",
            "catchKey": -1,
            "catchResponse": -1,
            "catchTime": 1680795055081,
            "trialTime": 0
        },
        {
            "exptPart": "trial",
            "trialNumber": 73,
            "roleCurrent": "receiver",
            "marblesSampled": 100,
            "probRed": 0.5,
            "practiceLambda": 5,
            "trialLambda": 0.3,
            "instructedLambda": "honest",
            "drawnRed": 44,
            "reportedRed": 44,
            "inferredRed": 24,
            "playerTrialScore": -20,
            "oppTrialScore": 0,
            "playerTotalScore": -1528,
            "oppTotalScore": 165,
            "waitTime": 5374.977514291373,
            "responseTime": 1680795094380,
            "catchQuestion": "How many <b class=\"r\">red<\/b> marbles did your opponent report drawing? ",
            "catchKey": -1,
            "catchResponse": -1,
            "catchTime": 1680795055081,
            "trialTime": 0
        },
        {
            "exptPart": "trial",
            "trialNumber": 74,
            "roleCurrent": "receiver",
            "marblesSampled": 100,
            "probRed": 0.5,
            "practiceLambda": 5,
            "trialLambda": 0.3,
            "instructedLambda": "honest",
            "drawnRed": 35,
            "reportedRed": 36,
            "inferredRed": 19,
            "playerTrialScore": -16,
            "oppTrialScore": 0,
            "playerTotalScore": -1544,
            "oppTotalScore": 165,
            "waitTime": 6707.714903704125,
            "responseTime": 1680795106984,
            "catchQuestion": "How many <b class=\"r\">red<\/b> marbles did your opponent report drawing? ",
            "catchKey": -1,
            "catchResponse": -1,
            "catchTime": 1680795055081,
            "trialTime": 0
        },
        {
            "exptPart": "trial",
            "trialNumber": 75,
            "roleCurrent": "receiver",
            "marblesSampled": 100,
            "probRed": 0.5,
            "practiceLambda": 5,
            "trialLambda": 0.3,
            "instructedLambda": "honest",
            "drawnRed": 50,
            "reportedRed": 53,
            "inferredRed": 20,
            "playerTrialScore": -30,
            "oppTrialScore": 0,
            "playerTotalScore": -1574,
            "oppTotalScore": 165,
            "waitTime": 5915.914398327561,
            "responseTime": 1680795117979,
            "catchQuestion": "How many <b class=\"r\">red<\/b> marbles did your opponent report drawing? ",
            "catchKey": -1,
            "catchResponse": -1,
            "catchTime": 1680795055081,
            "trialTime": 0
        },
        {
            "exptPart": "trial",
            "trialNumber": 76,
            "roleCurrent": "receiver",
            "marblesSampled": 100,
            "probRed": 0.5,
            "practiceLambda": 5,
            "trialLambda": 0.3,
            "instructedLambda": "honest",
            "drawnRed": 40,
            "reportedRed": 41,
            "inferredRed": 22,
            "playerTrialScore": -18,
            "oppTrialScore": 0,
            "playerTotalScore": -1592,
            "oppTotalScore": 165,
            "waitTime": 7216.276525063856,
            "responseTime": 1680795128982,
            "catchQuestion": "How many <b class=\"r\">red<\/b> marbles did your opponent report drawing? ",
            "catchKey": -1,
            "catchResponse": -1,
            "catchTime": 1680795055081,
            "trialTime": 0
        },
        {
            "exptPart": "trial",
            "trialNumber": 77,
            "roleCurrent": "receiver",
            "marblesSampled": 100,
            "probRed": 0.5,
            "practiceLambda": 5,
            "trialLambda": 0.3,
            "instructedLambda": "honest",
            "drawnRed": 28,
            "reportedRed": 28,
            "inferredRed": 28,
            "playerTrialScore": 0,
            "oppTrialScore": 0,
            "playerTotalScore": -1592,
            "oppTotalScore": 165,
            "waitTime": 7042.48491686723,
            "responseTime": 1680795146952,
            "catchQuestion": "How many <b class=\"r\">red<\/b> marbles did your opponent report drawing? ",
            "catchKey": 28,
            "catchResponse": 28,
            "catchTime": 1680795146952,
            "trialTime": 0
        },
        {
            "exptPart": "trial",
            "trialNumber": 78,
            "roleCurrent": "receiver",
            "marblesSampled": 100,
            "probRed": 0.5,
            "practiceLambda": 5,
            "trialLambda": 0.3,
            "instructedLambda": "honest",
            "drawnRed": 59,
            "reportedRed": 60,
            "inferredRed": 25,
            "playerTrialScore": -34,
            "oppTrialScore": 0,
            "playerTotalScore": -1626,
            "oppTotalScore": 165,
            "waitTime": 5729.159357008743,
            "responseTime": 1680795163547,
            "catchQuestion": "How many <b class=\"r\">red<\/b> marbles did your opponent report drawing? ",
            "catchKey": -1,
            "catchResponse": -1,
            "catchTime": 1680795146952,
            "trialTime": 0
        },
        {
            "exptPart": "trial",
            "trialNumber": 79,
            "roleCurrent": "receiver",
            "marblesSampled": 100,
            "probRed": 0.5,
            "practiceLambda": 5,
            "trialLambda": 0.3,
            "instructedLambda": "honest",
            "drawnRed": 54,
            "reportedRed": 54,
            "inferredRed": 25,
            "playerTrialScore": -29,
            "oppTrialScore": 0,
            "playerTotalScore": -1655,
            "oppTotalScore": 165,
            "waitTime": 6703.894324981877,
            "responseTime": 1680795180285,
            "catchQuestion": "How many <b class=\"r\">red<\/b> marbles did your opponent report drawing? ",
            "catchKey": -1,
            "catchResponse": -1,
            "catchTime": 1680795146952,
            "trialTime": 0
        },
        {
            "exptPart": "trial",
            "trialNumber": 80,
            "roleCurrent": "receiver",
            "marblesSampled": 100,
            "probRed": 0.5,
            "practiceLambda": 5,
            "trialLambda": 0.3,
            "instructedLambda": "honest",
            "drawnRed": 54,
            "reportedRed": 54,
            "inferredRed": 30,
            "playerTrialScore": -24,
            "oppTrialScore": 0,
            "playerTotalScore": -1679,
            "oppTotalScore": 165,
            "waitTime": 5425.621997134157,
            "responseTime": 1680795192222,
            "catchQuestion": "How many <b class=\"r\">red<\/b> marbles did your opponent report drawing? ",
            "catchKey": -1,
            "catchResponse": -1,
            "catchTime": 1680795192222,
            "trialTime": 0
        },
        {
            "exptPart": "trial",
            "trialNumber": 81,
            "roleCurrent": "receiver",
            "marblesSampled": 100,
            "probRed": 0.5,
            "practiceLambda": 5,
            "trialLambda": 0.3,
            "instructedLambda": "honest",
            "drawnRed": 29,
            "reportedRed": 29,
            "inferredRed": 29,
            "playerTrialScore": 0,
            "oppTrialScore": 0,
            "playerTotalScore": -1679,
            "oppTotalScore": 165,
            "waitTime": 5584.5510790401795,
            "responseTime": 1680795206768,
            "catchQuestion": "How many <b class=\"r\">red<\/b> marbles did your opponent report drawing? ",
            "catchKey": -1,
            "catchResponse": -1,
            "catchTime": 1680795192222,
            "trialTime": 0
        },
        {
            "exptPart": "trial",
            "trialNumber": 82,
            "roleCurrent": "receiver",
            "marblesSampled": 100,
            "probRed": 0.5,
            "practiceLambda": 5,
            "trialLambda": 0.3,
            "instructedLambda": "honest",
            "drawnRed": 64,
            "reportedRed": 66,
            "inferredRed": 32,
            "playerTrialScore": -32,
            "oppTrialScore": 0,
            "playerTotalScore": -1711,
            "oppTotalScore": 165,
            "waitTime": 6186.400099107857,
            "responseTime": 1680795217657,
            "catchQuestion": "How many <b class=\"r\">red<\/b> marbles did your opponent report drawing? ",
            "catchKey": 66,
            "catchResponse": 62,
            "catchTime": 1680795217657,
            "trialTime": 0
        },
        {
            "exptPart": "trial",
            "trialNumber": 83,
            "roleCurrent": "receiver",
            "marblesSampled": 100,
            "probRed": 0.5,
            "practiceLambda": 5,
            "trialLambda": 0.3,
            "instructedLambda": "honest",
            "drawnRed": 58,
            "reportedRed": 58,
            "inferredRed": 25,
            "playerTrialScore": -33,
            "oppTrialScore": 0,
            "playerTotalScore": -1744,
            "oppTotalScore": 165,
            "waitTime": 6889.883592349008,
            "responseTime": 1680795237992,
            "catchQuestion": "How many <b class=\"r\">red<\/b> marbles did your opponent report drawing? ",
            "catchKey": -1,
            "catchResponse": -1,
            "catchTime": 1680795217657,
            "trialTime": 0
        },
        {
            "exptPart": "trial",
            "trialNumber": 84,
            "roleCurrent": "receiver",
            "marblesSampled": 100,
            "probRed": 0.5,
            "practiceLambda": 5,
            "trialLambda": 0.3,
            "instructedLambda": "honest",
            "drawnRed": 35,
            "reportedRed": 35,
            "inferredRed": 30,
            "playerTrialScore": -5,
            "oppTrialScore": 0,
            "playerTotalScore": -1749,
            "oppTotalScore": 165,
            "waitTime": 6570.9348195252405,
            "responseTime": 1680795248991,
            "catchQuestion": "How many <b class=\"r\">red<\/b> marbles did your opponent report drawing? ",
            "catchKey": -1,
            "catchResponse": -1,
            "catchTime": 1680795217657,
            "trialTime": 0
        },
        {
            "exptPart": "trial",
            "trialNumber": 85,
            "roleCurrent": "receiver",
            "marblesSampled": 100,
            "probRed": 0.5,
            "practiceLambda": 5,
            "trialLambda": 0.3,
            "instructedLambda": "honest",
            "drawnRed": 76,
            "reportedRed": 76,
            "inferredRed": 32,
            "playerTrialScore": -44,
            "oppTrialScore": 0,
            "playerTotalScore": -1793,
            "oppTotalScore": 165,
            "waitTime": 5257.158219107113,
            "responseTime": 1680795258097,
            "catchQuestion": "How many <b class=\"r\">red<\/b> marbles did your opponent report drawing? ",
            "catchKey": 76,
            "catchResponse": 76,
            "catchTime": 1680795258097,
            "trialTime": 0
        },
        {
            "exptPart": "trial",
            "trialNumber": 86,
            "roleCurrent": "receiver",
            "marblesSampled": 100,
            "probRed": 0.5,
            "practiceLambda": 5,
            "trialLambda": 0.3,
            "instructedLambda": "honest",
            "drawnRed": 29,
            "reportedRed": 29,
            "inferredRed": 29,
            "playerTrialScore": 0,
            "oppTrialScore": 0,
            "playerTotalScore": -1793,
            "oppTotalScore": 165,
            "waitTime": 6938.474936670319,
            "responseTime": 1680795274797,
            "catchQuestion": "How many <b class=\"r\">red<\/b> marbles did your opponent report drawing? ",
            "catchKey": -1,
            "catchResponse": -1,
            "catchTime": 1680795258097,
            "trialTime": 0
        },
        {
            "exptPart": "trial",
            "trialNumber": 87,
            "roleCurrent": "receiver",
            "marblesSampled": 100,
            "probRed": 0.5,
            "practiceLambda": 5,
            "trialLambda": 0.3,
            "instructedLambda": "honest",
            "drawnRed": 23,
            "reportedRed": 23,
            "inferredRed": 23,
            "playerTrialScore": 0,
            "oppTrialScore": 0,
            "playerTotalScore": -1793,
            "oppTotalScore": 165,
            "waitTime": 5565.169605058972,
            "responseTime": 1680795285304,
            "catchQuestion": "How many <b class=\"r\">red<\/b> marbles did your opponent report drawing? ",
            "catchKey": -1,
            "catchResponse": -1,
            "catchTime": 1680795258097,
            "trialTime": 0
        },
        {
            "exptPart": "trial",
            "trialNumber": 88,
            "roleCurrent": "receiver",
            "marblesSampled": 100,
            "probRed": 0.5,
            "practiceLambda": 5,
            "trialLambda": 0.3,
            "instructedLambda": "honest",
            "drawnRed": 64,
            "reportedRed": 65,
            "inferredRed": 21,
            "playerTrialScore": -43,
            "oppTrialScore": 0,
            "playerTotalScore": -1836,
            "oppTotalScore": 165,
            "waitTime": 7392.059211184315,
            "responseTime": 1680795298508,
            "catchQuestion": "How many <b class=\"r\">red<\/b> marbles did your opponent report drawing? ",
            "catchKey": -1,
            "catchResponse": -1,
            "catchTime": 1680795258097,
            "trialTime": 0
        },
        {
            "exptPart": "trial",
            "trialNumber": 89,
            "roleCurrent": "receiver",
            "marblesSampled": 100,
            "probRed": 0.5,
            "practiceLambda": 5,
            "trialLambda": 0.3,
            "instructedLambda": "honest",
            "drawnRed": 47,
            "reportedRed": 47,
            "inferredRed": 22,
            "playerTrialScore": -25,
            "oppTrialScore": 0,
            "playerTotalScore": -1861,
            "oppTotalScore": 165,
            "waitTime": 6627.0036055065575,
            "responseTime": 1680795309842,
            "catchQuestion": "How many <b class=\"r\">red<\/b> marbles did your opponent report drawing? ",
            "catchKey": -1,
            "catchResponse": -1,
            "catchTime": 1680795258097,
            "trialTime": 0
        },
        {
            "exptPart": "trial",
            "trialNumber": 90,
            "roleCurrent": "receiver",
            "marblesSampled": 100,
            "probRed": 0.5,
            "practiceLambda": 5,
            "trialLambda": 0.3,
            "instructedLambda": "honest",
            "drawnRed": 72,
            "reportedRed": 72,
            "inferredRed": 27,
            "playerTrialScore": -45,
            "oppTrialScore": 0,
            "playerTotalScore": -1906,
            "oppTotalScore": 165,
            "waitTime": 6691.78234042351,
            "responseTime": 1680795320784,
            "catchQuestion": "How many <b class=\"r\">red<\/b> marbles did your opponent report drawing? ",
            "catchKey": -1,
            "catchResponse": -1,
            "catchTime": 1680795320784,
            "trialTime": 0
        },
        {
            "exptPart": "trial",
            "trialNumber": 91,
            "roleCurrent": "receiver",
            "marblesSampled": 100,
            "probRed": 0.5,
            "practiceLambda": 5,
            "trialLambda": 0.3,
            "instructedLambda": "honest",
            "drawnRed": 39,
            "reportedRed": 39,
            "inferredRed": 39,
            "playerTrialScore": 0,
            "oppTrialScore": 0,
            "playerTotalScore": -1906,
            "oppTotalScore": 165,
            "waitTime": 6076.622379848048,
            "responseTime": 1680795334912,
            "catchQuestion": "How many <b class=\"r\">red<\/b> marbles did your opponent report drawing? ",
            "catchKey": 39,
            "catchResponse": 39,
            "catchTime": 1680795334912,
            "trialTime": 0
        },
        {
            "exptPart": "trial",
            "trialNumber": 92,
            "roleCurrent": "receiver",
            "marblesSampled": 100,
            "probRed": 0.5,
            "practiceLambda": 5,
            "trialLambda": 0.3,
            "instructedLambda": "honest",
            "drawnRed": 61,
            "reportedRed": 61,
            "inferredRed": 30,
            "playerTrialScore": -31,
            "oppTrialScore": 0,
            "playerTotalScore": -1937,
            "oppTotalScore": 165,
            "waitTime": 6102.394726143602,
            "responseTime": 1680795354447,
            "catchQuestion": "How many <b class=\"r\">red<\/b> marbles did your opponent report drawing? ",
            "catchKey": -1,
            "catchResponse": -1,
            "catchTime": 1680795334912,
            "trialTime": 0
        },
        {
            "exptPart": "trial",
            "trialNumber": 93,
            "roleCurrent": "receiver",
            "marblesSampled": 100,
            "probRed": 0.5,
            "practiceLambda": 5,
            "trialLambda": 0.3,
            "instructedLambda": "honest",
            "drawnRed": 32,
            "reportedRed": 32,
            "inferredRed": 35,
            "playerTrialScore": -3,
            "oppTrialScore": 3,
            "playerTotalScore": -1940,
            "oppTotalScore": 168,
            "waitTime": 6169.306541939987,
            "responseTime": 1680795369393,
            "catchQuestion": "How many <b class=\"r\">red<\/b> marbles did your opponent report drawing? ",
            "catchKey": -1,
            "catchResponse": -1,
            "catchTime": 1680795334912,
            "trialTime": 0
        },
        {
            "exptPart": "trial",
            "trialNumber": 94,
            "roleCurrent": "receiver",
            "marblesSampled": 100,
            "probRed": 0.5,
            "practiceLambda": 5,
            "trialLambda": 0.3,
            "instructedLambda": "honest",
            "drawnRed": 51,
            "reportedRed": 51,
            "inferredRed": 25,
            "playerTrialScore": -26,
            "oppTrialScore": 0,
            "playerTotalScore": -1966,
            "oppTotalScore": 168,
            "waitTime": 6513.693608866064,
            "responseTime": 1680795380124,
            "catchQuestion": "How many <b class=\"r\">red<\/b> marbles did your opponent report drawing? ",
            "catchKey": -1,
            "catchResponse": -1,
            "catchTime": 1680795334912,
            "trialTime": 0
        },
        {
            "exptPart": "trial",
            "trialNumber": 95,
            "roleCurrent": "receiver",
            "marblesSampled": 100,
            "probRed": 0.5,
            "practiceLambda": 5,
            "trialLambda": 0.3,
            "instructedLambda": "honest",
            "drawnRed": 89,
            "reportedRed": 89,
            "inferredRed": 18,
            "playerTrialScore": -71,
            "oppTrialScore": 0,
            "playerTotalScore": -2037,
            "oppTotalScore": 168,
            "waitTime": 7253.106343810128,
            "responseTime": 1680795393133,
            "catchQuestion": "How many <b class=\"r\">red<\/b> marbles did your opponent report drawing? ",
            "catchKey": -1,
            "catchResponse": -1,
            "catchTime": 1680795334912,
            "trialTime": 0
        },
        {
            "exptPart": "trial",
            "trialNumber": 96,
            "roleCurrent": "receiver",
            "marblesSampled": 100,
            "probRed": 0.5,
            "practiceLambda": 5,
            "trialLambda": 0.3,
            "instructedLambda": "honest",
            "drawnRed": 56,
            "reportedRed": 56,
            "inferredRed": 35,
            "playerTrialScore": -21,
            "oppTrialScore": 0,
            "playerTotalScore": -2058,
            "oppTotalScore": 168,
            "waitTime": 5888.752544829999,
            "responseTime": 1680795406275,
            "catchQuestion": "How many <b class=\"r\">red<\/b> marbles did your opponent report drawing? ",
            "catchKey": -1,
            "catchResponse": -1,
            "catchTime": 1680795334912,
            "trialTime": 0
        },
        {
            "exptPart": "trial",
            "trialNumber": 97,
            "roleCurrent": "receiver",
            "marblesSampled": 100,
            "probRed": 0.5,
            "practiceLambda": 5,
            "trialLambda": 0.3,
            "instructedLambda": "honest",
            "drawnRed": 56,
            "reportedRed": 57,
            "inferredRed": 32,
            "playerTrialScore": -24,
            "oppTrialScore": 0,
            "playerTotalScore": -2082,
            "oppTotalScore": 168,
            "waitTime": 5546.526719420162,
            "responseTime": 1680795420002,
            "catchQuestion": "How many <b class=\"r\">red<\/b> marbles did your opponent report drawing? ",
            "catchKey": -1,
            "catchResponse": -1,
            "catchTime": 1680795334912,
            "trialTime": 0
        },
        {
            "exptPart": "trial",
            "trialNumber": 98,
            "roleCurrent": "receiver",
            "marblesSampled": 100,
            "probRed": 0.5,
            "practiceLambda": 5,
            "trialLambda": 0.3,
            "instructedLambda": "honest",
            "drawnRed": 68,
            "reportedRed": 68,
            "inferredRed": 32,
            "playerTrialScore": -36,
            "oppTrialScore": 0,
            "playerTotalScore": -2118,
            "oppTotalScore": 168,
            "waitTime": 5780.355150327533,
            "responseTime": 1680795434774,
            "catchQuestion": "How many <b class=\"r\">red<\/b> marbles did your opponent report drawing? ",
            "catchKey": -1,
            "catchResponse": -1,
            "catchTime": 1680795334912,
            "trialTime": 0
        },
        {
            "exptPart": "trial",
            "trialNumber": 99,
            "roleCurrent": "receiver",
            "marblesSampled": 100,
            "probRed": 0.5,
            "practiceLambda": 5,
            "trialLambda": 0.3,
            "instructedLambda": "honest",
            "drawnRed": 65,
            "reportedRed": 65,
            "inferredRed": 32,
            "playerTrialScore": -33,
            "oppTrialScore": 0,
            "playerTotalScore": -2151,
            "oppTotalScore": 168,
            "waitTime": 5421.949593010051,
            "responseTime": 1680795446616,
            "catchQuestion": "How many <b class=\"r\">red<\/b> marbles did your opponent report drawing? ",
            "catchKey": -1,
            "catchResponse": -1,
            "catchTime": 1680795334912,
            "trialTime": 0
        },
        {
            "exptPart": "trial",
            "trialNumber": 100,
            "roleCurrent": "receiver",
            "marblesSampled": 100,
            "probRed": 0.5,
            "practiceLambda": 5,
            "trialLambda": 0.3,
            "instructedLambda": "honest",
            "drawnRed": 23,
            "reportedRed": 24,
            "inferredRed": 20,
            "playerTrialScore": -3,
            "oppTrialScore": 0,
            "playerTotalScore": -2154,
            "oppTotalScore": 168,
            "waitTime": 6106.9884809157975,
            "responseTime": 1680795457120,
            "catchQuestion": "How many <b class=\"r\">red<\/b> marbles did your opponent report drawing? ",
            "catchKey": 24,
            "catchResponse": 89,
            "catchTime": 1680795457120,
            "trialTime": 0
        }
    ]
}