{
    "client": {
        "type": "sona",
        "experiment_id": 2228,
        "credit_token": "b315147ae43241ea9c65086cb510cfb7",
        "survey_code": "45401",
        "sid": "sona-45401",
        "window": {
            "width": 1440,
            "height": 821
        },
        "screen": {
            "width": 1440,
            "height": 900
        },
        "userAgent": "Mozilla\/5.0 (Macintosh; Intel Mac OS X 10_15_7) AppleWebKit\/537.36 (KHTML, like Gecko) Chrome\/112.0.0.0 Safari\/537.36",
        "score": 0,
        "bonus": 0
    },
    "expt": {
        "saveURL": "submit.simple.php",
        "trials": 100,
        "practiceTrials": 2,
        "marblesSampled": 100,
        "probRed": 0.5,
        "practiceLambdaAI": 5,
        "lambdaAI": 21.9,
        "roles": [
            "sender",
            "receiver"
        ],
        "cost": "unif",
        "goal": "over",
        "oppDishonesty": "dishonest_small",
        "catchTrials": [
            78,
            69,
            50,
            84,
            77,
            33,
            92,
            56,
            75,
            91
        ],
        "scoreTotal": {
            "player": -1730,
            "opp": 1728
        },
        "sona": {
            "experiment_id": 2228,
            "credit_token": "b315147ae43241ea9c65086cb510cfb7"
        },
        "pilot": false,
        "debug": false
    },
    "trials": [
        {
            "exptPart": "practice",
            "trialNumber": 1,
            "roleCurrent": "sender",
            "marblesSampled": 100,
            "probRed": 0.5,
            "practiceLambda": 5,
            "trialLambda": 21.9,
            "instructedLambda": "dishonest_small",
            "drawnRed": 32,
            "reportedRed": 25,
            "inferredRed": 19,
            "playerTrialScore": 0,
            "oppTrialScore": -13,
            "playerTotalScore": 0,
            "oppTotalScore": -13,
            "waitTime": 3191.503898679826,
            "responseTime": 1680911447580,
            "catchQuestion": "How many <b class=\"r\">red<\/b> marbles did you actually draw (before any changes)? ",
            "catchKey": 32,
            "catchResponse": 30,
            "catchTime": 1680911447580,
            "trialTime": 0
        },
        {
            "exptPart": "practice",
            "trialNumber": 2,
            "roleCurrent": "receiver",
            "marblesSampled": 100,
            "probRed": 0.5,
            "practiceLambda": 5,
            "trialLambda": 21.9,
            "instructedLambda": "dishonest_small",
            "drawnRed": 43,
            "reportedRed": 49,
            "inferredRed": 49,
            "playerTrialScore": -6,
            "oppTrialScore": 6,
            "playerTotalScore": -6,
            "oppTotalScore": -7,
            "waitTime": 6791.067426920616,
            "responseTime": 1680911483931,
            "catchQuestion": "How many <b class=\"r\">red<\/b> marbles did your opponent report drawing? ",
            "catchKey": 49,
            "catchResponse": 49,
            "catchTime": 1680911483931,
            "trialTime": 0
        },
        {
            "exptPart": "trial",
            "trialNumber": 1,
            "roleCurrent": "receiver",
            "marblesSampled": 100,
            "probRed": 0.5,
            "practiceLambda": 5,
            "trialLambda": 21.9,
            "instructedLambda": "dishonest_small",
            "drawnRed": 45,
            "reportedRed": 70,
            "inferredRed": 68,
            "playerTrialScore": -23,
            "oppTrialScore": 23,
            "playerTotalScore": -23,
            "oppTotalScore": 23,
            "waitTime": 5309.275809040533,
            "responseTime": 1680911518766,
            "catchQuestion": "How many <b class=\"r\">red<\/b> marbles did your opponent report drawing? ",
            "catchKey": -1,
            "catchResponse": -1,
            "catchTime": 1680911483931,
            "trialTime": 0
        },
        {
            "exptPart": "trial",
            "trialNumber": 2,
            "roleCurrent": "receiver",
            "marblesSampled": 100,
            "probRed": 0.5,
            "practiceLambda": 5,
            "trialLambda": 21.9,
            "instructedLambda": "dishonest_small",
            "drawnRed": 42,
            "reportedRed": 63,
            "inferredRed": 63,
            "playerTrialScore": -21,
            "oppTrialScore": 21,
            "playerTotalScore": -44,
            "oppTotalScore": 44,
            "waitTime": 6150.18223925378,
            "responseTime": 1680911528716,
            "catchQuestion": "How many <b class=\"r\">red<\/b> marbles did your opponent report drawing? ",
            "catchKey": -1,
            "catchResponse": -1,
            "catchTime": 1680911483931,
            "trialTime": 0
        },
        {
            "exptPart": "trial",
            "trialNumber": 3,
            "roleCurrent": "receiver",
            "marblesSampled": 100,
            "probRed": 0.5,
            "practiceLambda": 5,
            "trialLambda": 21.9,
            "instructedLambda": "dishonest_small",
            "drawnRed": 62,
            "reportedRed": 84,
            "inferredRed": 84,
            "playerTrialScore": -22,
            "oppTrialScore": 22,
            "playerTotalScore": -66,
            "oppTotalScore": 66,
            "waitTime": 5317.195395259649,
            "responseTime": 1680911537049,
            "catchQuestion": "How many <b class=\"r\">red<\/b> marbles did your opponent report drawing? ",
            "catchKey": -1,
            "catchResponse": -1,
            "catchTime": 1680911483931,
            "trialTime": 0
        },
        {
            "exptPart": "trial",
            "trialNumber": 4,
            "roleCurrent": "receiver",
            "marblesSampled": 100,
            "probRed": 0.5,
            "practiceLambda": 5,
            "trialLambda": 21.9,
            "instructedLambda": "dishonest_small",
            "drawnRed": 82,
            "reportedRed": 100,
            "inferredRed": 98,
            "playerTrialScore": -16,
            "oppTrialScore": 16,
            "playerTotalScore": -82,
            "oppTotalScore": 82,
            "waitTime": 6115.347714910264,
            "responseTime": 1680911550717,
            "catchQuestion": "How many <b class=\"r\">red<\/b> marbles did your opponent report drawing? ",
            "catchKey": -1,
            "catchResponse": -1,
            "catchTime": 1680911483931,
            "trialTime": 0
        },
        {
            "exptPart": "trial",
            "trialNumber": 5,
            "roleCurrent": "receiver",
            "marblesSampled": 100,
            "probRed": 0.5,
            "practiceLambda": 5,
            "trialLambda": 21.9,
            "instructedLambda": "dishonest_small",
            "drawnRed": 41,
            "reportedRed": 58,
            "inferredRed": 60,
            "playerTrialScore": -19,
            "oppTrialScore": 19,
            "playerTotalScore": -101,
            "oppTotalScore": 101,
            "waitTime": 5851.358787823029,
            "responseTime": 1680911563601,
            "catchQuestion": "How many <b class=\"r\">red<\/b> marbles did your opponent report drawing? ",
            "catchKey": -1,
            "catchResponse": -1,
            "catchTime": 1680911483931,
            "trialTime": 0
        },
        {
            "exptPart": "trial",
            "trialNumber": 6,
            "roleCurrent": "receiver",
            "marblesSampled": 100,
            "probRed": 0.5,
            "practiceLambda": 5,
            "trialLambda": 21.9,
            "instructedLambda": "dishonest_small",
            "drawnRed": 23,
            "reportedRed": 46,
            "inferredRed": 46,
            "playerTrialScore": -23,
            "oppTrialScore": 23,
            "playerTotalScore": -124,
            "oppTotalScore": 124,
            "waitTime": 6164.245063604053,
            "responseTime": 1680911574751,
            "catchQuestion": "How many <b class=\"r\">red<\/b> marbles did your opponent report drawing? ",
            "catchKey": -1,
            "catchResponse": -1,
            "catchTime": 1680911483931,
            "trialTime": 0
        },
        {
            "exptPart": "trial",
            "trialNumber": 7,
            "roleCurrent": "receiver",
            "marblesSampled": 100,
            "probRed": 0.5,
            "practiceLambda": 5,
            "trialLambda": 21.9,
            "instructedLambda": "dishonest_small",
            "drawnRed": 37,
            "reportedRed": 57,
            "inferredRed": 55,
            "playerTrialScore": -18,
            "oppTrialScore": 18,
            "playerTotalScore": -142,
            "oppTotalScore": 142,
            "waitTime": 5499.911320085402,
            "responseTime": 1680911586351,
            "catchQuestion": "How many <b class=\"r\">red<\/b> marbles did your opponent report drawing? ",
            "catchKey": -1,
            "catchResponse": -1,
            "catchTime": 1680911483931,
            "trialTime": 0
        },
        {
            "exptPart": "trial",
            "trialNumber": 8,
            "roleCurrent": "receiver",
            "marblesSampled": 100,
            "probRed": 0.5,
            "practiceLambda": 5,
            "trialLambda": 21.9,
            "instructedLambda": "dishonest_small",
            "drawnRed": 19,
            "reportedRed": 41,
            "inferredRed": 42,
            "playerTrialScore": -23,
            "oppTrialScore": 23,
            "playerTotalScore": -165,
            "oppTotalScore": 165,
            "waitTime": 5767.666072960526,
            "responseTime": 1680911598386,
            "catchQuestion": "How many <b class=\"r\">red<\/b> marbles did your opponent report drawing? ",
            "catchKey": -1,
            "catchResponse": -1,
            "catchTime": 1680911483931,
            "trialTime": 0
        },
        {
            "exptPart": "trial",
            "trialNumber": 9,
            "roleCurrent": "receiver",
            "marblesSampled": 100,
            "probRed": 0.5,
            "practiceLambda": 5,
            "trialLambda": 21.9,
            "instructedLambda": "dishonest_small",
            "drawnRed": 70,
            "reportedRed": 97,
            "inferredRed": 100,
            "playerTrialScore": -30,
            "oppTrialScore": 30,
            "playerTotalScore": -195,
            "oppTotalScore": 195,
            "waitTime": 7257.361990877985,
            "responseTime": 1680911613469,
            "catchQuestion": "How many <b class=\"r\">red<\/b> marbles did your opponent report drawing? ",
            "catchKey": -1,
            "catchResponse": -1,
            "catchTime": 1680911483931,
            "trialTime": 0
        },
        {
            "exptPart": "trial",
            "trialNumber": 10,
            "roleCurrent": "receiver",
            "marblesSampled": 100,
            "probRed": 0.5,
            "practiceLambda": 5,
            "trialLambda": 21.9,
            "instructedLambda": "dishonest_small",
            "drawnRed": 63,
            "reportedRed": 84,
            "inferredRed": 84,
            "playerTrialScore": -21,
            "oppTrialScore": 21,
            "playerTotalScore": -216,
            "oppTotalScore": 216,
            "waitTime": 5993.010875666285,
            "responseTime": 1680911623436,
            "catchQuestion": "How many <b class=\"r\">red<\/b> marbles did your opponent report drawing? ",
            "catchKey": -1,
            "catchResponse": -1,
            "catchTime": 1680911623436,
            "trialTime": 0
        },
        {
            "exptPart": "trial",
            "trialNumber": 11,
            "roleCurrent": "receiver",
            "marblesSampled": 100,
            "probRed": 0.5,
            "practiceLambda": 5,
            "trialLambda": 21.9,
            "instructedLambda": "dishonest_small",
            "drawnRed": 61,
            "reportedRed": 80,
            "inferredRed": 77,
            "playerTrialScore": -16,
            "oppTrialScore": 16,
            "playerTotalScore": -232,
            "oppTotalScore": 232,
            "waitTime": 6295.668423727898,
            "responseTime": 1680911653463,
            "catchQuestion": "How many <b class=\"r\">red<\/b> marbles did your opponent report drawing? ",
            "catchKey": -1,
            "catchResponse": -1,
            "catchTime": 1680911623436,
            "trialTime": 0
        },
        {
            "exptPart": "trial",
            "trialNumber": 12,
            "roleCurrent": "receiver",
            "marblesSampled": 100,
            "probRed": 0.5,
            "practiceLambda": 5,
            "trialLambda": 21.9,
            "instructedLambda": "dishonest_small",
            "drawnRed": 50,
            "reportedRed": 67,
            "inferredRed": 65,
            "playerTrialScore": -15,
            "oppTrialScore": 15,
            "playerTotalScore": -247,
            "oppTotalScore": 247,
            "waitTime": 6514.13534517781,
            "responseTime": 1680911665304,
            "catchQuestion": "How many <b class=\"r\">red<\/b> marbles did your opponent report drawing? ",
            "catchKey": -1,
            "catchResponse": -1,
            "catchTime": 1680911623436,
            "trialTime": 0
        },
        {
            "exptPart": "trial",
            "trialNumber": 13,
            "roleCurrent": "receiver",
            "marblesSampled": 100,
            "probRed": 0.5,
            "practiceLambda": 5,
            "trialLambda": 21.9,
            "instructedLambda": "dishonest_small",
            "drawnRed": 54,
            "reportedRed": 77,
            "inferredRed": 75,
            "playerTrialScore": -21,
            "oppTrialScore": 21,
            "playerTotalScore": -268,
            "oppTotalScore": 268,
            "waitTime": 7018.152451502252,
            "responseTime": 1680911676972,
            "catchQuestion": "How many <b class=\"r\">red<\/b> marbles did your opponent report drawing? ",
            "catchKey": -1,
            "catchResponse": -1,
            "catchTime": 1680911623436,
            "trialTime": 0
        },
        {
            "exptPart": "trial",
            "trialNumber": 14,
            "roleCurrent": "receiver",
            "marblesSampled": 100,
            "probRed": 0.5,
            "practiceLambda": 5,
            "trialLambda": 21.9,
            "instructedLambda": "dishonest_small",
            "drawnRed": 36,
            "reportedRed": 58,
            "inferredRed": 58,
            "playerTrialScore": -22,
            "oppTrialScore": 22,
            "playerTotalScore": -290,
            "oppTotalScore": 290,
            "waitTime": 5325.101987919292,
            "responseTime": 1680911686921,
            "catchQuestion": "How many <b class=\"r\">red<\/b> marbles did your opponent report drawing? ",
            "catchKey": -1,
            "catchResponse": -1,
            "catchTime": 1680911623436,
            "trialTime": 0
        },
        {
            "exptPart": "trial",
            "trialNumber": 15,
            "roleCurrent": "receiver",
            "marblesSampled": 100,
            "probRed": 0.5,
            "practiceLambda": 5,
            "trialLambda": 21.9,
            "instructedLambda": "dishonest_small",
            "drawnRed": 48,
            "reportedRed": 67,
            "inferredRed": 67,
            "playerTrialScore": -19,
            "oppTrialScore": 19,
            "playerTotalScore": -309,
            "oppTotalScore": 309,
            "waitTime": 5841.609466851638,
            "responseTime": 1680911695522,
            "catchQuestion": "How many <b class=\"r\">red<\/b> marbles did your opponent report drawing? ",
            "catchKey": -1,
            "catchResponse": -1,
            "catchTime": 1680911623436,
            "trialTime": 0
        },
        {
            "exptPart": "trial",
            "trialNumber": 16,
            "roleCurrent": "receiver",
            "marblesSampled": 100,
            "probRed": 0.5,
            "practiceLambda": 5,
            "trialLambda": 21.9,
            "instructedLambda": "dishonest_small",
            "drawnRed": 21,
            "reportedRed": 48,
            "inferredRed": 48,
            "playerTrialScore": -27,
            "oppTrialScore": 27,
            "playerTotalScore": -336,
            "oppTotalScore": 336,
            "waitTime": 5993.446015606648,
            "responseTime": 1680911704673,
            "catchQuestion": "How many <b class=\"r\">red<\/b> marbles did your opponent report drawing? ",
            "catchKey": -1,
            "catchResponse": -1,
            "catchTime": 1680911623436,
            "trialTime": 0
        },
        {
            "exptPart": "trial",
            "trialNumber": 17,
            "roleCurrent": "receiver",
            "marblesSampled": 100,
            "probRed": 0.5,
            "practiceLambda": 5,
            "trialLambda": 21.9,
            "instructedLambda": "dishonest_small",
            "drawnRed": 63,
            "reportedRed": 85,
            "inferredRed": 85,
            "playerTrialScore": -22,
            "oppTrialScore": 22,
            "playerTotalScore": -358,
            "oppTotalScore": 358,
            "waitTime": 6174.385371244435,
            "responseTime": 1680911717573,
            "catchQuestion": "How many <b class=\"r\">red<\/b> marbles did your opponent report drawing? ",
            "catchKey": -1,
            "catchResponse": -1,
            "catchTime": 1680911623436,
            "trialTime": 0
        },
        {
            "exptPart": "trial",
            "trialNumber": 18,
            "roleCurrent": "receiver",
            "marblesSampled": 100,
            "probRed": 0.5,
            "practiceLambda": 5,
            "trialLambda": 21.9,
            "instructedLambda": "dishonest_small",
            "drawnRed": 62,
            "reportedRed": 82,
            "inferredRed": 83,
            "playerTrialScore": -21,
            "oppTrialScore": 21,
            "playerTotalScore": -379,
            "oppTotalScore": 379,
            "waitTime": 6548.257578079687,
            "responseTime": 1680911729074,
            "catchQuestion": "How many <b class=\"r\">red<\/b> marbles did your opponent report drawing? ",
            "catchKey": -1,
            "catchResponse": -1,
            "catchTime": 1680911623436,
            "trialTime": 0
        },
        {
            "exptPart": "trial",
            "trialNumber": 19,
            "roleCurrent": "receiver",
            "marblesSampled": 100,
            "probRed": 0.5,
            "practiceLambda": 5,
            "trialLambda": 21.9,
            "instructedLambda": "dishonest_small",
            "drawnRed": 18,
            "reportedRed": 34,
            "inferredRed": 34,
            "playerTrialScore": -16,
            "oppTrialScore": 16,
            "playerTotalScore": -395,
            "oppTotalScore": 395,
            "waitTime": 5240.887484367844,
            "responseTime": 1680911737224,
            "catchQuestion": "How many <b class=\"r\">red<\/b> marbles did your opponent report drawing? ",
            "catchKey": -1,
            "catchResponse": -1,
            "catchTime": 1680911623436,
            "trialTime": 0
        },
        {
            "exptPart": "trial",
            "trialNumber": 20,
            "roleCurrent": "receiver",
            "marblesSampled": 100,
            "probRed": 0.5,
            "practiceLambda": 5,
            "trialLambda": 21.9,
            "instructedLambda": "dishonest_small",
            "drawnRed": 23,
            "reportedRed": 39,
            "inferredRed": 39,
            "playerTrialScore": -16,
            "oppTrialScore": 16,
            "playerTotalScore": -411,
            "oppTotalScore": 411,
            "waitTime": 6104.664963617783,
            "responseTime": 1680911746808,
            "catchQuestion": "How many <b class=\"r\">red<\/b> marbles did your opponent report drawing? ",
            "catchKey": -1,
            "catchResponse": -1,
            "catchTime": 1680911746808,
            "trialTime": 0
        },
        {
            "exptPart": "trial",
            "trialNumber": 21,
            "roleCurrent": "receiver",
            "marblesSampled": 100,
            "probRed": 0.5,
            "practiceLambda": 5,
            "trialLambda": 21.9,
            "instructedLambda": "dishonest_small",
            "drawnRed": 84,
            "reportedRed": 100,
            "inferredRed": 100,
            "playerTrialScore": -16,
            "oppTrialScore": 16,
            "playerTotalScore": -427,
            "oppTotalScore": 427,
            "waitTime": 6985.813115432387,
            "responseTime": 1680911762599,
            "catchQuestion": "How many <b class=\"r\">red<\/b> marbles did your opponent report drawing? ",
            "catchKey": -1,
            "catchResponse": -1,
            "catchTime": 1680911746808,
            "trialTime": 0
        },
        {
            "exptPart": "trial",
            "trialNumber": 22,
            "roleCurrent": "receiver",
            "marblesSampled": 100,
            "probRed": 0.5,
            "practiceLambda": 5,
            "trialLambda": 21.9,
            "instructedLambda": "dishonest_small",
            "drawnRed": 79,
            "reportedRed": 100,
            "inferredRed": 100,
            "playerTrialScore": -21,
            "oppTrialScore": 21,
            "playerTotalScore": -448,
            "oppTotalScore": 448,
            "waitTime": 5935.270659558553,
            "responseTime": 1680911777709,
            "catchQuestion": "How many <b class=\"r\">red<\/b> marbles did your opponent report drawing? ",
            "catchKey": -1,
            "catchResponse": -1,
            "catchTime": 1680911746808,
            "trialTime": 0
        },
        {
            "exptPart": "trial",
            "trialNumber": 23,
            "roleCurrent": "receiver",
            "marblesSampled": 100,
            "probRed": 0.5,
            "practiceLambda": 5,
            "trialLambda": 21.9,
            "instructedLambda": "dishonest_small",
            "drawnRed": 61,
            "reportedRed": 89,
            "inferredRed": 89,
            "playerTrialScore": -28,
            "oppTrialScore": 28,
            "playerTotalScore": -476,
            "oppTotalScore": 476,
            "waitTime": 7100.906192121289,
            "responseTime": 1680911788709,
            "catchQuestion": "How many <b class=\"r\">red<\/b> marbles did your opponent report drawing? ",
            "catchKey": -1,
            "catchResponse": -1,
            "catchTime": 1680911746808,
            "trialTime": 0
        },
        {
            "exptPart": "trial",
            "trialNumber": 24,
            "roleCurrent": "receiver",
            "marblesSampled": 100,
            "probRed": 0.5,
            "practiceLambda": 5,
            "trialLambda": 21.9,
            "instructedLambda": "dishonest_small",
            "drawnRed": 84,
            "reportedRed": 100,
            "inferredRed": 100,
            "playerTrialScore": -16,
            "oppTrialScore": 16,
            "playerTotalScore": -492,
            "oppTotalScore": 492,
            "waitTime": 6236.7064140552175,
            "responseTime": 1680911797926,
            "catchQuestion": "How many <b class=\"r\">red<\/b> marbles did your opponent report drawing? ",
            "catchKey": -1,
            "catchResponse": -1,
            "catchTime": 1680911746808,
            "trialTime": 0
        },
        {
            "exptPart": "trial",
            "trialNumber": 25,
            "roleCurrent": "receiver",
            "marblesSampled": 100,
            "probRed": 0.5,
            "practiceLambda": 5,
            "trialLambda": 21.9,
            "instructedLambda": "dishonest_small",
            "drawnRed": 55,
            "reportedRed": 83,
            "inferredRed": 83,
            "playerTrialScore": -28,
            "oppTrialScore": 28,
            "playerTotalScore": -520,
            "oppTotalScore": 520,
            "waitTime": 6536.1124755149085,
            "responseTime": 1680911808143,
            "catchQuestion": "How many <b class=\"r\">red<\/b> marbles did your opponent report drawing? ",
            "catchKey": -1,
            "catchResponse": -1,
            "catchTime": 1680911746808,
            "trialTime": 0
        },
        {
            "exptPart": "trial",
            "trialNumber": 26,
            "roleCurrent": "receiver",
            "marblesSampled": 100,
            "probRed": 0.5,
            "practiceLambda": 5,
            "trialLambda": 21.9,
            "instructedLambda": "dishonest_small",
            "drawnRed": 73,
            "reportedRed": 100,
            "inferredRed": 100,
            "playerTrialScore": -27,
            "oppTrialScore": 27,
            "playerTotalScore": -547,
            "oppTotalScore": 547,
            "waitTime": 6131.672367656251,
            "responseTime": 1680911817261,
            "catchQuestion": "How many <b class=\"r\">red<\/b> marbles did your opponent report drawing? ",
            "catchKey": -1,
            "catchResponse": -1,
            "catchTime": 1680911746808,
            "trialTime": 0
        },
        {
            "exptPart": "trial",
            "trialNumber": 27,
            "roleCurrent": "receiver",
            "marblesSampled": 100,
            "probRed": 0.5,
            "practiceLambda": 5,
            "trialLambda": 21.9,
            "instructedLambda": "dishonest_small",
            "drawnRed": 61,
            "reportedRed": 79,
            "inferredRed": 79,
            "playerTrialScore": -18,
            "oppTrialScore": 18,
            "playerTotalScore": -565,
            "oppTotalScore": 565,
            "waitTime": 6701.659358209263,
            "responseTime": 1680911828660,
            "catchQuestion": "How many <b class=\"r\">red<\/b> marbles did your opponent report drawing? ",
            "catchKey": -1,
            "catchResponse": -1,
            "catchTime": 1680911746808,
            "trialTime": 0
        },
        {
            "exptPart": "trial",
            "trialNumber": 28,
            "roleCurrent": "receiver",
            "marblesSampled": 100,
            "probRed": 0.5,
            "practiceLambda": 5,
            "trialLambda": 21.9,
            "instructedLambda": "dishonest_small",
            "drawnRed": 25,
            "reportedRed": 37,
            "inferredRed": 37,
            "playerTrialScore": -12,
            "oppTrialScore": 12,
            "playerTotalScore": -577,
            "oppTotalScore": 577,
            "waitTime": 5507.691983054341,
            "responseTime": 1680911837244,
            "catchQuestion": "How many <b class=\"r\">red<\/b> marbles did your opponent report drawing? ",
            "catchKey": -1,
            "catchResponse": -1,
            "catchTime": 1680911746808,
            "trialTime": 0
        },
        {
            "exptPart": "trial",
            "trialNumber": 29,
            "roleCurrent": "receiver",
            "marblesSampled": 100,
            "probRed": 0.5,
            "practiceLambda": 5,
            "trialLambda": 21.9,
            "instructedLambda": "dishonest_small",
            "drawnRed": 60,
            "reportedRed": 81,
            "inferredRed": 81,
            "playerTrialScore": -21,
            "oppTrialScore": 21,
            "playerTotalScore": -598,
            "oppTotalScore": 598,
            "waitTime": 5943.062893063425,
            "responseTime": 1680911845511,
            "catchQuestion": "How many <b class=\"r\">red<\/b> marbles did your opponent report drawing? ",
            "catchKey": -1,
            "catchResponse": -1,
            "catchTime": 1680911746808,
            "trialTime": 0
        },
        {
            "exptPart": "trial",
            "trialNumber": 30,
            "roleCurrent": "receiver",
            "marblesSampled": 100,
            "probRed": 0.5,
            "practiceLambda": 5,
            "trialLambda": 21.9,
            "instructedLambda": "dishonest_small",
            "drawnRed": 61,
            "reportedRed": 83,
            "inferredRed": 83,
            "playerTrialScore": -22,
            "oppTrialScore": 22,
            "playerTotalScore": -620,
            "oppTotalScore": 620,
            "waitTime": 5840.7733192156775,
            "responseTime": 1680911855982,
            "catchQuestion": "How many <b class=\"r\">red<\/b> marbles did your opponent report drawing? ",
            "catchKey": -1,
            "catchResponse": -1,
            "catchTime": 1680911855982,
            "trialTime": 0
        },
        {
            "exptPart": "trial",
            "trialNumber": 31,
            "roleCurrent": "receiver",
            "marblesSampled": 100,
            "probRed": 0.5,
            "practiceLambda": 5,
            "trialLambda": 21.9,
            "instructedLambda": "dishonest_small",
            "drawnRed": 44,
            "reportedRed": 62,
            "inferredRed": 62,
            "playerTrialScore": -18,
            "oppTrialScore": 18,
            "playerTotalScore": -638,
            "oppTotalScore": 638,
            "waitTime": 7224.7833116241,
            "responseTime": 1680911869096,
            "catchQuestion": "How many <b class=\"r\">red<\/b> marbles did your opponent report drawing? ",
            "catchKey": -1,
            "catchResponse": -1,
            "catchTime": 1680911855982,
            "trialTime": 0
        },
        {
            "exptPart": "trial",
            "trialNumber": 32,
            "roleCurrent": "receiver",
            "marblesSampled": 100,
            "probRed": 0.5,
            "practiceLambda": 5,
            "trialLambda": 21.9,
            "instructedLambda": "dishonest_small",
            "drawnRed": 41,
            "reportedRed": 70,
            "inferredRed": 60,
            "playerTrialScore": -19,
            "oppTrialScore": 19,
            "playerTotalScore": -657,
            "oppTotalScore": 657,
            "waitTime": 7216.44616132022,
            "responseTime": 1680911886196,
            "catchQuestion": "How many <b class=\"r\">red<\/b> marbles did your opponent report drawing? ",
            "catchKey": -1,
            "catchResponse": -1,
            "catchTime": 1680911855982,
            "trialTime": 0
        },
        {
            "exptPart": "trial",
            "trialNumber": 33,
            "roleCurrent": "receiver",
            "marblesSampled": 100,
            "probRed": 0.5,
            "practiceLambda": 5,
            "trialLambda": 21.9,
            "instructedLambda": "dishonest_small",
            "drawnRed": 44,
            "reportedRed": 64,
            "inferredRed": 60,
            "playerTrialScore": -16,
            "oppTrialScore": 16,
            "playerTotalScore": -673,
            "oppTotalScore": 673,
            "waitTime": 6975.293277737464,
            "responseTime": 1680911900230,
            "catchQuestion": "How many <b class=\"r\">red<\/b> marbles did your opponent report drawing? ",
            "catchKey": -1,
            "catchResponse": -1,
            "catchTime": 1680911855982,
            "trialTime": 0
        },
        {
            "exptPart": "trial",
            "trialNumber": 34,
            "roleCurrent": "receiver",
            "marblesSampled": 100,
            "probRed": 0.5,
            "practiceLambda": 5,
            "trialLambda": 21.9,
            "instructedLambda": "dishonest_small",
            "drawnRed": 72,
            "reportedRed": 97,
            "inferredRed": 88,
            "playerTrialScore": -16,
            "oppTrialScore": 16,
            "playerTotalScore": -689,
            "oppTotalScore": 689,
            "waitTime": 6912.906739186451,
            "responseTime": 1680911912364,
            "catchQuestion": "How many <b class=\"r\">red<\/b> marbles did your opponent report drawing? ",
            "catchKey": 97,
            "catchResponse": 97,
            "catchTime": 1680911912364,
            "trialTime": 0
        },
        {
            "exptPart": "trial",
            "trialNumber": 35,
            "roleCurrent": "receiver",
            "marblesSampled": 100,
            "probRed": 0.5,
            "practiceLambda": 5,
            "trialLambda": 21.9,
            "instructedLambda": "dishonest_small",
            "drawnRed": 86,
            "reportedRed": 100,
            "inferredRed": 84,
            "playerTrialScore": -2,
            "oppTrialScore": 0,
            "playerTotalScore": -691,
            "oppTotalScore": 689,
            "waitTime": 6218.061816015303,
            "responseTime": 1680911927714,
            "catchQuestion": "How many <b class=\"r\">red<\/b> marbles did your opponent report drawing? ",
            "catchKey": -1,
            "catchResponse": -1,
            "catchTime": 1680911912364,
            "trialTime": 0
        },
        {
            "exptPart": "trial",
            "trialNumber": 36,
            "roleCurrent": "receiver",
            "marblesSampled": 100,
            "probRed": 0.5,
            "practiceLambda": 5,
            "trialLambda": 21.9,
            "instructedLambda": "dishonest_small",
            "drawnRed": 51,
            "reportedRed": 78,
            "inferredRed": 83,
            "playerTrialScore": -32,
            "oppTrialScore": 32,
            "playerTotalScore": -723,
            "oppTotalScore": 721,
            "waitTime": 6881.562544938095,
            "responseTime": 1680911945149,
            "catchQuestion": "How many <b class=\"r\">red<\/b> marbles did your opponent report drawing? ",
            "catchKey": -1,
            "catchResponse": -1,
            "catchTime": 1680911912364,
            "trialTime": 0
        },
        {
            "exptPart": "trial",
            "trialNumber": 37,
            "roleCurrent": "receiver",
            "marblesSampled": 100,
            "probRed": 0.5,
            "practiceLambda": 5,
            "trialLambda": 21.9,
            "instructedLambda": "dishonest_small",
            "drawnRed": 21,
            "reportedRed": 45,
            "inferredRed": 36,
            "playerTrialScore": -15,
            "oppTrialScore": 15,
            "playerTotalScore": -738,
            "oppTotalScore": 736,
            "waitTime": 6810.868714335952,
            "responseTime": 1680911958150,
            "catchQuestion": "How many <b class=\"r\">red<\/b> marbles did your opponent report drawing? ",
            "catchKey": -1,
            "catchResponse": -1,
            "catchTime": 1680911912364,
            "trialTime": 0
        },
        {
            "exptPart": "trial",
            "trialNumber": 38,
            "roleCurrent": "receiver",
            "marblesSampled": 100,
            "probRed": 0.5,
            "practiceLambda": 5,
            "trialLambda": 21.9,
            "instructedLambda": "dishonest_small",
            "drawnRed": 68,
            "reportedRed": 93,
            "inferredRed": 93,
            "playerTrialScore": -25,
            "oppTrialScore": 25,
            "playerTotalScore": -763,
            "oppTotalScore": 761,
            "waitTime": 5460.532942601491,
            "responseTime": 1680911968999,
            "catchQuestion": "How many <b class=\"r\">red<\/b> marbles did your opponent report drawing? ",
            "catchKey": -1,
            "catchResponse": -1,
            "catchTime": 1680911912364,
            "trialTime": 0
        },
        {
            "exptPart": "trial",
            "trialNumber": 39,
            "roleCurrent": "receiver",
            "marblesSampled": 100,
            "probRed": 0.5,
            "practiceLambda": 5,
            "trialLambda": 21.9,
            "instructedLambda": "dishonest_small",
            "drawnRed": 19,
            "reportedRed": 46,
            "inferredRed": 44,
            "playerTrialScore": -25,
            "oppTrialScore": 25,
            "playerTotalScore": -788,
            "oppTotalScore": 786,
            "waitTime": 7281.466258588801,
            "responseTime": 1680911984601,
            "catchQuestion": "How many <b class=\"r\">red<\/b> marbles did your opponent report drawing? ",
            "catchKey": -1,
            "catchResponse": -1,
            "catchTime": 1680911912364,
            "trialTime": 0
        },
        {
            "exptPart": "trial",
            "trialNumber": 40,
            "roleCurrent": "receiver",
            "marblesSampled": 100,
            "probRed": 0.5,
            "practiceLambda": 5,
            "trialLambda": 21.9,
            "instructedLambda": "dishonest_small",
            "drawnRed": 59,
            "reportedRed": 73,
            "inferredRed": 70,
            "playerTrialScore": -11,
            "oppTrialScore": 11,
            "playerTotalScore": -799,
            "oppTotalScore": 797,
            "waitTime": 6297.774798089783,
            "responseTime": 1680911994785,
            "catchQuestion": "How many <b class=\"r\">red<\/b> marbles did your opponent report drawing? ",
            "catchKey": -1,
            "catchResponse": -1,
            "catchTime": 1680911994785,
            "trialTime": 0
        },
        {
            "exptPart": "trial",
            "trialNumber": 41,
            "roleCurrent": "receiver",
            "marblesSampled": 100,
            "probRed": 0.5,
            "practiceLambda": 5,
            "trialLambda": 21.9,
            "instructedLambda": "dishonest_small",
            "drawnRed": 74,
            "reportedRed": 98,
            "inferredRed": 93,
            "playerTrialScore": -19,
            "oppTrialScore": 19,
            "playerTotalScore": -818,
            "oppTotalScore": 816,
            "waitTime": 5783.696626501445,
            "responseTime": 1680912012667,
            "catchQuestion": "How many <b class=\"r\">red<\/b> marbles did your opponent report drawing? ",
            "catchKey": -1,
            "catchResponse": -1,
            "catchTime": 1680911994785,
            "trialTime": 0
        },
        {
            "exptPart": "trial",
            "trialNumber": 42,
            "roleCurrent": "receiver",
            "marblesSampled": 100,
            "probRed": 0.5,
            "practiceLambda": 5,
            "trialLambda": 21.9,
            "instructedLambda": "dishonest_small",
            "drawnRed": 65,
            "reportedRed": 86,
            "inferredRed": 84,
            "playerTrialScore": -19,
            "oppTrialScore": 19,
            "playerTotalScore": -837,
            "oppTotalScore": 835,
            "waitTime": 6360.539618404289,
            "responseTime": 1680912025502,
            "catchQuestion": "How many <b class=\"r\">red<\/b> marbles did your opponent report drawing? ",
            "catchKey": -1,
            "catchResponse": -1,
            "catchTime": 1680911994785,
            "trialTime": 0
        },
        {
            "exptPart": "trial",
            "trialNumber": 43,
            "roleCurrent": "receiver",
            "marblesSampled": 100,
            "probRed": 0.5,
            "practiceLambda": 5,
            "trialLambda": 21.9,
            "instructedLambda": "dishonest_small",
            "drawnRed": 39,
            "reportedRed": 55,
            "inferredRed": 55,
            "playerTrialScore": -16,
            "oppTrialScore": 16,
            "playerTotalScore": -853,
            "oppTotalScore": 851,
            "waitTime": 6284.8557664361415,
            "responseTime": 1680912039353,
            "catchQuestion": "How many <b class=\"r\">red<\/b> marbles did your opponent report drawing? ",
            "catchKey": -1,
            "catchResponse": -1,
            "catchTime": 1680911994785,
            "trialTime": 0
        },
        {
            "exptPart": "trial",
            "trialNumber": 44,
            "roleCurrent": "receiver",
            "marblesSampled": 100,
            "probRed": 0.5,
            "practiceLambda": 5,
            "trialLambda": 21.9,
            "instructedLambda": "dishonest_small",
            "drawnRed": 51,
            "reportedRed": 66,
            "inferredRed": 60,
            "playerTrialScore": -9,
            "oppTrialScore": 9,
            "playerTotalScore": -862,
            "oppTotalScore": 860,
            "waitTime": 6886.436438603214,
            "responseTime": 1680912056036,
            "catchQuestion": "How many <b class=\"r\">red<\/b> marbles did your opponent report drawing? ",
            "catchKey": -1,
            "catchResponse": -1,
            "catchTime": 1680911994785,
            "trialTime": 0
        },
        {
            "exptPart": "trial",
            "trialNumber": 45,
            "roleCurrent": "receiver",
            "marblesSampled": 100,
            "probRed": 0.5,
            "practiceLambda": 5,
            "trialLambda": 21.9,
            "instructedLambda": "dishonest_small",
            "drawnRed": 44,
            "reportedRed": 69,
            "inferredRed": 55,
            "playerTrialScore": -11,
            "oppTrialScore": 11,
            "playerTotalScore": -873,
            "oppTotalScore": 871,
            "waitTime": 7301.1851948570875,
            "responseTime": 1680912069487,
            "catchQuestion": "How many <b class=\"r\">red<\/b> marbles did your opponent report drawing? ",
            "catchKey": -1,
            "catchResponse": -1,
            "catchTime": 1680911994785,
            "trialTime": 0
        },
        {
            "exptPart": "trial",
            "trialNumber": 46,
            "roleCurrent": "receiver",
            "marblesSampled": 100,
            "probRed": 0.5,
            "practiceLambda": 5,
            "trialLambda": 21.9,
            "instructedLambda": "dishonest_small",
            "drawnRed": 85,
            "reportedRed": 100,
            "inferredRed": 88,
            "playerTrialScore": -3,
            "oppTrialScore": 3,
            "playerTotalScore": -876,
            "oppTotalScore": 874,
            "waitTime": 6091.5748266122555,
            "responseTime": 1680912080455,
            "catchQuestion": "How many <b class=\"r\">red<\/b> marbles did your opponent report drawing? ",
            "catchKey": -1,
            "catchResponse": -1,
            "catchTime": 1680911994785,
            "trialTime": 0
        },
        {
            "exptPart": "trial",
            "trialNumber": 47,
            "roleCurrent": "receiver",
            "marblesSampled": 100,
            "probRed": 0.5,
            "practiceLambda": 5,
            "trialLambda": 21.9,
            "instructedLambda": "dishonest_small",
            "drawnRed": 20,
            "reportedRed": 46,
            "inferredRed": 37,
            "playerTrialScore": -17,
            "oppTrialScore": 17,
            "playerTotalScore": -893,
            "oppTotalScore": 891,
            "waitTime": 5204.613108791902,
            "responseTime": 1680912093104,
            "catchQuestion": "How many <b class=\"r\">red<\/b> marbles did your opponent report drawing? ",
            "catchKey": -1,
            "catchResponse": -1,
            "catchTime": 1680911994785,
            "trialTime": 0
        },
        {
            "exptPart": "trial",
            "trialNumber": 48,
            "roleCurrent": "receiver",
            "marblesSampled": 100,
            "probRed": 0.5,
            "practiceLambda": 5,
            "trialLambda": 21.9,
            "instructedLambda": "dishonest_small",
            "drawnRed": 31,
            "reportedRed": 51,
            "inferredRed": 40,
            "playerTrialScore": -9,
            "oppTrialScore": 9,
            "playerTotalScore": -902,
            "oppTotalScore": 900,
            "waitTime": 5572.652582391511,
            "responseTime": 1680912103489,
            "catchQuestion": "How many <b class=\"r\">red<\/b> marbles did your opponent report drawing? ",
            "catchKey": -1,
            "catchResponse": -1,
            "catchTime": 1680911994785,
            "trialTime": 0
        },
        {
            "exptPart": "trial",
            "trialNumber": 49,
            "roleCurrent": "receiver",
            "marblesSampled": 100,
            "probRed": 0.5,
            "practiceLambda": 5,
            "trialLambda": 21.9,
            "instructedLambda": "dishonest_small",
            "drawnRed": 49,
            "reportedRed": 68,
            "inferredRed": 68,
            "playerTrialScore": -19,
            "oppTrialScore": 19,
            "playerTotalScore": -921,
            "oppTotalScore": 919,
            "waitTime": 5170.743519244776,
            "responseTime": 1680912113222,
            "catchQuestion": "How many <b class=\"r\">red<\/b> marbles did your opponent report drawing? ",
            "catchKey": -1,
            "catchResponse": -1,
            "catchTime": 1680911994785,
            "trialTime": 0
        },
        {
            "exptPart": "trial",
            "trialNumber": 50,
            "roleCurrent": "receiver",
            "marblesSampled": 100,
            "probRed": 0.5,
            "practiceLambda": 5,
            "trialLambda": 21.9,
            "instructedLambda": "dishonest_small",
            "drawnRed": 69,
            "reportedRed": 92,
            "inferredRed": 95,
            "playerTrialScore": -26,
            "oppTrialScore": 26,
            "playerTotalScore": -947,
            "oppTotalScore": 945,
            "waitTime": 5199.092601253546,
            "responseTime": 1680912129390,
            "catchQuestion": "How many <b class=\"r\">red<\/b> marbles did your opponent report drawing? ",
            "catchKey": -1,
            "catchResponse": -1,
            "catchTime": 1680912129391,
            "trialTime": 0
        },
        {
            "exptPart": "trial",
            "trialNumber": 51,
            "roleCurrent": "receiver",
            "marblesSampled": 100,
            "probRed": 0.5,
            "practiceLambda": 5,
            "trialLambda": 21.9,
            "instructedLambda": "dishonest_small",
            "drawnRed": 32,
            "reportedRed": 48,
            "inferredRed": 44,
            "playerTrialScore": -12,
            "oppTrialScore": 12,
            "playerTotalScore": -959,
            "oppTotalScore": 957,
            "waitTime": 7012.892749750466,
            "responseTime": 1680912148540,
            "catchQuestion": "How many <b class=\"r\">red<\/b> marbles did your opponent report drawing? ",
            "catchKey": 48,
            "catchResponse": 48,
            "catchTime": 1680912148540,
            "trialTime": 0
        },
        {
            "exptPart": "trial",
            "trialNumber": 52,
            "roleCurrent": "receiver",
            "marblesSampled": 100,
            "probRed": 0.5,
            "practiceLambda": 5,
            "trialLambda": 21.9,
            "instructedLambda": "dishonest_small",
            "drawnRed": 43,
            "reportedRed": 69,
            "inferredRed": 63,
            "playerTrialScore": -20,
            "oppTrialScore": 20,
            "playerTotalScore": -979,
            "oppTotalScore": 977,
            "waitTime": 5215.413630356508,
            "responseTime": 1680912162675,
            "catchQuestion": "How many <b class=\"r\">red<\/b> marbles did your opponent report drawing? ",
            "catchKey": -1,
            "catchResponse": -1,
            "catchTime": 1680912148540,
            "trialTime": 0
        },
        {
            "exptPart": "trial",
            "trialNumber": 53,
            "roleCurrent": "receiver",
            "marblesSampled": 100,
            "probRed": 0.5,
            "practiceLambda": 5,
            "trialLambda": 21.9,
            "instructedLambda": "dishonest_small",
            "drawnRed": 66,
            "reportedRed": 83,
            "inferredRed": 77,
            "playerTrialScore": -11,
            "oppTrialScore": 11,
            "playerTotalScore": -990,
            "oppTotalScore": 988,
            "waitTime": 7221.15716894633,
            "responseTime": 1680912180841,
            "catchQuestion": "How many <b class=\"r\">red<\/b> marbles did your opponent report drawing? ",
            "catchKey": -1,
            "catchResponse": -1,
            "catchTime": 1680912148540,
            "trialTime": 0
        },
        {
            "exptPart": "trial",
            "trialNumber": 54,
            "roleCurrent": "receiver",
            "marblesSampled": 100,
            "probRed": 0.5,
            "practiceLambda": 5,
            "trialLambda": 21.9,
            "instructedLambda": "dishonest_small",
            "drawnRed": 55,
            "reportedRed": 68,
            "inferredRed": 59,
            "playerTrialScore": -4,
            "oppTrialScore": 4,
            "playerTotalScore": -994,
            "oppTotalScore": 992,
            "waitTime": 6901.453103734635,
            "responseTime": 1680912195975,
            "catchQuestion": "How many <b class=\"r\">red<\/b> marbles did your opponent report drawing? ",
            "catchKey": -1,
            "catchResponse": -1,
            "catchTime": 1680912148540,
            "trialTime": 0
        },
        {
            "exptPart": "trial",
            "trialNumber": 55,
            "roleCurrent": "receiver",
            "marblesSampled": 100,
            "probRed": 0.5,
            "practiceLambda": 5,
            "trialLambda": 21.9,
            "instructedLambda": "dishonest_small",
            "drawnRed": 30,
            "reportedRed": 54,
            "inferredRed": 55,
            "playerTrialScore": -25,
            "oppTrialScore": 25,
            "playerTotalScore": -1019,
            "oppTotalScore": 1017,
            "waitTime": 6594.543775095926,
            "responseTime": 1680912205975,
            "catchQuestion": "How many <b class=\"r\">red<\/b> marbles did your opponent report drawing? ",
            "catchKey": -1,
            "catchResponse": -1,
            "catchTime": 1680912148540,
            "trialTime": 0
        },
        {
            "exptPart": "trial",
            "trialNumber": 56,
            "roleCurrent": "receiver",
            "marblesSampled": 100,
            "probRed": 0.5,
            "practiceLambda": 5,
            "trialLambda": 21.9,
            "instructedLambda": "dishonest_small",
            "drawnRed": 56,
            "reportedRed": 76,
            "inferredRed": 64,
            "playerTrialScore": -8,
            "oppTrialScore": 8,
            "playerTotalScore": -1027,
            "oppTotalScore": 1025,
            "waitTime": 6171.568431335239,
            "responseTime": 1680912221042,
            "catchQuestion": "How many <b class=\"r\">red<\/b> marbles did your opponent report drawing? ",
            "catchKey": -1,
            "catchResponse": -1,
            "catchTime": 1680912148540,
            "trialTime": 0
        },
        {
            "exptPart": "trial",
            "trialNumber": 57,
            "roleCurrent": "receiver",
            "marblesSampled": 100,
            "probRed": 0.5,
            "practiceLambda": 5,
            "trialLambda": 21.9,
            "instructedLambda": "dishonest_small",
            "drawnRed": 74,
            "reportedRed": 100,
            "inferredRed": 77,
            "playerTrialScore": -3,
            "oppTrialScore": 3,
            "playerTotalScore": -1030,
            "oppTotalScore": 1028,
            "waitTime": 5441.650116794657,
            "responseTime": 1680912234760,
            "catchQuestion": "How many <b class=\"r\">red<\/b> marbles did your opponent report drawing? ",
            "catchKey": 100,
            "catchResponse": 100,
            "catchTime": 1680912234760,
            "trialTime": 0
        },
        {
            "exptPart": "trial",
            "trialNumber": 58,
            "roleCurrent": "receiver",
            "marblesSampled": 100,
            "probRed": 0.5,
            "practiceLambda": 5,
            "trialLambda": 21.9,
            "instructedLambda": "dishonest_small",
            "drawnRed": 34,
            "reportedRed": 64,
            "inferredRed": 45,
            "playerTrialScore": -11,
            "oppTrialScore": 11,
            "playerTotalScore": -1041,
            "oppTotalScore": 1039,
            "waitTime": 6636.379383042264,
            "responseTime": 1680912252928,
            "catchQuestion": "How many <b class=\"r\">red<\/b> marbles did your opponent report drawing? ",
            "catchKey": -1,
            "catchResponse": -1,
            "catchTime": 1680912234760,
            "trialTime": 0
        },
        {
            "exptPart": "trial",
            "trialNumber": 59,
            "roleCurrent": "receiver",
            "marblesSampled": 100,
            "probRed": 0.5,
            "practiceLambda": 5,
            "trialLambda": 21.9,
            "instructedLambda": "dishonest_small",
            "drawnRed": 37,
            "reportedRed": 59,
            "inferredRed": 46,
            "playerTrialScore": -9,
            "oppTrialScore": 9,
            "playerTotalScore": -1050,
            "oppTotalScore": 1048,
            "waitTime": 6043.062684055234,
            "responseTime": 1680912264512,
            "catchQuestion": "How many <b class=\"r\">red<\/b> marbles did your opponent report drawing? ",
            "catchKey": -1,
            "catchResponse": -1,
            "catchTime": 1680912234760,
            "trialTime": 0
        },
        {
            "exptPart": "trial",
            "trialNumber": 60,
            "roleCurrent": "receiver",
            "marblesSampled": 100,
            "probRed": 0.5,
            "practiceLambda": 5,
            "trialLambda": 21.9,
            "instructedLambda": "dishonest_small",
            "drawnRed": 77,
            "reportedRed": 96,
            "inferredRed": 94,
            "playerTrialScore": -17,
            "oppTrialScore": 17,
            "playerTotalScore": -1067,
            "oppTotalScore": 1065,
            "waitTime": 6657.715400224093,
            "responseTime": 1680912278546,
            "catchQuestion": "How many <b class=\"r\">red<\/b> marbles did your opponent report drawing? ",
            "catchKey": -1,
            "catchResponse": -1,
            "catchTime": 1680912278546,
            "trialTime": 0
        },
        {
            "exptPart": "trial",
            "trialNumber": 61,
            "roleCurrent": "receiver",
            "marblesSampled": 100,
            "probRed": 0.5,
            "practiceLambda": 5,
            "trialLambda": 21.9,
            "instructedLambda": "dishonest_small",
            "drawnRed": 12,
            "reportedRed": 34,
            "inferredRed": 30,
            "playerTrialScore": -18,
            "oppTrialScore": 18,
            "playerTotalScore": -1085,
            "oppTotalScore": 1083,
            "waitTime": 5567.130548427361,
            "responseTime": 1680912292862,
            "catchQuestion": "How many <b class=\"r\">red<\/b> marbles did your opponent report drawing? ",
            "catchKey": -1,
            "catchResponse": -1,
            "catchTime": 1680912278546,
            "trialTime": 0
        },
        {
            "exptPart": "trial",
            "trialNumber": 62,
            "roleCurrent": "receiver",
            "marblesSampled": 100,
            "probRed": 0.5,
            "practiceLambda": 5,
            "trialLambda": 21.9,
            "instructedLambda": "dishonest_small",
            "drawnRed": 72,
            "reportedRed": 97,
            "inferredRed": 88,
            "playerTrialScore": -16,
            "oppTrialScore": 16,
            "playerTotalScore": -1101,
            "oppTotalScore": 1099,
            "waitTime": 5297.262615611086,
            "responseTime": 1680912302429,
            "catchQuestion": "How many <b class=\"r\">red<\/b> marbles did your opponent report drawing? ",
            "catchKey": -1,
            "catchResponse": -1,
            "catchTime": 1680912278546,
            "trialTime": 0
        },
        {
            "exptPart": "trial",
            "trialNumber": 63,
            "roleCurrent": "receiver",
            "marblesSampled": 100,
            "probRed": 0.5,
            "practiceLambda": 5,
            "trialLambda": 21.9,
            "instructedLambda": "dishonest_small",
            "drawnRed": 51,
            "reportedRed": 80,
            "inferredRed": 67,
            "playerTrialScore": -16,
            "oppTrialScore": 16,
            "playerTotalScore": -1117,
            "oppTotalScore": 1115,
            "waitTime": 5387.641179323869,
            "responseTime": 1680912312909,
            "catchQuestion": "How many <b class=\"r\">red<\/b> marbles did your opponent report drawing? ",
            "catchKey": -1,
            "catchResponse": -1,
            "catchTime": 1680912278546,
            "trialTime": 0
        },
        {
            "exptPart": "trial",
            "trialNumber": 64,
            "roleCurrent": "receiver",
            "marblesSampled": 100,
            "probRed": 0.5,
            "practiceLambda": 5,
            "trialLambda": 21.9,
            "instructedLambda": "dishonest_small",
            "drawnRed": 62,
            "reportedRed": 82,
            "inferredRed": 77,
            "playerTrialScore": -15,
            "oppTrialScore": 15,
            "playerTotalScore": -1132,
            "oppTotalScore": 1130,
            "waitTime": 7240.091095017643,
            "responseTime": 1680912323993,
            "catchQuestion": "How many <b class=\"r\">red<\/b> marbles did your opponent report drawing? ",
            "catchKey": -1,
            "catchResponse": -1,
            "catchTime": 1680912278546,
            "trialTime": 0
        },
        {
            "exptPart": "trial",
            "trialNumber": 65,
            "roleCurrent": "receiver",
            "marblesSampled": 100,
            "probRed": 0.5,
            "practiceLambda": 5,
            "trialLambda": 21.9,
            "instructedLambda": "dishonest_small",
            "drawnRed": 79,
            "reportedRed": 96,
            "inferredRed": 83,
            "playerTrialScore": -4,
            "oppTrialScore": 4,
            "playerTotalScore": -1136,
            "oppTotalScore": 1134,
            "waitTime": 6466.781743799761,
            "responseTime": 1680912338044,
            "catchQuestion": "How many <b class=\"r\">red<\/b> marbles did your opponent report drawing? ",
            "catchKey": -1,
            "catchResponse": -1,
            "catchTime": 1680912278546,
            "trialTime": 0
        },
        {
            "exptPart": "trial",
            "trialNumber": 66,
            "roleCurrent": "receiver",
            "marblesSampled": 100,
            "probRed": 0.5,
            "practiceLambda": 5,
            "trialLambda": 21.9,
            "instructedLambda": "dishonest_small",
            "drawnRed": 50,
            "reportedRed": 67,
            "inferredRed": 58,
            "playerTrialScore": -8,
            "oppTrialScore": 8,
            "playerTotalScore": -1144,
            "oppTotalScore": 1142,
            "waitTime": 6187.981476446603,
            "responseTime": 1680912350027,
            "catchQuestion": "How many <b class=\"r\">red<\/b> marbles did your opponent report drawing? ",
            "catchKey": -1,
            "catchResponse": -1,
            "catchTime": 1680912278546,
            "trialTime": 0
        },
        {
            "exptPart": "trial",
            "trialNumber": 67,
            "roleCurrent": "receiver",
            "marblesSampled": 100,
            "probRed": 0.5,
            "practiceLambda": 5,
            "trialLambda": 21.9,
            "instructedLambda": "dishonest_small",
            "drawnRed": 44,
            "reportedRed": 72,
            "inferredRed": 72,
            "playerTrialScore": -28,
            "oppTrialScore": 28,
            "playerTotalScore": -1172,
            "oppTotalScore": 1170,
            "waitTime": 6202.53290349644,
            "responseTime": 1680912359326,
            "catchQuestion": "How many <b class=\"r\">red<\/b> marbles did your opponent report drawing? ",
            "catchKey": -1,
            "catchResponse": -1,
            "catchTime": 1680912278546,
            "trialTime": 0
        },
        {
            "exptPart": "trial",
            "trialNumber": 68,
            "roleCurrent": "receiver",
            "marblesSampled": 100,
            "probRed": 0.5,
            "practiceLambda": 5,
            "trialLambda": 21.9,
            "instructedLambda": "dishonest_small",
            "drawnRed": 75,
            "reportedRed": 100,
            "inferredRed": 83,
            "playerTrialScore": -8,
            "oppTrialScore": 8,
            "playerTotalScore": -1180,
            "oppTotalScore": 1178,
            "waitTime": 5880.54635267144,
            "responseTime": 1680912371261,
            "catchQuestion": "How many <b class=\"r\">red<\/b> marbles did your opponent report drawing? ",
            "catchKey": -1,
            "catchResponse": -1,
            "catchTime": 1680912278546,
            "trialTime": 0
        },
        {
            "exptPart": "trial",
            "trialNumber": 69,
            "roleCurrent": "receiver",
            "marblesSampled": 100,
            "probRed": 0.5,
            "practiceLambda": 5,
            "trialLambda": 21.9,
            "instructedLambda": "dishonest_small",
            "drawnRed": 47,
            "reportedRed": 61,
            "inferredRed": 61,
            "playerTrialScore": -14,
            "oppTrialScore": 14,
            "playerTotalScore": -1194,
            "oppTotalScore": 1192,
            "waitTime": 6069.268244264964,
            "responseTime": 1680912379994,
            "catchQuestion": "How many <b class=\"r\">red<\/b> marbles did your opponent report drawing? ",
            "catchKey": -1,
            "catchResponse": -1,
            "catchTime": 1680912278546,
            "trialTime": 0
        },
        {
            "exptPart": "trial",
            "trialNumber": 70,
            "roleCurrent": "receiver",
            "marblesSampled": 100,
            "probRed": 0.5,
            "practiceLambda": 5,
            "trialLambda": 21.9,
            "instructedLambda": "dishonest_small",
            "drawnRed": 45,
            "reportedRed": 63,
            "inferredRed": 63,
            "playerTrialScore": -18,
            "oppTrialScore": 18,
            "playerTotalScore": -1212,
            "oppTotalScore": 1210,
            "waitTime": 5289.594347448705,
            "responseTime": 1680912388761,
            "catchQuestion": "How many <b class=\"r\">red<\/b> marbles did your opponent report drawing? ",
            "catchKey": 63,
            "catchResponse": 63,
            "catchTime": 1680912388761,
            "trialTime": 0
        },
        {
            "exptPart": "trial",
            "trialNumber": 71,
            "roleCurrent": "receiver",
            "marblesSampled": 100,
            "probRed": 0.5,
            "practiceLambda": 5,
            "trialLambda": 21.9,
            "instructedLambda": "dishonest_small",
            "drawnRed": 38,
            "reportedRed": 59,
            "inferredRed": 53,
            "playerTrialScore": -15,
            "oppTrialScore": 15,
            "playerTotalScore": -1227,
            "oppTotalScore": 1225,
            "waitTime": 5147.728984317642,
            "responseTime": 1680912404511,
            "catchQuestion": "How many <b class=\"r\">red<\/b> marbles did your opponent report drawing? ",
            "catchKey": -1,
            "catchResponse": -1,
            "catchTime": 1680912388761,
            "trialTime": 0
        },
        {
            "exptPart": "trial",
            "trialNumber": 72,
            "roleCurrent": "receiver",
            "marblesSampled": 100,
            "probRed": 0.5,
            "practiceLambda": 5,
            "trialLambda": 21.9,
            "instructedLambda": "dishonest_small",
            "drawnRed": 18,
            "reportedRed": 36,
            "inferredRed": 30,
            "playerTrialScore": -12,
            "oppTrialScore": 12,
            "playerTotalScore": -1239,
            "oppTotalScore": 1237,
            "waitTime": 6566.492561472539,
            "responseTime": 1680912417777,
            "catchQuestion": "How many <b class=\"r\">red<\/b> marbles did your opponent report drawing? ",
            "catchKey": -1,
            "catchResponse": -1,
            "catchTime": 1680912388761,
            "trialTime": 0
        },
        {
            "exptPart": "trial",
            "trialNumber": 73,
            "roleCurrent": "receiver",
            "marblesSampled": 100,
            "probRed": 0.5,
            "practiceLambda": 5,
            "trialLambda": 21.9,
            "instructedLambda": "dishonest_small",
            "drawnRed": 47,
            "reportedRed": 67,
            "inferredRed": 60,
            "playerTrialScore": -13,
            "oppTrialScore": 13,
            "playerTotalScore": -1252,
            "oppTotalScore": 1250,
            "waitTime": 5315.201450895282,
            "responseTime": 1680912427444,
            "catchQuestion": "How many <b class=\"r\">red<\/b> marbles did your opponent report drawing? ",
            "catchKey": -1,
            "catchResponse": -1,
            "catchTime": 1680912388761,
            "trialTime": 0
        },
        {
            "exptPart": "trial",
            "trialNumber": 74,
            "roleCurrent": "receiver",
            "marblesSampled": 100,
            "probRed": 0.5,
            "practiceLambda": 5,
            "trialLambda": 21.9,
            "instructedLambda": "dishonest_small",
            "drawnRed": 29,
            "reportedRed": 51,
            "inferredRed": 44,
            "playerTrialScore": -15,
            "oppTrialScore": 15,
            "playerTotalScore": -1267,
            "oppTotalScore": 1265,
            "waitTime": 5712.792266803336,
            "responseTime": 1680912437711,
            "catchQuestion": "How many <b class=\"r\">red<\/b> marbles did your opponent report drawing? ",
            "catchKey": -1,
            "catchResponse": -1,
            "catchTime": 1680912388761,
            "trialTime": 0
        },
        {
            "exptPart": "trial",
            "trialNumber": 75,
            "roleCurrent": "receiver",
            "marblesSampled": 100,
            "probRed": 0.5,
            "practiceLambda": 5,
            "trialLambda": 21.9,
            "instructedLambda": "dishonest_small",
            "drawnRed": 16,
            "reportedRed": 35,
            "inferredRed": 30,
            "playerTrialScore": -14,
            "oppTrialScore": 14,
            "playerTotalScore": -1281,
            "oppTotalScore": 1279,
            "waitTime": 7110.64462108686,
            "responseTime": 1680912449778,
            "catchQuestion": "How many <b class=\"r\">red<\/b> marbles did your opponent report drawing? ",
            "catchKey": -1,
            "catchResponse": -1,
            "catchTime": 1680912388761,
            "trialTime": 0
        },
        {
            "exptPart": "trial",
            "trialNumber": 76,
            "roleCurrent": "receiver",
            "marblesSampled": 100,
            "probRed": 0.5,
            "practiceLambda": 5,
            "trialLambda": 21.9,
            "instructedLambda": "dishonest_small",
            "drawnRed": 52,
            "reportedRed": 72,
            "inferredRed": 73,
            "playerTrialScore": -21,
            "oppTrialScore": 21,
            "playerTotalScore": -1302,
            "oppTotalScore": 1300,
            "waitTime": 5891.083513726908,
            "responseTime": 1680912460028,
            "catchQuestion": "How many <b class=\"r\">red<\/b> marbles did your opponent report drawing? ",
            "catchKey": 72,
            "catchResponse": 72,
            "catchTime": 1680912460028,
            "trialTime": 0
        },
        {
            "exptPart": "trial",
            "trialNumber": 77,
            "roleCurrent": "receiver",
            "marblesSampled": 100,
            "probRed": 0.5,
            "practiceLambda": 5,
            "trialLambda": 21.9,
            "instructedLambda": "dishonest_small",
            "drawnRed": 38,
            "reportedRed": 52,
            "inferredRed": 47,
            "playerTrialScore": -9,
            "oppTrialScore": 9,
            "playerTotalScore": -1311,
            "oppTotalScore": 1309,
            "waitTime": 5170.593623829549,
            "responseTime": 1680912476578,
            "catchQuestion": "How many <b class=\"r\">red<\/b> marbles did your opponent report drawing? ",
            "catchKey": -1,
            "catchResponse": -1,
            "catchTime": 1680912460028,
            "trialTime": 0
        },
        {
            "exptPart": "trial",
            "trialNumber": 78,
            "roleCurrent": "receiver",
            "marblesSampled": 100,
            "probRed": 0.5,
            "practiceLambda": 5,
            "trialLambda": 21.9,
            "instructedLambda": "dishonest_small",
            "drawnRed": 88,
            "reportedRed": 100,
            "inferredRed": 100,
            "playerTrialScore": -12,
            "oppTrialScore": 12,
            "playerTotalScore": -1323,
            "oppTotalScore": 1321,
            "waitTime": 5555.876327280732,
            "responseTime": 1680912485828,
            "catchQuestion": "How many <b class=\"r\">red<\/b> marbles did your opponent report drawing? ",
            "catchKey": 100,
            "catchResponse": 100,
            "catchTime": 1680912485828,
            "trialTime": 0
        },
        {
            "exptPart": "trial",
            "trialNumber": 79,
            "roleCurrent": "receiver",
            "marblesSampled": 100,
            "probRed": 0.5,
            "practiceLambda": 5,
            "trialLambda": 21.9,
            "instructedLambda": "dishonest_small",
            "drawnRed": 28,
            "reportedRed": 62,
            "inferredRed": 62,
            "playerTrialScore": -34,
            "oppTrialScore": 34,
            "playerTotalScore": -1357,
            "oppTotalScore": 1355,
            "waitTime": 7305.80241126792,
            "responseTime": 1680912500780,
            "catchQuestion": "How many <b class=\"r\">red<\/b> marbles did your opponent report drawing? ",
            "catchKey": 62,
            "catchResponse": 62,
            "catchTime": 1680912500780,
            "trialTime": 0
        },
        {
            "exptPart": "trial",
            "trialNumber": 80,
            "roleCurrent": "receiver",
            "marblesSampled": 100,
            "probRed": 0.5,
            "practiceLambda": 5,
            "trialLambda": 21.9,
            "instructedLambda": "dishonest_small",
            "drawnRed": 44,
            "reportedRed": 65,
            "inferredRed": 55,
            "playerTrialScore": -11,
            "oppTrialScore": 11,
            "playerTotalScore": -1368,
            "oppTotalScore": 1366,
            "waitTime": 5265.611194645105,
            "responseTime": 1680912514513,
            "catchQuestion": "How many <b class=\"r\">red<\/b> marbles did your opponent report drawing? ",
            "catchKey": -1,
            "catchResponse": -1,
            "catchTime": 1680912514513,
            "trialTime": 0
        },
        {
            "exptPart": "trial",
            "trialNumber": 81,
            "roleCurrent": "receiver",
            "marblesSampled": 100,
            "probRed": 0.5,
            "practiceLambda": 5,
            "trialLambda": 21.9,
            "instructedLambda": "dishonest_small",
            "drawnRed": 70,
            "reportedRed": 99,
            "inferredRed": 88,
            "playerTrialScore": -18,
            "oppTrialScore": 18,
            "playerTotalScore": -1386,
            "oppTotalScore": 1384,
            "waitTime": 5774.235334690449,
            "responseTime": 1680912526480,
            "catchQuestion": "How many <b class=\"r\">red<\/b> marbles did your opponent report drawing? ",
            "catchKey": -1,
            "catchResponse": -1,
            "catchTime": 1680912514513,
            "trialTime": 0
        },
        {
            "exptPart": "trial",
            "trialNumber": 82,
            "roleCurrent": "receiver",
            "marblesSampled": 100,
            "probRed": 0.5,
            "practiceLambda": 5,
            "trialLambda": 21.9,
            "instructedLambda": "dishonest_small",
            "drawnRed": 49,
            "reportedRed": 73,
            "inferredRed": 73,
            "playerTrialScore": -24,
            "oppTrialScore": 24,
            "playerTotalScore": -1410,
            "oppTotalScore": 1408,
            "waitTime": 6806.6215110754865,
            "responseTime": 1680912540380,
            "catchQuestion": "How many <b class=\"r\">red<\/b> marbles did your opponent report drawing? ",
            "catchKey": -1,
            "catchResponse": -1,
            "catchTime": 1680912514513,
            "trialTime": 0
        },
        {
            "exptPart": "trial",
            "trialNumber": 83,
            "roleCurrent": "receiver",
            "marblesSampled": 100,
            "probRed": 0.5,
            "practiceLambda": 5,
            "trialLambda": 21.9,
            "instructedLambda": "dishonest_small",
            "drawnRed": 82,
            "reportedRed": 100,
            "inferredRed": 94,
            "playerTrialScore": -12,
            "oppTrialScore": 12,
            "playerTotalScore": -1422,
            "oppTotalScore": 1420,
            "waitTime": 6213.219148383736,
            "responseTime": 1680912551397,
            "catchQuestion": "How many <b class=\"r\">red<\/b> marbles did your opponent report drawing? ",
            "catchKey": -1,
            "catchResponse": -1,
            "catchTime": 1680912514513,
            "trialTime": 0
        },
        {
            "exptPart": "trial",
            "trialNumber": 84,
            "roleCurrent": "receiver",
            "marblesSampled": 100,
            "probRed": 0.5,
            "practiceLambda": 5,
            "trialLambda": 21.9,
            "instructedLambda": "dishonest_small",
            "drawnRed": 25,
            "reportedRed": 55,
            "inferredRed": 50,
            "playerTrialScore": -25,
            "oppTrialScore": 25,
            "playerTotalScore": -1447,
            "oppTotalScore": 1445,
            "waitTime": 5758.718496795998,
            "responseTime": 1680912562271,
            "catchQuestion": "How many <b class=\"r\">red<\/b> marbles did your opponent report drawing? ",
            "catchKey": -1,
            "catchResponse": -1,
            "catchTime": 1680912514513,
            "trialTime": 0
        },
        {
            "exptPart": "trial",
            "trialNumber": 85,
            "roleCurrent": "receiver",
            "marblesSampled": 100,
            "probRed": 0.5,
            "practiceLambda": 5,
            "trialLambda": 21.9,
            "instructedLambda": "dishonest_small",
            "drawnRed": 50,
            "reportedRed": 68,
            "inferredRed": 63,
            "playerTrialScore": -13,
            "oppTrialScore": 13,
            "playerTotalScore": -1460,
            "oppTotalScore": 1458,
            "waitTime": 5181.720357105322,
            "responseTime": 1680912572963,
            "catchQuestion": "How many <b class=\"r\">red<\/b> marbles did your opponent report drawing? ",
            "catchKey": 68,
            "catchResponse": 68,
            "catchTime": 1680912572963,
            "trialTime": 0
        },
        {
            "exptPart": "trial",
            "trialNumber": 86,
            "roleCurrent": "receiver",
            "marblesSampled": 100,
            "probRed": 0.5,
            "practiceLambda": 5,
            "trialLambda": 21.9,
            "instructedLambda": "dishonest_small",
            "drawnRed": 53,
            "reportedRed": 74,
            "inferredRed": 68,
            "playerTrialScore": -15,
            "oppTrialScore": 15,
            "playerTotalScore": -1475,
            "oppTotalScore": 1473,
            "waitTime": 6228.582439338014,
            "responseTime": 1680912595946,
            "catchQuestion": "How many <b class=\"r\">red<\/b> marbles did your opponent report drawing? ",
            "catchKey": -1,
            "catchResponse": -1,
            "catchTime": 1680912572963,
            "trialTime": 0
        },
        {
            "exptPart": "trial",
            "trialNumber": 87,
            "roleCurrent": "receiver",
            "marblesSampled": 100,
            "probRed": 0.5,
            "practiceLambda": 5,
            "trialLambda": 21.9,
            "instructedLambda": "dishonest_small",
            "drawnRed": 32,
            "reportedRed": 54,
            "inferredRed": 54,
            "playerTrialScore": -22,
            "oppTrialScore": 22,
            "playerTotalScore": -1497,
            "oppTotalScore": 1495,
            "waitTime": 6156.140782520648,
            "responseTime": 1680912605414,
            "catchQuestion": "How many <b class=\"r\">red<\/b> marbles did your opponent report drawing? ",
            "catchKey": -1,
            "catchResponse": -1,
            "catchTime": 1680912572963,
            "trialTime": 0
        },
        {
            "exptPart": "trial",
            "trialNumber": 88,
            "roleCurrent": "receiver",
            "marblesSampled": 100,
            "probRed": 0.5,
            "practiceLambda": 5,
            "trialLambda": 21.9,
            "instructedLambda": "dishonest_small",
            "drawnRed": 32,
            "reportedRed": 57,
            "inferredRed": 49,
            "playerTrialScore": -17,
            "oppTrialScore": 17,
            "playerTotalScore": -1514,
            "oppTotalScore": 1512,
            "waitTime": 6932.644561023946,
            "responseTime": 1680912616582,
            "catchQuestion": "How many <b class=\"r\">red<\/b> marbles did your opponent report drawing? ",
            "catchKey": -1,
            "catchResponse": -1,
            "catchTime": 1680912572963,
            "trialTime": 0
        },
        {
            "exptPart": "trial",
            "trialNumber": 89,
            "roleCurrent": "receiver",
            "marblesSampled": 100,
            "probRed": 0.5,
            "practiceLambda": 5,
            "trialLambda": 21.9,
            "instructedLambda": "dishonest_small",
            "drawnRed": 45,
            "reportedRed": 66,
            "inferredRed": 66,
            "playerTrialScore": -21,
            "oppTrialScore": 21,
            "playerTotalScore": -1535,
            "oppTotalScore": 1533,
            "waitTime": 6314.673429865577,
            "responseTime": 1680912626564,
            "catchQuestion": "How many <b class=\"r\">red<\/b> marbles did your opponent report drawing? ",
            "catchKey": -1,
            "catchResponse": -1,
            "catchTime": 1680912572963,
            "trialTime": 0
        },
        {
            "exptPart": "trial",
            "trialNumber": 90,
            "roleCurrent": "receiver",
            "marblesSampled": 100,
            "probRed": 0.5,
            "practiceLambda": 5,
            "trialLambda": 21.9,
            "instructedLambda": "dishonest_small",
            "drawnRed": 70,
            "reportedRed": 95,
            "inferredRed": 88,
            "playerTrialScore": -18,
            "oppTrialScore": 18,
            "playerTotalScore": -1553,
            "oppTotalScore": 1551,
            "waitTime": 6358.734561736966,
            "responseTime": 1680912639447,
            "catchQuestion": "How many <b class=\"r\">red<\/b> marbles did your opponent report drawing? ",
            "catchKey": -1,
            "catchResponse": -1,
            "catchTime": 1680912639447,
            "trialTime": 0
        },
        {
            "exptPart": "trial",
            "trialNumber": 91,
            "roleCurrent": "receiver",
            "marblesSampled": 100,
            "probRed": 0.5,
            "practiceLambda": 5,
            "trialLambda": 21.9,
            "instructedLambda": "dishonest_small",
            "drawnRed": 72,
            "reportedRed": 100,
            "inferredRed": 88,
            "playerTrialScore": -16,
            "oppTrialScore": 16,
            "playerTotalScore": -1569,
            "oppTotalScore": 1567,
            "waitTime": 5596.814994036444,
            "responseTime": 1680912655347,
            "catchQuestion": "How many <b class=\"r\">red<\/b> marbles did your opponent report drawing? ",
            "catchKey": -1,
            "catchResponse": -1,
            "catchTime": 1680912639447,
            "trialTime": 0
        },
        {
            "exptPart": "trial",
            "trialNumber": 92,
            "roleCurrent": "receiver",
            "marblesSampled": 100,
            "probRed": 0.5,
            "practiceLambda": 5,
            "trialLambda": 21.9,
            "instructedLambda": "dishonest_small",
            "drawnRed": 80,
            "reportedRed": 97,
            "inferredRed": 92,
            "playerTrialScore": -12,
            "oppTrialScore": 12,
            "playerTotalScore": -1581,
            "oppTotalScore": 1579,
            "waitTime": 5283.445125640586,
            "responseTime": 1680912665483,
            "catchQuestion": "How many <b class=\"r\">red<\/b> marbles did your opponent report drawing? ",
            "catchKey": 97,
            "catchResponse": 97,
            "catchTime": 1680912665483,
            "trialTime": 0
        },
        {
            "exptPart": "trial",
            "trialNumber": 93,
            "roleCurrent": "receiver",
            "marblesSampled": 100,
            "probRed": 0.5,
            "practiceLambda": 5,
            "trialLambda": 21.9,
            "instructedLambda": "dishonest_small",
            "drawnRed": 84,
            "reportedRed": 100,
            "inferredRed": 93,
            "playerTrialScore": -9,
            "oppTrialScore": 9,
            "playerTotalScore": -1590,
            "oppTotalScore": 1588,
            "waitTime": 5937.9403866722005,
            "responseTime": 1680912680116,
            "catchQuestion": "How many <b class=\"r\">red<\/b> marbles did your opponent report drawing? ",
            "catchKey": 100,
            "catchResponse": 100,
            "catchTime": 1680912680116,
            "trialTime": 0
        },
        {
            "exptPart": "trial",
            "trialNumber": 94,
            "roleCurrent": "receiver",
            "marblesSampled": 100,
            "probRed": 0.5,
            "practiceLambda": 5,
            "trialLambda": 21.9,
            "instructedLambda": "dishonest_small",
            "drawnRed": 80,
            "reportedRed": 96,
            "inferredRed": 96,
            "playerTrialScore": -16,
            "oppTrialScore": 16,
            "playerTotalScore": -1606,
            "oppTotalScore": 1604,
            "waitTime": 5238.29667128879,
            "responseTime": 1680912702966,
            "catchQuestion": "How many <b class=\"r\">red<\/b> marbles did your opponent report drawing? ",
            "catchKey": -1,
            "catchResponse": -1,
            "catchTime": 1680912680116,
            "trialTime": 0
        },
        {
            "exptPart": "trial",
            "trialNumber": 95,
            "roleCurrent": "receiver",
            "marblesSampled": 100,
            "probRed": 0.5,
            "practiceLambda": 5,
            "trialLambda": 21.9,
            "instructedLambda": "dishonest_small",
            "drawnRed": 78,
            "reportedRed": 100,
            "inferredRed": 100,
            "playerTrialScore": -22,
            "oppTrialScore": 22,
            "playerTotalScore": -1628,
            "oppTotalScore": 1626,
            "waitTime": 5911.442439957839,
            "responseTime": 1680912711634,
            "catchQuestion": "How many <b class=\"r\">red<\/b> marbles did your opponent report drawing? ",
            "catchKey": -1,
            "catchResponse": -1,
            "catchTime": 1680912680116,
            "trialTime": 0
        },
        {
            "exptPart": "trial",
            "trialNumber": 96,
            "roleCurrent": "receiver",
            "marblesSampled": 100,
            "probRed": 0.5,
            "practiceLambda": 5,
            "trialLambda": 21.9,
            "instructedLambda": "dishonest_small",
            "drawnRed": 52,
            "reportedRed": 63,
            "inferredRed": 63,
            "playerTrialScore": -11,
            "oppTrialScore": 11,
            "playerTotalScore": -1639,
            "oppTotalScore": 1637,
            "waitTime": 7121.768710394755,
            "responseTime": 1680912723417,
            "catchQuestion": "How many <b class=\"r\">red<\/b> marbles did your opponent report drawing? ",
            "catchKey": -1,
            "catchResponse": -1,
            "catchTime": 1680912680116,
            "trialTime": 0
        },
        {
            "exptPart": "trial",
            "trialNumber": 97,
            "roleCurrent": "receiver",
            "marblesSampled": 100,
            "probRed": 0.5,
            "practiceLambda": 5,
            "trialLambda": 21.9,
            "instructedLambda": "dishonest_small",
            "drawnRed": 69,
            "reportedRed": 91,
            "inferredRed": 91,
            "playerTrialScore": -22,
            "oppTrialScore": 22,
            "playerTotalScore": -1661,
            "oppTotalScore": 1659,
            "waitTime": 6481.848016015172,
            "responseTime": 1680912733415,
            "catchQuestion": "How many <b class=\"r\">red<\/b> marbles did your opponent report drawing? ",
            "catchKey": -1,
            "catchResponse": -1,
            "catchTime": 1680912680116,
            "trialTime": 0
        },
        {
            "exptPart": "trial",
            "trialNumber": 98,
            "roleCurrent": "receiver",
            "marblesSampled": 100,
            "probRed": 0.5,
            "practiceLambda": 5,
            "trialLambda": 21.9,
            "instructedLambda": "dishonest_small",
            "drawnRed": 70,
            "reportedRed": 89,
            "inferredRed": 89,
            "playerTrialScore": -19,
            "oppTrialScore": 19,
            "playerTotalScore": -1680,
            "oppTotalScore": 1678,
            "waitTime": 5516.773779939123,
            "responseTime": 1680912741450,
            "catchQuestion": "How many <b class=\"r\">red<\/b> marbles did your opponent report drawing? ",
            "catchKey": -1,
            "catchResponse": -1,
            "catchTime": 1680912680116,
            "trialTime": 0
        },
        {
            "exptPart": "trial",
            "trialNumber": 99,
            "roleCurrent": "receiver",
            "marblesSampled": 100,
            "probRed": 0.5,
            "practiceLambda": 5,
            "trialLambda": 21.9,
            "instructedLambda": "dishonest_small",
            "drawnRed": 32,
            "reportedRed": 55,
            "inferredRed": 55,
            "playerTrialScore": -23,
            "oppTrialScore": 23,
            "playerTotalScore": -1703,
            "oppTotalScore": 1701,
            "waitTime": 5431.182649609644,
            "responseTime": 1680912750017,
            "catchQuestion": "How many <b class=\"r\">red<\/b> marbles did your opponent report drawing? ",
            "catchKey": -1,
            "catchResponse": -1,
            "catchTime": 1680912680116,
            "trialTime": 0
        },
        {
            "exptPart": "trial",
            "trialNumber": 100,
            "roleCurrent": "receiver",
            "marblesSampled": 100,
            "probRed": 0.5,
            "practiceLambda": 5,
            "trialLambda": 21.9,
            "instructedLambda": "dishonest_small",
            "drawnRed": 59,
            "reportedRed": 86,
            "inferredRed": 86,
            "playerTrialScore": -27,
            "oppTrialScore": 27,
            "playerTotalScore": -1730,
            "oppTotalScore": 1728,
            "waitTime": 5366.815625146914,
            "responseTime": 1680912758249,
            "catchQuestion": "How many <b class=\"r\">red<\/b> marbles did your opponent report drawing? ",
            "catchKey": -1,
            "catchResponse": -1,
            "catchTime": 1680912758249,
            "trialTime": 0
        }
    ]
}