{
    "client": {
        "type": "sona",
        "experiment_id": 2228,
        "credit_token": "b315147ae43241ea9c65086cb510cfb7",
        "survey_code": "37316",
        "sid": "sona-37316",
        "window": {
            "width": 1440,
            "height": 654
        },
        "screen": {
            "width": 1440,
            "height": 900
        },
        "userAgent": "Mozilla\/5.0 (Macintosh; Intel Mac OS X 10_15_7) AppleWebKit\/537.36 (KHTML, like Gecko) Chrome\/110.0.0.0 Safari\/537.36",
        "score": 0,
        "bonus": 0
    },
    "expt": {
        "saveURL": "submit.simple.php",
        "trials": 100,
        "practiceTrials": 2,
        "marblesSampled": 100,
        "probRed": 0.5,
        "practiceLambdaAI": 5,
        "lambdaAI": 8.1,
        "roles": [
            "sender",
            "receiver"
        ],
        "cost": "unif",
        "goal": "over",
        "oppDishonesty": "dishonest_big",
        "catchTrials": [
            40,
            32,
            51,
            86,
            70,
            99,
            12,
            19,
            97,
            87
        ],
        "scoreTotal": {
            "player": -1924,
            "opp": 1295
        },
        "sona": {
            "experiment_id": 2228,
            "credit_token": "b315147ae43241ea9c65086cb510cfb7"
        },
        "pilot": false,
        "debug": false
    },
    "trials": [
        {
            "exptPart": "practice",
            "trialNumber": 1,
            "roleCurrent": "sender",
            "marblesSampled": 100,
            "probRed": 0.5,
            "practiceLambda": 5,
            "trialLambda": 8.1,
            "instructedLambda": "dishonest_big",
            "drawnRed": 37,
            "reportedRed": 37,
            "inferredRed": 32,
            "playerTrialScore": 0,
            "oppTrialScore": -5,
            "playerTotalScore": 0,
            "oppTotalScore": -5,
            "waitTime": 2582.805863810367,
            "responseTime": 1681164749164,
            "catchQuestion": "How many <b class=\"r\">red<\/b> marbles did you actually draw (before any changes)? ",
            "catchKey": 37,
            "catchResponse": 37,
            "catchTime": 1681164749164,
            "trialTime": 0
        },
        {
            "exptPart": "practice",
            "trialNumber": 2,
            "roleCurrent": "receiver",
            "marblesSampled": 100,
            "probRed": 0.5,
            "practiceLambda": 5,
            "trialLambda": 8.1,
            "instructedLambda": "dishonest_big",
            "drawnRed": 49,
            "reportedRed": 51,
            "inferredRed": 55,
            "playerTrialScore": -6,
            "oppTrialScore": 6,
            "playerTotalScore": -6,
            "oppTotalScore": 1,
            "waitTime": 5189.352673532116,
            "responseTime": 1681164782022,
            "catchQuestion": "How many <b class=\"r\">red<\/b> marbles did your opponent report drawing? ",
            "catchKey": 51,
            "catchResponse": 51,
            "catchTime": 1681164782022,
            "trialTime": 0
        },
        {
            "exptPart": "trial",
            "trialNumber": 1,
            "roleCurrent": "receiver",
            "marblesSampled": 100,
            "probRed": 0.5,
            "practiceLambda": 5,
            "trialLambda": 8.1,
            "instructedLambda": "dishonest_big",
            "drawnRed": 64,
            "reportedRed": 67,
            "inferredRed": 61,
            "playerTrialScore": -3,
            "oppTrialScore": 0,
            "playerTotalScore": -3,
            "oppTotalScore": 0,
            "waitTime": 5210.302117939616,
            "responseTime": 1681164805999,
            "catchQuestion": "How many <b class=\"r\">red<\/b> marbles did your opponent report drawing? ",
            "catchKey": -1,
            "catchResponse": -1,
            "catchTime": 1681164782022,
            "trialTime": 0
        },
        {
            "exptPart": "trial",
            "trialNumber": 2,
            "roleCurrent": "receiver",
            "marblesSampled": 100,
            "probRed": 0.5,
            "practiceLambda": 5,
            "trialLambda": 8.1,
            "instructedLambda": "dishonest_big",
            "drawnRed": 12,
            "reportedRed": 22,
            "inferredRed": 16,
            "playerTrialScore": -4,
            "oppTrialScore": 4,
            "playerTotalScore": -7,
            "oppTotalScore": 4,
            "waitTime": 7100.719534398229,
            "responseTime": 1681164818865,
            "catchQuestion": "How many <b class=\"r\">red<\/b> marbles did your opponent report drawing? ",
            "catchKey": -1,
            "catchResponse": -1,
            "catchTime": 1681164782022,
            "trialTime": 0
        },
        {
            "exptPart": "trial",
            "trialNumber": 3,
            "roleCurrent": "receiver",
            "marblesSampled": 100,
            "probRed": 0.5,
            "practiceLambda": 5,
            "trialLambda": 8.1,
            "instructedLambda": "dishonest_big",
            "drawnRed": 56,
            "reportedRed": 59,
            "inferredRed": 58,
            "playerTrialScore": -2,
            "oppTrialScore": 2,
            "playerTotalScore": -9,
            "oppTotalScore": 6,
            "waitTime": 6150.909344642161,
            "responseTime": 1681164829631,
            "catchQuestion": "How many <b class=\"r\">red<\/b> marbles did your opponent report drawing? ",
            "catchKey": -1,
            "catchResponse": -1,
            "catchTime": 1681164782022,
            "trialTime": 0
        },
        {
            "exptPart": "trial",
            "trialNumber": 4,
            "roleCurrent": "receiver",
            "marblesSampled": 100,
            "probRed": 0.5,
            "practiceLambda": 5,
            "trialLambda": 8.1,
            "instructedLambda": "dishonest_big",
            "drawnRed": 73,
            "reportedRed": 85,
            "inferredRed": 90,
            "playerTrialScore": -17,
            "oppTrialScore": 17,
            "playerTotalScore": -26,
            "oppTotalScore": 23,
            "waitTime": 5226.169417448282,
            "responseTime": 1681164843041,
            "catchQuestion": "How many <b class=\"r\">red<\/b> marbles did your opponent report drawing? ",
            "catchKey": -1,
            "catchResponse": -1,
            "catchTime": 1681164782022,
            "trialTime": 0
        },
        {
            "exptPart": "trial",
            "trialNumber": 5,
            "roleCurrent": "receiver",
            "marblesSampled": 100,
            "probRed": 0.5,
            "practiceLambda": 5,
            "trialLambda": 8.1,
            "instructedLambda": "dishonest_big",
            "drawnRed": 62,
            "reportedRed": 74,
            "inferredRed": 73,
            "playerTrialScore": -11,
            "oppTrialScore": 11,
            "playerTotalScore": -37,
            "oppTotalScore": 34,
            "waitTime": 5607.404931505924,
            "responseTime": 1681164852498,
            "catchQuestion": "How many <b class=\"r\">red<\/b> marbles did your opponent report drawing? ",
            "catchKey": -1,
            "catchResponse": -1,
            "catchTime": 1681164782022,
            "trialTime": 0
        },
        {
            "exptPart": "trial",
            "trialNumber": 6,
            "roleCurrent": "receiver",
            "marblesSampled": 100,
            "probRed": 0.5,
            "practiceLambda": 5,
            "trialLambda": 8.1,
            "instructedLambda": "dishonest_big",
            "drawnRed": 69,
            "reportedRed": 77,
            "inferredRed": 77,
            "playerTrialScore": -8,
            "oppTrialScore": 8,
            "playerTotalScore": -45,
            "oppTotalScore": 42,
            "waitTime": 7044.142983255764,
            "responseTime": 1681164862213,
            "catchQuestion": "How many <b class=\"r\">red<\/b> marbles did your opponent report drawing? ",
            "catchKey": -1,
            "catchResponse": -1,
            "catchTime": 1681164782022,
            "trialTime": 0
        },
        {
            "exptPart": "trial",
            "trialNumber": 7,
            "roleCurrent": "receiver",
            "marblesSampled": 100,
            "probRed": 0.5,
            "practiceLambda": 5,
            "trialLambda": 8.1,
            "instructedLambda": "dishonest_big",
            "drawnRed": 75,
            "reportedRed": 86,
            "inferredRed": 86,
            "playerTrialScore": -11,
            "oppTrialScore": 11,
            "playerTotalScore": -56,
            "oppTotalScore": 53,
            "waitTime": 6828.023305467752,
            "responseTime": 1681164872182,
            "catchQuestion": "How many <b class=\"r\">red<\/b> marbles did your opponent report drawing? ",
            "catchKey": -1,
            "catchResponse": -1,
            "catchTime": 1681164782022,
            "trialTime": 0
        },
        {
            "exptPart": "trial",
            "trialNumber": 8,
            "roleCurrent": "receiver",
            "marblesSampled": 100,
            "probRed": 0.5,
            "practiceLambda": 5,
            "trialLambda": 8.1,
            "instructedLambda": "dishonest_big",
            "drawnRed": 81,
            "reportedRed": 91,
            "inferredRed": 90,
            "playerTrialScore": -9,
            "oppTrialScore": 9,
            "playerTotalScore": -65,
            "oppTotalScore": 62,
            "waitTime": 5747.773552651346,
            "responseTime": 1681164890908,
            "catchQuestion": "How many <b class=\"r\">red<\/b> marbles did your opponent report drawing? ",
            "catchKey": -1,
            "catchResponse": -1,
            "catchTime": 1681164782022,
            "trialTime": 0
        },
        {
            "exptPart": "trial",
            "trialNumber": 9,
            "roleCurrent": "receiver",
            "marblesSampled": 100,
            "probRed": 0.5,
            "practiceLambda": 5,
            "trialLambda": 8.1,
            "instructedLambda": "dishonest_big",
            "drawnRed": 88,
            "reportedRed": 100,
            "inferredRed": 99,
            "playerTrialScore": -11,
            "oppTrialScore": 11,
            "playerTotalScore": -76,
            "oppTotalScore": 73,
            "waitTime": 6604.377314277842,
            "responseTime": 1681164901518,
            "catchQuestion": "How many <b class=\"r\">red<\/b> marbles did your opponent report drawing? ",
            "catchKey": -1,
            "catchResponse": -1,
            "catchTime": 1681164782022,
            "trialTime": 0
        },
        {
            "exptPart": "trial",
            "trialNumber": 10,
            "roleCurrent": "receiver",
            "marblesSampled": 100,
            "probRed": 0.5,
            "practiceLambda": 5,
            "trialLambda": 8.1,
            "instructedLambda": "dishonest_big",
            "drawnRed": 22,
            "reportedRed": 26,
            "inferredRed": 27,
            "playerTrialScore": -5,
            "oppTrialScore": 5,
            "playerTotalScore": -81,
            "oppTotalScore": 78,
            "waitTime": 5966.313064326092,
            "responseTime": 1681164912666,
            "catchQuestion": "How many <b class=\"r\">red<\/b> marbles did your opponent report drawing? ",
            "catchKey": -1,
            "catchResponse": -1,
            "catchTime": 1681164912666,
            "trialTime": 0
        },
        {
            "exptPart": "trial",
            "trialNumber": 11,
            "roleCurrent": "receiver",
            "marblesSampled": 100,
            "probRed": 0.5,
            "practiceLambda": 5,
            "trialLambda": 8.1,
            "instructedLambda": "dishonest_big",
            "drawnRed": 24,
            "reportedRed": 33,
            "inferredRed": 40,
            "playerTrialScore": -16,
            "oppTrialScore": 16,
            "playerTotalScore": -97,
            "oppTotalScore": 94,
            "waitTime": 7334.517574116387,
            "responseTime": 1681164941630,
            "catchQuestion": "How many <b class=\"r\">red<\/b> marbles did your opponent report drawing? ",
            "catchKey": -1,
            "catchResponse": -1,
            "catchTime": 1681164912666,
            "trialTime": 0
        },
        {
            "exptPart": "trial",
            "trialNumber": 12,
            "roleCurrent": "receiver",
            "marblesSampled": 100,
            "probRed": 0.5,
            "practiceLambda": 5,
            "trialLambda": 8.1,
            "instructedLambda": "dishonest_big",
            "drawnRed": 35,
            "reportedRed": 44,
            "inferredRed": 50,
            "playerTrialScore": -15,
            "oppTrialScore": 15,
            "playerTotalScore": -112,
            "oppTotalScore": 109,
            "waitTime": 6884.830999896782,
            "responseTime": 1681164950705,
            "catchQuestion": "How many <b class=\"r\">red<\/b> marbles did your opponent report drawing? ",
            "catchKey": -1,
            "catchResponse": -1,
            "catchTime": 1681164912666,
            "trialTime": 0
        },
        {
            "exptPart": "trial",
            "trialNumber": 13,
            "roleCurrent": "receiver",
            "marblesSampled": 100,
            "probRed": 0.5,
            "practiceLambda": 5,
            "trialLambda": 8.1,
            "instructedLambda": "dishonest_big",
            "drawnRed": 73,
            "reportedRed": 78,
            "inferredRed": 83,
            "playerTrialScore": -10,
            "oppTrialScore": 10,
            "playerTotalScore": -122,
            "oppTotalScore": 119,
            "waitTime": 6877.8518027871305,
            "responseTime": 1681164960573,
            "catchQuestion": "How many <b class=\"r\">red<\/b> marbles did your opponent report drawing? ",
            "catchKey": 78,
            "catchResponse": 83,
            "catchTime": 1681164960573,
            "trialTime": 0
        },
        {
            "exptPart": "trial",
            "trialNumber": 14,
            "roleCurrent": "receiver",
            "marblesSampled": 100,
            "probRed": 0.5,
            "practiceLambda": 5,
            "trialLambda": 8.1,
            "instructedLambda": "dishonest_big",
            "drawnRed": 36,
            "reportedRed": 45,
            "inferredRed": 47,
            "playerTrialScore": -11,
            "oppTrialScore": 11,
            "playerTotalScore": -133,
            "oppTotalScore": 130,
            "waitTime": 5270.365994540839,
            "responseTime": 1681164977902,
            "catchQuestion": "How many <b class=\"r\">red<\/b> marbles did your opponent report drawing? ",
            "catchKey": -1,
            "catchResponse": -1,
            "catchTime": 1681164960573,
            "trialTime": 0
        },
        {
            "exptPart": "trial",
            "trialNumber": 15,
            "roleCurrent": "receiver",
            "marblesSampled": 100,
            "probRed": 0.5,
            "practiceLambda": 5,
            "trialLambda": 8.1,
            "instructedLambda": "dishonest_big",
            "drawnRed": 40,
            "reportedRed": 49,
            "inferredRed": 50,
            "playerTrialScore": -10,
            "oppTrialScore": 10,
            "playerTotalScore": -143,
            "oppTotalScore": 140,
            "waitTime": 5240.334442673686,
            "responseTime": 1681164987971,
            "catchQuestion": "How many <b class=\"r\">red<\/b> marbles did your opponent report drawing? ",
            "catchKey": -1,
            "catchResponse": -1,
            "catchTime": 1681164960573,
            "trialTime": 0
        },
        {
            "exptPart": "trial",
            "trialNumber": 16,
            "roleCurrent": "receiver",
            "marblesSampled": 100,
            "probRed": 0.5,
            "practiceLambda": 5,
            "trialLambda": 8.1,
            "instructedLambda": "dishonest_big",
            "drawnRed": 23,
            "reportedRed": 38,
            "inferredRed": 40,
            "playerTrialScore": -17,
            "oppTrialScore": 17,
            "playerTotalScore": -160,
            "oppTotalScore": 157,
            "waitTime": 5282.833227287201,
            "responseTime": 1681164996330,
            "catchQuestion": "How many <b class=\"r\">red<\/b> marbles did your opponent report drawing? ",
            "catchKey": -1,
            "catchResponse": -1,
            "catchTime": 1681164960573,
            "trialTime": 0
        },
        {
            "exptPart": "trial",
            "trialNumber": 17,
            "roleCurrent": "receiver",
            "marblesSampled": 100,
            "probRed": 0.5,
            "practiceLambda": 5,
            "trialLambda": 8.1,
            "instructedLambda": "dishonest_big",
            "drawnRed": 48,
            "reportedRed": 58,
            "inferredRed": 61,
            "playerTrialScore": -13,
            "oppTrialScore": 13,
            "playerTotalScore": -173,
            "oppTotalScore": 170,
            "waitTime": 6183.325143144779,
            "responseTime": 1681165005256,
            "catchQuestion": "How many <b class=\"r\">red<\/b> marbles did your opponent report drawing? ",
            "catchKey": -1,
            "catchResponse": -1,
            "catchTime": 1681164960573,
            "trialTime": 0
        },
        {
            "exptPart": "trial",
            "trialNumber": 18,
            "roleCurrent": "receiver",
            "marblesSampled": 100,
            "probRed": 0.5,
            "practiceLambda": 5,
            "trialLambda": 8.1,
            "instructedLambda": "dishonest_big",
            "drawnRed": 42,
            "reportedRed": 46,
            "inferredRed": 50,
            "playerTrialScore": -8,
            "oppTrialScore": 8,
            "playerTotalScore": -181,
            "oppTotalScore": 178,
            "waitTime": 5343.546164631416,
            "responseTime": 1681165016560,
            "catchQuestion": "How many <b class=\"r\">red<\/b> marbles did your opponent report drawing? ",
            "catchKey": -1,
            "catchResponse": -1,
            "catchTime": 1681164960573,
            "trialTime": 0
        },
        {
            "exptPart": "trial",
            "trialNumber": 19,
            "roleCurrent": "receiver",
            "marblesSampled": 100,
            "probRed": 0.5,
            "practiceLambda": 5,
            "trialLambda": 8.1,
            "instructedLambda": "dishonest_big",
            "drawnRed": 83,
            "reportedRed": 93,
            "inferredRed": 65,
            "playerTrialScore": -18,
            "oppTrialScore": 0,
            "playerTotalScore": -199,
            "oppTotalScore": 178,
            "waitTime": 6428.722274011976,
            "responseTime": 1681165027914,
            "catchQuestion": "How many <b class=\"r\">red<\/b> marbles did your opponent report drawing? ",
            "catchKey": -1,
            "catchResponse": -1,
            "catchTime": 1681164960573,
            "trialTime": 0
        },
        {
            "exptPart": "trial",
            "trialNumber": 20,
            "roleCurrent": "receiver",
            "marblesSampled": 100,
            "probRed": 0.5,
            "practiceLambda": 5,
            "trialLambda": 8.1,
            "instructedLambda": "dishonest_big",
            "drawnRed": 41,
            "reportedRed": 49,
            "inferredRed": 56,
            "playerTrialScore": -15,
            "oppTrialScore": 15,
            "playerTotalScore": -214,
            "oppTotalScore": 193,
            "waitTime": 7292.226188147851,
            "responseTime": 1681165039674,
            "catchQuestion": "How many <b class=\"r\">red<\/b> marbles did your opponent report drawing? ",
            "catchKey": 49,
            "catchResponse": 49,
            "catchTime": 1681165039674,
            "trialTime": 0
        },
        {
            "exptPart": "trial",
            "trialNumber": 21,
            "roleCurrent": "receiver",
            "marblesSampled": 100,
            "probRed": 0.5,
            "practiceLambda": 5,
            "trialLambda": 8.1,
            "instructedLambda": "dishonest_big",
            "drawnRed": 74,
            "reportedRed": 82,
            "inferredRed": 100,
            "playerTrialScore": -26,
            "oppTrialScore": 26,
            "playerTotalScore": -240,
            "oppTotalScore": 219,
            "waitTime": 7371.079834518964,
            "responseTime": 1681165065865,
            "catchQuestion": "How many <b class=\"r\">red<\/b> marbles did your opponent report drawing? ",
            "catchKey": -1,
            "catchResponse": -1,
            "catchTime": 1681165039674,
            "trialTime": 0
        },
        {
            "exptPart": "trial",
            "trialNumber": 22,
            "roleCurrent": "receiver",
            "marblesSampled": 100,
            "probRed": 0.5,
            "practiceLambda": 5,
            "trialLambda": 8.1,
            "instructedLambda": "dishonest_big",
            "drawnRed": 50,
            "reportedRed": 54,
            "inferredRed": 20,
            "playerTrialScore": -30,
            "oppTrialScore": 0,
            "playerTotalScore": -270,
            "oppTotalScore": 219,
            "waitTime": 6860.419771598335,
            "responseTime": 1681165075658,
            "catchQuestion": "How many <b class=\"r\">red<\/b> marbles did your opponent report drawing? ",
            "catchKey": -1,
            "catchResponse": -1,
            "catchTime": 1681165039674,
            "trialTime": 0
        },
        {
            "exptPart": "trial",
            "trialNumber": 23,
            "roleCurrent": "receiver",
            "marblesSampled": 100,
            "probRed": 0.5,
            "practiceLambda": 5,
            "trialLambda": 8.1,
            "instructedLambda": "dishonest_big",
            "drawnRed": 87,
            "reportedRed": 97,
            "inferredRed": 98,
            "playerTrialScore": -11,
            "oppTrialScore": 11,
            "playerTotalScore": -281,
            "oppTotalScore": 230,
            "waitTime": 6371.793143732191,
            "responseTime": 1681165086301,
            "catchQuestion": "How many <b class=\"r\">red<\/b> marbles did your opponent report drawing? ",
            "catchKey": -1,
            "catchResponse": -1,
            "catchTime": 1681165039674,
            "trialTime": 0
        },
        {
            "exptPart": "trial",
            "trialNumber": 24,
            "roleCurrent": "receiver",
            "marblesSampled": 100,
            "probRed": 0.5,
            "practiceLambda": 5,
            "trialLambda": 8.1,
            "instructedLambda": "dishonest_big",
            "drawnRed": 27,
            "reportedRed": 33,
            "inferredRed": 40,
            "playerTrialScore": -13,
            "oppTrialScore": 13,
            "playerTotalScore": -294,
            "oppTotalScore": 243,
            "waitTime": 5669.306027281558,
            "responseTime": 1681165094277,
            "catchQuestion": "How many <b class=\"r\">red<\/b> marbles did your opponent report drawing? ",
            "catchKey": -1,
            "catchResponse": -1,
            "catchTime": 1681165039674,
            "trialTime": 0
        },
        {
            "exptPart": "trial",
            "trialNumber": 25,
            "roleCurrent": "receiver",
            "marblesSampled": 100,
            "probRed": 0.5,
            "practiceLambda": 5,
            "trialLambda": 8.1,
            "instructedLambda": "dishonest_big",
            "drawnRed": 47,
            "reportedRed": 53,
            "inferredRed": 53,
            "playerTrialScore": -6,
            "oppTrialScore": 6,
            "playerTotalScore": -300,
            "oppTotalScore": 249,
            "waitTime": 6766.401401140416,
            "responseTime": 1681165103436,
            "catchQuestion": "How many <b class=\"r\">red<\/b> marbles did your opponent report drawing? ",
            "catchKey": -1,
            "catchResponse": -1,
            "catchTime": 1681165039674,
            "trialTime": 0
        },
        {
            "exptPart": "trial",
            "trialNumber": 26,
            "roleCurrent": "receiver",
            "marblesSampled": 100,
            "probRed": 0.5,
            "practiceLambda": 5,
            "trialLambda": 8.1,
            "instructedLambda": "dishonest_big",
            "drawnRed": 62,
            "reportedRed": 67,
            "inferredRed": 67,
            "playerTrialScore": -5,
            "oppTrialScore": 5,
            "playerTotalScore": -305,
            "oppTotalScore": 254,
            "waitTime": 6551.8126196008125,
            "responseTime": 1681165112484,
            "catchQuestion": "How many <b class=\"r\">red<\/b> marbles did your opponent report drawing? ",
            "catchKey": -1,
            "catchResponse": -1,
            "catchTime": 1681165039674,
            "trialTime": 0
        },
        {
            "exptPart": "trial",
            "trialNumber": 27,
            "roleCurrent": "receiver",
            "marblesSampled": 100,
            "probRed": 0.5,
            "practiceLambda": 5,
            "trialLambda": 8.1,
            "instructedLambda": "dishonest_big",
            "drawnRed": 84,
            "reportedRed": 93,
            "inferredRed": 93,
            "playerTrialScore": -9,
            "oppTrialScore": 9,
            "playerTotalScore": -314,
            "oppTotalScore": 263,
            "waitTime": 6603.071128251081,
            "responseTime": 1681165122178,
            "catchQuestion": "How many <b class=\"r\">red<\/b> marbles did your opponent report drawing? ",
            "catchKey": -1,
            "catchResponse": -1,
            "catchTime": 1681165039674,
            "trialTime": 0
        },
        {
            "exptPart": "trial",
            "trialNumber": 28,
            "roleCurrent": "receiver",
            "marblesSampled": 100,
            "probRed": 0.5,
            "practiceLambda": 5,
            "trialLambda": 8.1,
            "instructedLambda": "dishonest_big",
            "drawnRed": 80,
            "reportedRed": 91,
            "inferredRed": 91,
            "playerTrialScore": -11,
            "oppTrialScore": 11,
            "playerTotalScore": -325,
            "oppTotalScore": 274,
            "waitTime": 7135.678501846935,
            "responseTime": 1681165132947,
            "catchQuestion": "How many <b class=\"r\">red<\/b> marbles did your opponent report drawing? ",
            "catchKey": -1,
            "catchResponse": -1,
            "catchTime": 1681165039674,
            "trialTime": 0
        },
        {
            "exptPart": "trial",
            "trialNumber": 29,
            "roleCurrent": "receiver",
            "marblesSampled": 100,
            "probRed": 0.5,
            "practiceLambda": 5,
            "trialLambda": 8.1,
            "instructedLambda": "dishonest_big",
            "drawnRed": 50,
            "reportedRed": 57,
            "inferredRed": 57,
            "playerTrialScore": -7,
            "oppTrialScore": 7,
            "playerTotalScore": -332,
            "oppTotalScore": 281,
            "waitTime": 5804.565059901756,
            "responseTime": 1681165141221,
            "catchQuestion": "How many <b class=\"r\">red<\/b> marbles did your opponent report drawing? ",
            "catchKey": -1,
            "catchResponse": -1,
            "catchTime": 1681165039674,
            "trialTime": 0
        },
        {
            "exptPart": "trial",
            "trialNumber": 30,
            "roleCurrent": "receiver",
            "marblesSampled": 100,
            "probRed": 0.5,
            "practiceLambda": 5,
            "trialLambda": 8.1,
            "instructedLambda": "dishonest_big",
            "drawnRed": 20,
            "reportedRed": 30,
            "inferredRed": 30,
            "playerTrialScore": -10,
            "oppTrialScore": 10,
            "playerTotalScore": -342,
            "oppTotalScore": 291,
            "waitTime": 6034.661088525285,
            "responseTime": 1681165149709,
            "catchQuestion": "How many <b class=\"r\">red<\/b> marbles did your opponent report drawing? ",
            "catchKey": -1,
            "catchResponse": -1,
            "catchTime": 1681165149709,
            "trialTime": 0
        },
        {
            "exptPart": "trial",
            "trialNumber": 31,
            "roleCurrent": "receiver",
            "marblesSampled": 100,
            "probRed": 0.5,
            "practiceLambda": 5,
            "trialLambda": 8.1,
            "instructedLambda": "dishonest_big",
            "drawnRed": 28,
            "reportedRed": 33,
            "inferredRed": 33,
            "playerTrialScore": -5,
            "oppTrialScore": 5,
            "playerTotalScore": -347,
            "oppTotalScore": 296,
            "waitTime": 6955.59278793641,
            "responseTime": 1681165162024,
            "catchQuestion": "How many <b class=\"r\">red<\/b> marbles did your opponent report drawing? ",
            "catchKey": -1,
            "catchResponse": -1,
            "catchTime": 1681165149709,
            "trialTime": 0
        },
        {
            "exptPart": "trial",
            "trialNumber": 32,
            "roleCurrent": "receiver",
            "marblesSampled": 100,
            "probRed": 0.5,
            "practiceLambda": 5,
            "trialLambda": 8.1,
            "instructedLambda": "dishonest_big",
            "drawnRed": 45,
            "reportedRed": 56,
            "inferredRed": 56,
            "playerTrialScore": -11,
            "oppTrialScore": 11,
            "playerTotalScore": -358,
            "oppTotalScore": 307,
            "waitTime": 6627.658808157041,
            "responseTime": 1681165171634,
            "catchQuestion": "How many <b class=\"r\">red<\/b> marbles did your opponent report drawing? ",
            "catchKey": -1,
            "catchResponse": -1,
            "catchTime": 1681165149709,
            "trialTime": 0
        },
        {
            "exptPart": "trial",
            "trialNumber": 33,
            "roleCurrent": "receiver",
            "marblesSampled": 100,
            "probRed": 0.5,
            "practiceLambda": 5,
            "trialLambda": 8.1,
            "instructedLambda": "dishonest_big",
            "drawnRed": 30,
            "reportedRed": 40,
            "inferredRed": 40,
            "playerTrialScore": -10,
            "oppTrialScore": 10,
            "playerTotalScore": -368,
            "oppTotalScore": 317,
            "waitTime": 6757.952411447323,
            "responseTime": 1681165180585,
            "catchQuestion": "How many <b class=\"r\">red<\/b> marbles did your opponent report drawing? ",
            "catchKey": 40,
            "catchResponse": 40,
            "catchTime": 1681165180585,
            "trialTime": 0
        },
        {
            "exptPart": "trial",
            "trialNumber": 34,
            "roleCurrent": "receiver",
            "marblesSampled": 100,
            "probRed": 0.5,
            "practiceLambda": 5,
            "trialLambda": 8.1,
            "instructedLambda": "dishonest_big",
            "drawnRed": 24,
            "reportedRed": 39,
            "inferredRed": 39,
            "playerTrialScore": -15,
            "oppTrialScore": 15,
            "playerTotalScore": -383,
            "oppTotalScore": 332,
            "waitTime": 6866.9031352751235,
            "responseTime": 1681165195322,
            "catchQuestion": "How many <b class=\"r\">red<\/b> marbles did your opponent report drawing? ",
            "catchKey": -1,
            "catchResponse": -1,
            "catchTime": 1681165180585,
            "trialTime": 0
        },
        {
            "exptPart": "trial",
            "trialNumber": 35,
            "roleCurrent": "receiver",
            "marblesSampled": 100,
            "probRed": 0.5,
            "practiceLambda": 5,
            "trialLambda": 8.1,
            "instructedLambda": "dishonest_big",
            "drawnRed": 77,
            "reportedRed": 84,
            "inferredRed": 84,
            "playerTrialScore": -7,
            "oppTrialScore": 7,
            "playerTotalScore": -390,
            "oppTotalScore": 339,
            "waitTime": 7005.436763718202,
            "responseTime": 1681165204847,
            "catchQuestion": "How many <b class=\"r\">red<\/b> marbles did your opponent report drawing? ",
            "catchKey": -1,
            "catchResponse": -1,
            "catchTime": 1681165180585,
            "trialTime": 0
        },
        {
            "exptPart": "trial",
            "trialNumber": 36,
            "roleCurrent": "receiver",
            "marblesSampled": 100,
            "probRed": 0.5,
            "practiceLambda": 5,
            "trialLambda": 8.1,
            "instructedLambda": "dishonest_big",
            "drawnRed": 47,
            "reportedRed": 58,
            "inferredRed": 58,
            "playerTrialScore": -11,
            "oppTrialScore": 11,
            "playerTotalScore": -401,
            "oppTotalScore": 350,
            "waitTime": 6229.792500988735,
            "responseTime": 1681165213721,
            "catchQuestion": "How many <b class=\"r\">red<\/b> marbles did your opponent report drawing? ",
            "catchKey": -1,
            "catchResponse": -1,
            "catchTime": 1681165180585,
            "trialTime": 0
        },
        {
            "exptPart": "trial",
            "trialNumber": 37,
            "roleCurrent": "receiver",
            "marblesSampled": 100,
            "probRed": 0.5,
            "practiceLambda": 5,
            "trialLambda": 8.1,
            "instructedLambda": "dishonest_big",
            "drawnRed": 16,
            "reportedRed": 23,
            "inferredRed": 23,
            "playerTrialScore": -7,
            "oppTrialScore": 7,
            "playerTotalScore": -408,
            "oppTotalScore": 357,
            "waitTime": 6440.81331772991,
            "responseTime": 1681165222350,
            "catchQuestion": "How many <b class=\"r\">red<\/b> marbles did your opponent report drawing? ",
            "catchKey": -1,
            "catchResponse": -1,
            "catchTime": 1681165180585,
            "trialTime": 0
        },
        {
            "exptPart": "trial",
            "trialNumber": 38,
            "roleCurrent": "receiver",
            "marblesSampled": 100,
            "probRed": 0.5,
            "practiceLambda": 5,
            "trialLambda": 8.1,
            "instructedLambda": "dishonest_big",
            "drawnRed": 49,
            "reportedRed": 55,
            "inferredRed": 55,
            "playerTrialScore": -6,
            "oppTrialScore": 6,
            "playerTotalScore": -414,
            "oppTotalScore": 363,
            "waitTime": 6184.618240089238,
            "responseTime": 1681165230932,
            "catchQuestion": "How many <b class=\"r\">red<\/b> marbles did your opponent report drawing? ",
            "catchKey": -1,
            "catchResponse": -1,
            "catchTime": 1681165180585,
            "trialTime": 0
        },
        {
            "exptPart": "trial",
            "trialNumber": 39,
            "roleCurrent": "receiver",
            "marblesSampled": 100,
            "probRed": 0.5,
            "practiceLambda": 5,
            "trialLambda": 8.1,
            "instructedLambda": "dishonest_big",
            "drawnRed": 65,
            "reportedRed": 76,
            "inferredRed": 76,
            "playerTrialScore": -11,
            "oppTrialScore": 11,
            "playerTotalScore": -425,
            "oppTotalScore": 374,
            "waitTime": 7090.255014785751,
            "responseTime": 1681165240328,
            "catchQuestion": "How many <b class=\"r\">red<\/b> marbles did your opponent report drawing? ",
            "catchKey": -1,
            "catchResponse": -1,
            "catchTime": 1681165180585,
            "trialTime": 0
        },
        {
            "exptPart": "trial",
            "trialNumber": 40,
            "roleCurrent": "receiver",
            "marblesSampled": 100,
            "probRed": 0.5,
            "practiceLambda": 5,
            "trialLambda": 8.1,
            "instructedLambda": "dishonest_big",
            "drawnRed": 52,
            "reportedRed": 58,
            "inferredRed": 58,
            "playerTrialScore": -6,
            "oppTrialScore": 6,
            "playerTotalScore": -431,
            "oppTotalScore": 380,
            "waitTime": 5520.500371954367,
            "responseTime": 1681165248780,
            "catchQuestion": "How many <b class=\"r\">red<\/b> marbles did your opponent report drawing? ",
            "catchKey": -1,
            "catchResponse": -1,
            "catchTime": 1681165248780,
            "trialTime": 0
        },
        {
            "exptPart": "trial",
            "trialNumber": 41,
            "roleCurrent": "receiver",
            "marblesSampled": 100,
            "probRed": 0.5,
            "practiceLambda": 5,
            "trialLambda": 8.1,
            "instructedLambda": "dishonest_big",
            "drawnRed": 27,
            "reportedRed": 33,
            "inferredRed": 0,
            "playerTrialScore": -27,
            "oppTrialScore": 0,
            "playerTotalScore": -458,
            "oppTotalScore": 380,
            "waitTime": 6765.557248722371,
            "responseTime": 1681165259344,
            "catchQuestion": "How many <b class=\"r\">red<\/b> marbles did your opponent report drawing? ",
            "catchKey": 33,
            "catchResponse": 33,
            "catchTime": 1681165259344,
            "trialTime": 0
        },
        {
            "exptPart": "trial",
            "trialNumber": 42,
            "roleCurrent": "receiver",
            "marblesSampled": 100,
            "probRed": 0.5,
            "practiceLambda": 5,
            "trialLambda": 8.1,
            "instructedLambda": "dishonest_big",
            "drawnRed": 42,
            "reportedRed": 49,
            "inferredRed": 49,
            "playerTrialScore": -7,
            "oppTrialScore": 7,
            "playerTotalScore": -465,
            "oppTotalScore": 387,
            "waitTime": 6746.626422249259,
            "responseTime": 1681165272575,
            "catchQuestion": "How many <b class=\"r\">red<\/b> marbles did your opponent report drawing? ",
            "catchKey": -1,
            "catchResponse": -1,
            "catchTime": 1681165259344,
            "trialTime": 0
        },
        {
            "exptPart": "trial",
            "trialNumber": 43,
            "roleCurrent": "receiver",
            "marblesSampled": 100,
            "probRed": 0.5,
            "practiceLambda": 5,
            "trialLambda": 8.1,
            "instructedLambda": "dishonest_big",
            "drawnRed": 45,
            "reportedRed": 58,
            "inferredRed": 58,
            "playerTrialScore": -13,
            "oppTrialScore": 13,
            "playerTotalScore": -478,
            "oppTotalScore": 400,
            "waitTime": 5236.502339313063,
            "responseTime": 1681165280845,
            "catchQuestion": "How many <b class=\"r\">red<\/b> marbles did your opponent report drawing? ",
            "catchKey": -1,
            "catchResponse": -1,
            "catchTime": 1681165259344,
            "trialTime": 0
        },
        {
            "exptPart": "trial",
            "trialNumber": 44,
            "roleCurrent": "receiver",
            "marblesSampled": 100,
            "probRed": 0.5,
            "practiceLambda": 5,
            "trialLambda": 8.1,
            "instructedLambda": "dishonest_big",
            "drawnRed": 66,
            "reportedRed": 80,
            "inferredRed": 80,
            "playerTrialScore": -14,
            "oppTrialScore": 14,
            "playerTotalScore": -492,
            "oppTotalScore": 414,
            "waitTime": 5436.721886941006,
            "responseTime": 1681165289050,
            "catchQuestion": "How many <b class=\"r\">red<\/b> marbles did your opponent report drawing? ",
            "catchKey": -1,
            "catchResponse": -1,
            "catchTime": 1681165259344,
            "trialTime": 0
        },
        {
            "exptPart": "trial",
            "trialNumber": 45,
            "roleCurrent": "receiver",
            "marblesSampled": 100,
            "probRed": 0.5,
            "practiceLambda": 5,
            "trialLambda": 8.1,
            "instructedLambda": "dishonest_big",
            "drawnRed": 39,
            "reportedRed": 51,
            "inferredRed": 51,
            "playerTrialScore": -12,
            "oppTrialScore": 12,
            "playerTotalScore": -504,
            "oppTotalScore": 426,
            "waitTime": 5205.071480235696,
            "responseTime": 1681165296843,
            "catchQuestion": "How many <b class=\"r\">red<\/b> marbles did your opponent report drawing? ",
            "catchKey": -1,
            "catchResponse": -1,
            "catchTime": 1681165259344,
            "trialTime": 0
        },
        {
            "exptPart": "trial",
            "trialNumber": 46,
            "roleCurrent": "receiver",
            "marblesSampled": 100,
            "probRed": 0.5,
            "practiceLambda": 5,
            "trialLambda": 8.1,
            "instructedLambda": "dishonest_big",
            "drawnRed": 59,
            "reportedRed": 66,
            "inferredRed": 66,
            "playerTrialScore": -7,
            "oppTrialScore": 7,
            "playerTotalScore": -511,
            "oppTotalScore": 433,
            "waitTime": 7038.384769590397,
            "responseTime": 1681165305979,
            "catchQuestion": "How many <b class=\"r\">red<\/b> marbles did your opponent report drawing? ",
            "catchKey": -1,
            "catchResponse": -1,
            "catchTime": 1681165259344,
            "trialTime": 0
        },
        {
            "exptPart": "trial",
            "trialNumber": 47,
            "roleCurrent": "receiver",
            "marblesSampled": 100,
            "probRed": 0.5,
            "practiceLambda": 5,
            "trialLambda": 8.1,
            "instructedLambda": "dishonest_big",
            "drawnRed": 84,
            "reportedRed": 94,
            "inferredRed": 94,
            "playerTrialScore": -10,
            "oppTrialScore": 10,
            "playerTotalScore": -521,
            "oppTotalScore": 443,
            "waitTime": 7184.844794776099,
            "responseTime": 1681165315236,
            "catchQuestion": "How many <b class=\"r\">red<\/b> marbles did your opponent report drawing? ",
            "catchKey": -1,
            "catchResponse": -1,
            "catchTime": 1681165259344,
            "trialTime": 0
        },
        {
            "exptPart": "trial",
            "trialNumber": 48,
            "roleCurrent": "receiver",
            "marblesSampled": 100,
            "probRed": 0.5,
            "practiceLambda": 5,
            "trialLambda": 8.1,
            "instructedLambda": "dishonest_big",
            "drawnRed": 53,
            "reportedRed": 57,
            "inferredRed": 57,
            "playerTrialScore": -4,
            "oppTrialScore": 4,
            "playerTotalScore": -525,
            "oppTotalScore": 447,
            "waitTime": 7224.317477132747,
            "responseTime": 1681165324589,
            "catchQuestion": "How many <b class=\"r\">red<\/b> marbles did your opponent report drawing? ",
            "catchKey": -1,
            "catchResponse": -1,
            "catchTime": 1681165259344,
            "trialTime": 0
        },
        {
            "exptPart": "trial",
            "trialNumber": 49,
            "roleCurrent": "receiver",
            "marblesSampled": 100,
            "probRed": 0.5,
            "practiceLambda": 5,
            "trialLambda": 8.1,
            "instructedLambda": "dishonest_big",
            "drawnRed": 73,
            "reportedRed": 78,
            "inferredRed": 78,
            "playerTrialScore": -5,
            "oppTrialScore": 5,
            "playerTotalScore": -530,
            "oppTotalScore": 452,
            "waitTime": 6308.709123535469,
            "responseTime": 1681165333592,
            "catchQuestion": "How many <b class=\"r\">red<\/b> marbles did your opponent report drawing? ",
            "catchKey": -1,
            "catchResponse": -1,
            "catchTime": 1681165259344,
            "trialTime": 0
        },
        {
            "exptPart": "trial",
            "trialNumber": 50,
            "roleCurrent": "receiver",
            "marblesSampled": 100,
            "probRed": 0.5,
            "practiceLambda": 5,
            "trialLambda": 8.1,
            "instructedLambda": "dishonest_big",
            "drawnRed": 57,
            "reportedRed": 63,
            "inferredRed": 63,
            "playerTrialScore": -6,
            "oppTrialScore": 6,
            "playerTotalScore": -536,
            "oppTotalScore": 458,
            "waitTime": 5364.386897350808,
            "responseTime": 1681165341697,
            "catchQuestion": "How many <b class=\"r\">red<\/b> marbles did your opponent report drawing? ",
            "catchKey": -1,
            "catchResponse": -1,
            "catchTime": 1681165341697,
            "trialTime": 0
        },
        {
            "exptPart": "trial",
            "trialNumber": 51,
            "roleCurrent": "receiver",
            "marblesSampled": 100,
            "probRed": 0.5,
            "practiceLambda": 5,
            "trialLambda": 8.1,
            "instructedLambda": "dishonest_big",
            "drawnRed": 60,
            "reportedRed": 66,
            "inferredRed": 66,
            "playerTrialScore": -6,
            "oppTrialScore": 6,
            "playerTotalScore": -542,
            "oppTotalScore": 464,
            "waitTime": 5237.007838107791,
            "responseTime": 1681165351132,
            "catchQuestion": "How many <b class=\"r\">red<\/b> marbles did your opponent report drawing? ",
            "catchKey": -1,
            "catchResponse": -1,
            "catchTime": 1681165341697,
            "trialTime": 0
        },
        {
            "exptPart": "trial",
            "trialNumber": 52,
            "roleCurrent": "receiver",
            "marblesSampled": 100,
            "probRed": 0.5,
            "practiceLambda": 5,
            "trialLambda": 8.1,
            "instructedLambda": "dishonest_big",
            "drawnRed": 79,
            "reportedRed": 86,
            "inferredRed": 86,
            "playerTrialScore": -7,
            "oppTrialScore": 7,
            "playerTotalScore": -549,
            "oppTotalScore": 471,
            "waitTime": 5253.429118822089,
            "responseTime": 1681165358838,
            "catchQuestion": "How many <b class=\"r\">red<\/b> marbles did your opponent report drawing? ",
            "catchKey": 86,
            "catchResponse": 86,
            "catchTime": 1681165358838,
            "trialTime": 0
        },
        {
            "exptPart": "trial",
            "trialNumber": 53,
            "roleCurrent": "receiver",
            "marblesSampled": 100,
            "probRed": 0.5,
            "practiceLambda": 5,
            "trialLambda": 8.1,
            "instructedLambda": "dishonest_big",
            "drawnRed": 72,
            "reportedRed": 80,
            "inferredRed": 0,
            "playerTrialScore": -72,
            "oppTrialScore": 0,
            "playerTotalScore": -621,
            "oppTotalScore": 471,
            "waitTime": 5276.56091799061,
            "responseTime": 1681165370703,
            "catchQuestion": "How many <b class=\"r\">red<\/b> marbles did your opponent report drawing? ",
            "catchKey": -1,
            "catchResponse": -1,
            "catchTime": 1681165358838,
            "trialTime": 0
        },
        {
            "exptPart": "trial",
            "trialNumber": 54,
            "roleCurrent": "receiver",
            "marblesSampled": 100,
            "probRed": 0.5,
            "practiceLambda": 5,
            "trialLambda": 8.1,
            "instructedLambda": "dishonest_big",
            "drawnRed": 79,
            "reportedRed": 83,
            "inferredRed": 83,
            "playerTrialScore": -4,
            "oppTrialScore": 4,
            "playerTotalScore": -625,
            "oppTotalScore": 475,
            "waitTime": 5795.840356310289,
            "responseTime": 1681165379936,
            "catchQuestion": "How many <b class=\"r\">red<\/b> marbles did your opponent report drawing? ",
            "catchKey": -1,
            "catchResponse": -1,
            "catchTime": 1681165358838,
            "trialTime": 0
        },
        {
            "exptPart": "trial",
            "trialNumber": 55,
            "roleCurrent": "receiver",
            "marblesSampled": 100,
            "probRed": 0.5,
            "practiceLambda": 5,
            "trialLambda": 8.1,
            "instructedLambda": "dishonest_big",
            "drawnRed": 77,
            "reportedRed": 88,
            "inferredRed": 88,
            "playerTrialScore": -11,
            "oppTrialScore": 11,
            "playerTotalScore": -636,
            "oppTotalScore": 486,
            "waitTime": 6499.893633044603,
            "responseTime": 1681165388935,
            "catchQuestion": "How many <b class=\"r\">red<\/b> marbles did your opponent report drawing? ",
            "catchKey": -1,
            "catchResponse": -1,
            "catchTime": 1681165358838,
            "trialTime": 0
        },
        {
            "exptPart": "trial",
            "trialNumber": 56,
            "roleCurrent": "receiver",
            "marblesSampled": 100,
            "probRed": 0.5,
            "practiceLambda": 5,
            "trialLambda": 8.1,
            "instructedLambda": "dishonest_big",
            "drawnRed": 34,
            "reportedRed": 40,
            "inferredRed": 40,
            "playerTrialScore": -6,
            "oppTrialScore": 6,
            "playerTotalScore": -642,
            "oppTotalScore": 492,
            "waitTime": 5309.080214687272,
            "responseTime": 1681165396806,
            "catchQuestion": "How many <b class=\"r\">red<\/b> marbles did your opponent report drawing? ",
            "catchKey": -1,
            "catchResponse": -1,
            "catchTime": 1681165358838,
            "trialTime": 0
        },
        {
            "exptPart": "trial",
            "trialNumber": 57,
            "roleCurrent": "receiver",
            "marblesSampled": 100,
            "probRed": 0.5,
            "practiceLambda": 5,
            "trialLambda": 8.1,
            "instructedLambda": "dishonest_big",
            "drawnRed": 63,
            "reportedRed": 67,
            "inferredRed": 67,
            "playerTrialScore": -4,
            "oppTrialScore": 4,
            "playerTotalScore": -646,
            "oppTotalScore": 496,
            "waitTime": 5360.174613016554,
            "responseTime": 1681165404750,
            "catchQuestion": "How many <b class=\"r\">red<\/b> marbles did your opponent report drawing? ",
            "catchKey": -1,
            "catchResponse": -1,
            "catchTime": 1681165358838,
            "trialTime": 0
        },
        {
            "exptPart": "trial",
            "trialNumber": 58,
            "roleCurrent": "receiver",
            "marblesSampled": 100,
            "probRed": 0.5,
            "practiceLambda": 5,
            "trialLambda": 8.1,
            "instructedLambda": "dishonest_big",
            "drawnRed": 39,
            "reportedRed": 47,
            "inferredRed": 47,
            "playerTrialScore": -8,
            "oppTrialScore": 8,
            "playerTotalScore": -654,
            "oppTotalScore": 504,
            "waitTime": 5219.289422827753,
            "responseTime": 1681165412729,
            "catchQuestion": "How many <b class=\"r\">red<\/b> marbles did your opponent report drawing? ",
            "catchKey": -1,
            "catchResponse": -1,
            "catchTime": 1681165358838,
            "trialTime": 0
        },
        {
            "exptPart": "trial",
            "trialNumber": 59,
            "roleCurrent": "receiver",
            "marblesSampled": 100,
            "probRed": 0.5,
            "practiceLambda": 5,
            "trialLambda": 8.1,
            "instructedLambda": "dishonest_big",
            "drawnRed": 45,
            "reportedRed": 56,
            "inferredRed": 4,
            "playerTrialScore": -41,
            "oppTrialScore": 0,
            "playerTotalScore": -695,
            "oppTotalScore": 504,
            "waitTime": 6750.617555475084,
            "responseTime": 1681165421899,
            "catchQuestion": "How many <b class=\"r\">red<\/b> marbles did your opponent report drawing? ",
            "catchKey": -1,
            "catchResponse": -1,
            "catchTime": 1681165358838,
            "trialTime": 0
        },
        {
            "exptPart": "trial",
            "trialNumber": 60,
            "roleCurrent": "receiver",
            "marblesSampled": 100,
            "probRed": 0.5,
            "practiceLambda": 5,
            "trialLambda": 8.1,
            "instructedLambda": "dishonest_big",
            "drawnRed": 28,
            "reportedRed": 40,
            "inferredRed": 4,
            "playerTrialScore": -24,
            "oppTrialScore": 0,
            "playerTotalScore": -719,
            "oppTotalScore": 504,
            "waitTime": 5772.924941705034,
            "responseTime": 1681165429787,
            "catchQuestion": "How many <b class=\"r\">red<\/b> marbles did your opponent report drawing? ",
            "catchKey": -1,
            "catchResponse": -1,
            "catchTime": 1681165429787,
            "trialTime": 0
        },
        {
            "exptPart": "trial",
            "trialNumber": 61,
            "roleCurrent": "receiver",
            "marblesSampled": 100,
            "probRed": 0.5,
            "practiceLambda": 5,
            "trialLambda": 8.1,
            "instructedLambda": "dishonest_big",
            "drawnRed": 52,
            "reportedRed": 62,
            "inferredRed": 100,
            "playerTrialScore": -48,
            "oppTrialScore": 48,
            "playerTotalScore": -767,
            "oppTotalScore": 552,
            "waitTime": 7470.171029375647,
            "responseTime": 1681165441917,
            "catchQuestion": "How many <b class=\"r\">red<\/b> marbles did your opponent report drawing? ",
            "catchKey": -1,
            "catchResponse": -1,
            "catchTime": 1681165429787,
            "trialTime": 0
        },
        {
            "exptPart": "trial",
            "trialNumber": 62,
            "roleCurrent": "receiver",
            "marblesSampled": 100,
            "probRed": 0.5,
            "practiceLambda": 5,
            "trialLambda": 8.1,
            "instructedLambda": "dishonest_big",
            "drawnRed": 21,
            "reportedRed": 28,
            "inferredRed": 100,
            "playerTrialScore": -79,
            "oppTrialScore": 79,
            "playerTotalScore": -846,
            "oppTotalScore": 631,
            "waitTime": 6749.56669940358,
            "responseTime": 1681165450902,
            "catchQuestion": "How many <b class=\"r\">red<\/b> marbles did your opponent report drawing? ",
            "catchKey": -1,
            "catchResponse": -1,
            "catchTime": 1681165429787,
            "trialTime": 0
        },
        {
            "exptPart": "trial",
            "trialNumber": 63,
            "roleCurrent": "receiver",
            "marblesSampled": 100,
            "probRed": 0.5,
            "practiceLambda": 5,
            "trialLambda": 8.1,
            "instructedLambda": "dishonest_big",
            "drawnRed": 44,
            "reportedRed": 51,
            "inferredRed": 100,
            "playerTrialScore": -56,
            "oppTrialScore": 56,
            "playerTotalScore": -902,
            "oppTotalScore": 687,
            "waitTime": 5196.535819011815,
            "responseTime": 1681165458815,
            "catchQuestion": "How many <b class=\"r\">red<\/b> marbles did your opponent report drawing? ",
            "catchKey": -1,
            "catchResponse": -1,
            "catchTime": 1681165429787,
            "trialTime": 0
        },
        {
            "exptPart": "trial",
            "trialNumber": 64,
            "roleCurrent": "receiver",
            "marblesSampled": 100,
            "probRed": 0.5,
            "practiceLambda": 5,
            "trialLambda": 8.1,
            "instructedLambda": "dishonest_big",
            "drawnRed": 58,
            "reportedRed": 67,
            "inferredRed": 100,
            "playerTrialScore": -42,
            "oppTrialScore": 42,
            "playerTotalScore": -944,
            "oppTotalScore": 729,
            "waitTime": 6985.904582029929,
            "responseTime": 1681165467643,
            "catchQuestion": "How many <b class=\"r\">red<\/b> marbles did your opponent report drawing? ",
            "catchKey": -1,
            "catchResponse": -1,
            "catchTime": 1681165429787,
            "trialTime": 0
        },
        {
            "exptPart": "trial",
            "trialNumber": 65,
            "roleCurrent": "receiver",
            "marblesSampled": 100,
            "probRed": 0.5,
            "practiceLambda": 5,
            "trialLambda": 8.1,
            "instructedLambda": "dishonest_big",
            "drawnRed": 41,
            "reportedRed": 55,
            "inferredRed": 100,
            "playerTrialScore": -59,
            "oppTrialScore": 59,
            "playerTotalScore": -1003,
            "oppTotalScore": 788,
            "waitTime": 6060.4902635962835,
            "responseTime": 1681165475784,
            "catchQuestion": "How many <b class=\"r\">red<\/b> marbles did your opponent report drawing? ",
            "catchKey": -1,
            "catchResponse": -1,
            "catchTime": 1681165429787,
            "trialTime": 0
        },
        {
            "exptPart": "trial",
            "trialNumber": 66,
            "roleCurrent": "receiver",
            "marblesSampled": 100,
            "probRed": 0.5,
            "practiceLambda": 5,
            "trialLambda": 8.1,
            "instructedLambda": "dishonest_big",
            "drawnRed": 20,
            "reportedRed": 32,
            "inferredRed": 30,
            "playerTrialScore": -10,
            "oppTrialScore": 10,
            "playerTotalScore": -1013,
            "oppTotalScore": 798,
            "waitTime": 7163.376387595675,
            "responseTime": 1681165485725,
            "catchQuestion": "How many <b class=\"r\">red<\/b> marbles did your opponent report drawing? ",
            "catchKey": -1,
            "catchResponse": -1,
            "catchTime": 1681165429787,
            "trialTime": 0
        },
        {
            "exptPart": "trial",
            "trialNumber": 67,
            "roleCurrent": "receiver",
            "marblesSampled": 100,
            "probRed": 0.5,
            "practiceLambda": 5,
            "trialLambda": 8.1,
            "instructedLambda": "dishonest_big",
            "drawnRed": 35,
            "reportedRed": 42,
            "inferredRed": 100,
            "playerTrialScore": -65,
            "oppTrialScore": 65,
            "playerTotalScore": -1078,
            "oppTotalScore": 863,
            "waitTime": 5442.50212476479,
            "responseTime": 1681165493863,
            "catchQuestion": "How many <b class=\"r\">red<\/b> marbles did your opponent report drawing? ",
            "catchKey": -1,
            "catchResponse": -1,
            "catchTime": 1681165429787,
            "trialTime": 0
        },
        {
            "exptPart": "trial",
            "trialNumber": 68,
            "roleCurrent": "receiver",
            "marblesSampled": 100,
            "probRed": 0.5,
            "practiceLambda": 5,
            "trialLambda": 8.1,
            "instructedLambda": "dishonest_big",
            "drawnRed": 66,
            "reportedRed": 71,
            "inferredRed": 49,
            "playerTrialScore": -17,
            "oppTrialScore": 0,
            "playerTotalScore": -1095,
            "oppTotalScore": 863,
            "waitTime": 6833.693395734072,
            "responseTime": 1681165505577,
            "catchQuestion": "How many <b class=\"r\">red<\/b> marbles did your opponent report drawing? ",
            "catchKey": -1,
            "catchResponse": -1,
            "catchTime": 1681165429787,
            "trialTime": 0
        },
        {
            "exptPart": "trial",
            "trialNumber": 69,
            "roleCurrent": "receiver",
            "marblesSampled": 100,
            "probRed": 0.5,
            "practiceLambda": 5,
            "trialLambda": 8.1,
            "instructedLambda": "dishonest_big",
            "drawnRed": 65,
            "reportedRed": 72,
            "inferredRed": 1,
            "playerTrialScore": -64,
            "oppTrialScore": 0,
            "playerTotalScore": -1159,
            "oppTotalScore": 863,
            "waitTime": 6115.5150549661585,
            "responseTime": 1681165514725,
            "catchQuestion": "How many <b class=\"r\">red<\/b> marbles did your opponent report drawing? ",
            "catchKey": -1,
            "catchResponse": -1,
            "catchTime": 1681165429787,
            "trialTime": 0
        },
        {
            "exptPart": "trial",
            "trialNumber": 70,
            "roleCurrent": "receiver",
            "marblesSampled": 100,
            "probRed": 0.5,
            "practiceLambda": 5,
            "trialLambda": 8.1,
            "instructedLambda": "dishonest_big",
            "drawnRed": 54,
            "reportedRed": 60,
            "inferredRed": 100,
            "playerTrialScore": -46,
            "oppTrialScore": 46,
            "playerTotalScore": -1205,
            "oppTotalScore": 909,
            "waitTime": 5324.60163276114,
            "responseTime": 1681165522475,
            "catchQuestion": "How many <b class=\"r\">red<\/b> marbles did your opponent report drawing? ",
            "catchKey": -1,
            "catchResponse": -1,
            "catchTime": 1681165522475,
            "trialTime": 0
        },
        {
            "exptPart": "trial",
            "trialNumber": 71,
            "roleCurrent": "receiver",
            "marblesSampled": 100,
            "probRed": 0.5,
            "practiceLambda": 5,
            "trialLambda": 8.1,
            "instructedLambda": "dishonest_big",
            "drawnRed": 76,
            "reportedRed": 89,
            "inferredRed": 2,
            "playerTrialScore": -74,
            "oppTrialScore": 0,
            "playerTotalScore": -1279,
            "oppTotalScore": 909,
            "waitTime": 5208.0770554746605,
            "responseTime": 1681165536416,
            "catchQuestion": "How many <b class=\"r\">red<\/b> marbles did your opponent report drawing? ",
            "catchKey": 89,
            "catchResponse": 70,
            "catchTime": 1681165536416,
            "trialTime": 0
        },
        {
            "exptPart": "trial",
            "trialNumber": 72,
            "roleCurrent": "receiver",
            "marblesSampled": 100,
            "probRed": 0.5,
            "practiceLambda": 5,
            "trialLambda": 8.1,
            "instructedLambda": "dishonest_big",
            "drawnRed": 41,
            "reportedRed": 46,
            "inferredRed": 77,
            "playerTrialScore": -36,
            "oppTrialScore": 36,
            "playerTotalScore": -1315,
            "oppTotalScore": 945,
            "waitTime": 5486.973189333881,
            "responseTime": 1681165565801,
            "catchQuestion": "How many <b class=\"r\">red<\/b> marbles did your opponent report drawing? ",
            "catchKey": -1,
            "catchResponse": -1,
            "catchTime": 1681165536416,
            "trialTime": 0
        },
        {
            "exptPart": "trial",
            "trialNumber": 73,
            "roleCurrent": "receiver",
            "marblesSampled": 100,
            "probRed": 0.5,
            "practiceLambda": 5,
            "trialLambda": 8.1,
            "instructedLambda": "dishonest_big",
            "drawnRed": 48,
            "reportedRed": 58,
            "inferredRed": 90,
            "playerTrialScore": -42,
            "oppTrialScore": 42,
            "playerTotalScore": -1357,
            "oppTotalScore": 987,
            "waitTime": 5306.2087230885,
            "responseTime": 1681165573364,
            "catchQuestion": "How many <b class=\"r\">red<\/b> marbles did your opponent report drawing? ",
            "catchKey": -1,
            "catchResponse": -1,
            "catchTime": 1681165536416,
            "trialTime": 0
        },
        {
            "exptPart": "trial",
            "trialNumber": 74,
            "roleCurrent": "receiver",
            "marblesSampled": 100,
            "probRed": 0.5,
            "practiceLambda": 5,
            "trialLambda": 8.1,
            "instructedLambda": "dishonest_big",
            "drawnRed": 18,
            "reportedRed": 21,
            "inferredRed": 45,
            "playerTrialScore": -27,
            "oppTrialScore": 27,
            "playerTotalScore": -1384,
            "oppTotalScore": 1014,
            "waitTime": 5341.299868989567,
            "responseTime": 1681165581089,
            "catchQuestion": "How many <b class=\"r\">red<\/b> marbles did your opponent report drawing? ",
            "catchKey": -1,
            "catchResponse": -1,
            "catchTime": 1681165536416,
            "trialTime": 0
        },
        {
            "exptPart": "trial",
            "trialNumber": 75,
            "roleCurrent": "receiver",
            "marblesSampled": 100,
            "probRed": 0.5,
            "practiceLambda": 5,
            "trialLambda": 8.1,
            "instructedLambda": "dishonest_big",
            "drawnRed": 37,
            "reportedRed": 48,
            "inferredRed": 60,
            "playerTrialScore": -23,
            "oppTrialScore": 23,
            "playerTotalScore": -1407,
            "oppTotalScore": 1037,
            "waitTime": 7468.501068099737,
            "responseTime": 1681165591160,
            "catchQuestion": "How many <b class=\"r\">red<\/b> marbles did your opponent report drawing? ",
            "catchKey": -1,
            "catchResponse": -1,
            "catchTime": 1681165536416,
            "trialTime": 0
        },
        {
            "exptPart": "trial",
            "trialNumber": 76,
            "roleCurrent": "receiver",
            "marblesSampled": 100,
            "probRed": 0.5,
            "practiceLambda": 5,
            "trialLambda": 8.1,
            "instructedLambda": "dishonest_big",
            "drawnRed": 29,
            "reportedRed": 42,
            "inferredRed": 60,
            "playerTrialScore": -31,
            "oppTrialScore": 31,
            "playerTotalScore": -1438,
            "oppTotalScore": 1068,
            "waitTime": 5827.265364492938,
            "responseTime": 1681165599756,
            "catchQuestion": "How many <b class=\"r\">red<\/b> marbles did your opponent report drawing? ",
            "catchKey": -1,
            "catchResponse": -1,
            "catchTime": 1681165536416,
            "trialTime": 0
        },
        {
            "exptPart": "trial",
            "trialNumber": 77,
            "roleCurrent": "receiver",
            "marblesSampled": 100,
            "probRed": 0.5,
            "practiceLambda": 5,
            "trialLambda": 8.1,
            "instructedLambda": "dishonest_big",
            "drawnRed": 58,
            "reportedRed": 68,
            "inferredRed": 9,
            "playerTrialScore": -49,
            "oppTrialScore": 0,
            "playerTotalScore": -1487,
            "oppTotalScore": 1068,
            "waitTime": 5372.306277234975,
            "responseTime": 1681165608480,
            "catchQuestion": "How many <b class=\"r\">red<\/b> marbles did your opponent report drawing? ",
            "catchKey": -1,
            "catchResponse": -1,
            "catchTime": 1681165536416,
            "trialTime": 0
        },
        {
            "exptPart": "trial",
            "trialNumber": 78,
            "roleCurrent": "receiver",
            "marblesSampled": 100,
            "probRed": 0.5,
            "practiceLambda": 5,
            "trialLambda": 8.1,
            "instructedLambda": "dishonest_big",
            "drawnRed": 63,
            "reportedRed": 69,
            "inferredRed": 90,
            "playerTrialScore": -27,
            "oppTrialScore": 27,
            "playerTotalScore": -1514,
            "oppTotalScore": 1095,
            "waitTime": 5171.8725157030385,
            "responseTime": 1681165617094,
            "catchQuestion": "How many <b class=\"r\">red<\/b> marbles did your opponent report drawing? ",
            "catchKey": -1,
            "catchResponse": -1,
            "catchTime": 1681165536416,
            "trialTime": 0
        },
        {
            "exptPart": "trial",
            "trialNumber": 79,
            "roleCurrent": "receiver",
            "marblesSampled": 100,
            "probRed": 0.5,
            "practiceLambda": 5,
            "trialLambda": 8.1,
            "instructedLambda": "dishonest_big",
            "drawnRed": 21,
            "reportedRed": 29,
            "inferredRed": 29,
            "playerTrialScore": -8,
            "oppTrialScore": 8,
            "playerTotalScore": -1522,
            "oppTotalScore": 1103,
            "waitTime": 5668.760761299469,
            "responseTime": 1681165625368,
            "catchQuestion": "How many <b class=\"r\">red<\/b> marbles did your opponent report drawing? ",
            "catchKey": -1,
            "catchResponse": -1,
            "catchTime": 1681165536416,
            "trialTime": 0
        },
        {
            "exptPart": "trial",
            "trialNumber": 80,
            "roleCurrent": "receiver",
            "marblesSampled": 100,
            "probRed": 0.5,
            "practiceLambda": 5,
            "trialLambda": 8.1,
            "instructedLambda": "dishonest_big",
            "drawnRed": 46,
            "reportedRed": 50,
            "inferredRed": 100,
            "playerTrialScore": -54,
            "oppTrialScore": 54,
            "playerTotalScore": -1576,
            "oppTotalScore": 1157,
            "waitTime": 5888.2564568989055,
            "responseTime": 1681165634153,
            "catchQuestion": "How many <b class=\"r\">red<\/b> marbles did your opponent report drawing? ",
            "catchKey": -1,
            "catchResponse": -1,
            "catchTime": 1681165634153,
            "trialTime": 0
        },
        {
            "exptPart": "trial",
            "trialNumber": 81,
            "roleCurrent": "receiver",
            "marblesSampled": 100,
            "probRed": 0.5,
            "practiceLambda": 5,
            "trialLambda": 8.1,
            "instructedLambda": "dishonest_big",
            "drawnRed": 71,
            "reportedRed": 81,
            "inferredRed": 0,
            "playerTrialScore": -71,
            "oppTrialScore": 0,
            "playerTotalScore": -1647,
            "oppTotalScore": 1157,
            "waitTime": 7234.052076618641,
            "responseTime": 1681165645259,
            "catchQuestion": "How many <b class=\"r\">red<\/b> marbles did your opponent report drawing? ",
            "catchKey": -1,
            "catchResponse": -1,
            "catchTime": 1681165634153,
            "trialTime": 0
        },
        {
            "exptPart": "trial",
            "trialNumber": 82,
            "roleCurrent": "receiver",
            "marblesSampled": 100,
            "probRed": 0.5,
            "practiceLambda": 5,
            "trialLambda": 8.1,
            "instructedLambda": "dishonest_big",
            "drawnRed": 54,
            "reportedRed": 62,
            "inferredRed": 0,
            "playerTrialScore": -54,
            "oppTrialScore": 0,
            "playerTotalScore": -1701,
            "oppTotalScore": 1157,
            "waitTime": 5861.12284616407,
            "responseTime": 1681165654561,
            "catchQuestion": "How many <b class=\"r\">red<\/b> marbles did your opponent report drawing? ",
            "catchKey": -1,
            "catchResponse": -1,
            "catchTime": 1681165634153,
            "trialTime": 0
        },
        {
            "exptPart": "trial",
            "trialNumber": 83,
            "roleCurrent": "receiver",
            "marblesSampled": 100,
            "probRed": 0.5,
            "practiceLambda": 5,
            "trialLambda": 8.1,
            "instructedLambda": "dishonest_big",
            "drawnRed": 60,
            "reportedRed": 67,
            "inferredRed": 67,
            "playerTrialScore": -7,
            "oppTrialScore": 7,
            "playerTotalScore": -1708,
            "oppTotalScore": 1164,
            "waitTime": 6012.608789165406,
            "responseTime": 1681165662864,
            "catchQuestion": "How many <b class=\"r\">red<\/b> marbles did your opponent report drawing? ",
            "catchKey": -1,
            "catchResponse": -1,
            "catchTime": 1681165634153,
            "trialTime": 0
        },
        {
            "exptPart": "trial",
            "trialNumber": 84,
            "roleCurrent": "receiver",
            "marblesSampled": 100,
            "probRed": 0.5,
            "practiceLambda": 5,
            "trialLambda": 8.1,
            "instructedLambda": "dishonest_big",
            "drawnRed": 28,
            "reportedRed": 38,
            "inferredRed": 59,
            "playerTrialScore": -31,
            "oppTrialScore": 31,
            "playerTotalScore": -1739,
            "oppTotalScore": 1195,
            "waitTime": 7263.262962538268,
            "responseTime": 1681165673876,
            "catchQuestion": "How many <b class=\"r\">red<\/b> marbles did your opponent report drawing? ",
            "catchKey": -1,
            "catchResponse": -1,
            "catchTime": 1681165634153,
            "trialTime": 0
        },
        {
            "exptPart": "trial",
            "trialNumber": 85,
            "roleCurrent": "receiver",
            "marblesSampled": 100,
            "probRed": 0.5,
            "practiceLambda": 5,
            "trialLambda": 8.1,
            "instructedLambda": "dishonest_big",
            "drawnRed": 18,
            "reportedRed": 24,
            "inferredRed": 24,
            "playerTrialScore": -6,
            "oppTrialScore": 6,
            "playerTotalScore": -1745,
            "oppTotalScore": 1201,
            "waitTime": 5164.387942455897,
            "responseTime": 1681165683209,
            "catchQuestion": "How many <b class=\"r\">red<\/b> marbles did your opponent report drawing? ",
            "catchKey": -1,
            "catchResponse": -1,
            "catchTime": 1681165634153,
            "trialTime": 0
        },
        {
            "exptPart": "trial",
            "trialNumber": 86,
            "roleCurrent": "receiver",
            "marblesSampled": 100,
            "probRed": 0.5,
            "practiceLambda": 5,
            "trialLambda": 8.1,
            "instructedLambda": "dishonest_big",
            "drawnRed": 55,
            "reportedRed": 66,
            "inferredRed": 66,
            "playerTrialScore": -11,
            "oppTrialScore": 11,
            "playerTotalScore": -1756,
            "oppTotalScore": 1212,
            "waitTime": 5420.569803288385,
            "responseTime": 1681165701194,
            "catchQuestion": "How many <b class=\"r\">red<\/b> marbles did your opponent report drawing? ",
            "catchKey": -1,
            "catchResponse": -1,
            "catchTime": 1681165634153,
            "trialTime": 0
        },
        {
            "exptPart": "trial",
            "trialNumber": 87,
            "roleCurrent": "receiver",
            "marblesSampled": 100,
            "probRed": 0.5,
            "practiceLambda": 5,
            "trialLambda": 8.1,
            "instructedLambda": "dishonest_big",
            "drawnRed": 47,
            "reportedRed": 57,
            "inferredRed": 57,
            "playerTrialScore": -10,
            "oppTrialScore": 10,
            "playerTotalScore": -1766,
            "oppTotalScore": 1222,
            "waitTime": 5938.0519169923045,
            "responseTime": 1681165717711,
            "catchQuestion": "How many <b class=\"r\">red<\/b> marbles did your opponent report drawing? ",
            "catchKey": 57,
            "catchResponse": 57,
            "catchTime": 1681165717711,
            "trialTime": 0
        },
        {
            "exptPart": "trial",
            "trialNumber": 88,
            "roleCurrent": "receiver",
            "marblesSampled": 100,
            "probRed": 0.5,
            "practiceLambda": 5,
            "trialLambda": 8.1,
            "instructedLambda": "dishonest_big",
            "drawnRed": 23,
            "reportedRed": 37,
            "inferredRed": 37,
            "playerTrialScore": -14,
            "oppTrialScore": 14,
            "playerTotalScore": -1780,
            "oppTotalScore": 1236,
            "waitTime": 6848.152859433057,
            "responseTime": 1681165737519,
            "catchQuestion": "How many <b class=\"r\">red<\/b> marbles did your opponent report drawing? ",
            "catchKey": 37,
            "catchResponse": 57,
            "catchTime": 1681165737519,
            "trialTime": 0
        },
        {
            "exptPart": "trial",
            "trialNumber": 89,
            "roleCurrent": "receiver",
            "marblesSampled": 100,
            "probRed": 0.5,
            "practiceLambda": 5,
            "trialLambda": 8.1,
            "instructedLambda": "dishonest_big",
            "drawnRed": 25,
            "reportedRed": 31,
            "inferredRed": 30,
            "playerTrialScore": -5,
            "oppTrialScore": 5,
            "playerTotalScore": -1785,
            "oppTotalScore": 1241,
            "waitTime": 6658.85048814123,
            "responseTime": 1681165768938,
            "catchQuestion": "How many <b class=\"r\">red<\/b> marbles did your opponent report drawing? ",
            "catchKey": -1,
            "catchResponse": -1,
            "catchTime": 1681165737519,
            "trialTime": 0
        },
        {
            "exptPart": "trial",
            "trialNumber": 90,
            "roleCurrent": "receiver",
            "marblesSampled": 100,
            "probRed": 0.5,
            "practiceLambda": 5,
            "trialLambda": 8.1,
            "instructedLambda": "dishonest_big",
            "drawnRed": 55,
            "reportedRed": 61,
            "inferredRed": 60,
            "playerTrialScore": -5,
            "oppTrialScore": 5,
            "playerTotalScore": -1790,
            "oppTotalScore": 1246,
            "waitTime": 5668.271358056098,
            "responseTime": 1681165786958,
            "catchQuestion": "How many <b class=\"r\">red<\/b> marbles did your opponent report drawing? ",
            "catchKey": -1,
            "catchResponse": -1,
            "catchTime": 1681165786958,
            "trialTime": 0
        },
        {
            "exptPart": "trial",
            "trialNumber": 91,
            "roleCurrent": "receiver",
            "marblesSampled": 100,
            "probRed": 0.5,
            "practiceLambda": 5,
            "trialLambda": 8.1,
            "instructedLambda": "dishonest_big",
            "drawnRed": 49,
            "reportedRed": 57,
            "inferredRed": 57,
            "playerTrialScore": -8,
            "oppTrialScore": 8,
            "playerTotalScore": -1798,
            "oppTotalScore": 1254,
            "waitTime": 7292.895247430109,
            "responseTime": 1681165803354,
            "catchQuestion": "How many <b class=\"r\">red<\/b> marbles did your opponent report drawing? ",
            "catchKey": -1,
            "catchResponse": -1,
            "catchTime": 1681165786958,
            "trialTime": 0
        },
        {
            "exptPart": "trial",
            "trialNumber": 92,
            "roleCurrent": "receiver",
            "marblesSampled": 100,
            "probRed": 0.5,
            "practiceLambda": 5,
            "trialLambda": 8.1,
            "instructedLambda": "dishonest_big",
            "drawnRed": 43,
            "reportedRed": 47,
            "inferredRed": 47,
            "playerTrialScore": -4,
            "oppTrialScore": 4,
            "playerTotalScore": -1802,
            "oppTotalScore": 1258,
            "waitTime": 7352.5567872073625,
            "responseTime": 1681165814420,
            "catchQuestion": "How many <b class=\"r\">red<\/b> marbles did your opponent report drawing? ",
            "catchKey": -1,
            "catchResponse": -1,
            "catchTime": 1681165786958,
            "trialTime": 0
        },
        {
            "exptPart": "trial",
            "trialNumber": 93,
            "roleCurrent": "receiver",
            "marblesSampled": 100,
            "probRed": 0.5,
            "practiceLambda": 5,
            "trialLambda": 8.1,
            "instructedLambda": "dishonest_big",
            "drawnRed": 75,
            "reportedRed": 83,
            "inferredRed": 54,
            "playerTrialScore": -21,
            "oppTrialScore": 0,
            "playerTotalScore": -1823,
            "oppTotalScore": 1258,
            "waitTime": 5819.103268092431,
            "responseTime": 1681165826546,
            "catchQuestion": "How many <b class=\"r\">red<\/b> marbles did your opponent report drawing? ",
            "catchKey": -1,
            "catchResponse": -1,
            "catchTime": 1681165786958,
            "trialTime": 0
        },
        {
            "exptPart": "trial",
            "trialNumber": 94,
            "roleCurrent": "receiver",
            "marblesSampled": 100,
            "probRed": 0.5,
            "practiceLambda": 5,
            "trialLambda": 8.1,
            "instructedLambda": "dishonest_big",
            "drawnRed": 66,
            "reportedRed": 78,
            "inferredRed": 78,
            "playerTrialScore": -12,
            "oppTrialScore": 12,
            "playerTotalScore": -1835,
            "oppTotalScore": 1270,
            "waitTime": 5752.535121509714,
            "responseTime": 1681165836420,
            "catchQuestion": "How many <b class=\"r\">red<\/b> marbles did your opponent report drawing? ",
            "catchKey": -1,
            "catchResponse": -1,
            "catchTime": 1681165786958,
            "trialTime": 0
        },
        {
            "exptPart": "trial",
            "trialNumber": 95,
            "roleCurrent": "receiver",
            "marblesSampled": 100,
            "probRed": 0.5,
            "practiceLambda": 5,
            "trialLambda": 8.1,
            "instructedLambda": "dishonest_big",
            "drawnRed": 66,
            "reportedRed": 73,
            "inferredRed": 7,
            "playerTrialScore": -59,
            "oppTrialScore": 0,
            "playerTotalScore": -1894,
            "oppTotalScore": 1270,
            "waitTime": 5480.110628695638,
            "responseTime": 1681165848501,
            "catchQuestion": "How many <b class=\"r\">red<\/b> marbles did your opponent report drawing? ",
            "catchKey": -1,
            "catchResponse": -1,
            "catchTime": 1681165786958,
            "trialTime": 0
        },
        {
            "exptPart": "trial",
            "trialNumber": 96,
            "roleCurrent": "receiver",
            "marblesSampled": 100,
            "probRed": 0.5,
            "practiceLambda": 5,
            "trialLambda": 8.1,
            "instructedLambda": "dishonest_big",
            "drawnRed": 54,
            "reportedRed": 64,
            "inferredRed": 64,
            "playerTrialScore": -10,
            "oppTrialScore": 10,
            "playerTotalScore": -1904,
            "oppTotalScore": 1280,
            "waitTime": 6238.420040778858,
            "responseTime": 1681165858587,
            "catchQuestion": "How many <b class=\"r\">red<\/b> marbles did your opponent report drawing? ",
            "catchKey": -1,
            "catchResponse": -1,
            "catchTime": 1681165786958,
            "trialTime": 0
        },
        {
            "exptPart": "trial",
            "trialNumber": 97,
            "roleCurrent": "receiver",
            "marblesSampled": 100,
            "probRed": 0.5,
            "practiceLambda": 5,
            "trialLambda": 8.1,
            "instructedLambda": "dishonest_big",
            "drawnRed": 18,
            "reportedRed": 21,
            "inferredRed": 21,
            "playerTrialScore": -3,
            "oppTrialScore": 3,
            "playerTotalScore": -1907,
            "oppTotalScore": 1283,
            "waitTime": 5622.648318929526,
            "responseTime": 1681165866155,
            "catchQuestion": "How many <b class=\"r\">red<\/b> marbles did your opponent report drawing? ",
            "catchKey": -1,
            "catchResponse": -1,
            "catchTime": 1681165786958,
            "trialTime": 0
        },
        {
            "exptPart": "trial",
            "trialNumber": 98,
            "roleCurrent": "receiver",
            "marblesSampled": 100,
            "probRed": 0.5,
            "practiceLambda": 5,
            "trialLambda": 8.1,
            "instructedLambda": "dishonest_big",
            "drawnRed": 88,
            "reportedRed": 92,
            "inferredRed": 92,
            "playerTrialScore": -4,
            "oppTrialScore": 4,
            "playerTotalScore": -1911,
            "oppTotalScore": 1287,
            "waitTime": 6762.796842098237,
            "responseTime": 1681165875592,
            "catchQuestion": "How many <b class=\"r\">red<\/b> marbles did your opponent report drawing? ",
            "catchKey": 92,
            "catchResponse": 92,
            "catchTime": 1681165875592,
            "trialTime": 0
        },
        {
            "exptPart": "trial",
            "trialNumber": 99,
            "roleCurrent": "receiver",
            "marblesSampled": 100,
            "probRed": 0.5,
            "practiceLambda": 5,
            "trialLambda": 8.1,
            "instructedLambda": "dishonest_big",
            "drawnRed": 70,
            "reportedRed": 85,
            "inferredRed": 65,
            "playerTrialScore": -5,
            "oppTrialScore": 0,
            "playerTotalScore": -1916,
            "oppTotalScore": 1287,
            "waitTime": 6632.042698278876,
            "responseTime": 1681165891329,
            "catchQuestion": "How many <b class=\"r\">red<\/b> marbles did your opponent report drawing? ",
            "catchKey": -1,
            "catchResponse": -1,
            "catchTime": 1681165875592,
            "trialTime": 0
        },
        {
            "exptPart": "trial",
            "trialNumber": 100,
            "roleCurrent": "receiver",
            "marblesSampled": 100,
            "probRed": 0.5,
            "practiceLambda": 5,
            "trialLambda": 8.1,
            "instructedLambda": "dishonest_big",
            "drawnRed": 59,
            "reportedRed": 67,
            "inferredRed": 67,
            "playerTrialScore": -8,
            "oppTrialScore": 8,
            "playerTotalScore": -1924,
            "oppTotalScore": 1295,
            "waitTime": 7225.998722136366,
            "responseTime": 1681165900796,
            "catchQuestion": "How many <b class=\"r\">red<\/b> marbles did your opponent report drawing? ",
            "catchKey": 67,
            "catchResponse": 67,
            "catchTime": 1681165900796,
            "trialTime": 0
        }
    ]
}