{
    "client": {
        "type": "sona",
        "experiment_id": 2228,
        "credit_token": "b315147ae43241ea9c65086cb510cfb7",
        "survey_code": "45727",
        "sid": "sona-45727",
        "window": {
            "width": 1440,
            "height": 821
        },
        "screen": {
            "width": 1440,
            "height": 900
        },
        "userAgent": "Mozilla\/5.0 (Macintosh; Intel Mac OS X 10_12_6) AppleWebKit\/537.36 (KHTML, like Gecko) Chrome\/103.0.0.0 Safari\/537.36",
        "score": 0,
        "bonus": 0
    },
    "expt": {
        "saveURL": "submit.simple.php",
        "trials": 100,
        "practiceTrials": 2,
        "marblesSampled": 100,
        "probRed": 0.5,
        "practiceLambdaAI": 5,
        "lambdaAI": 0.3,
        "roles": [
            "sender",
            "receiver"
        ],
        "cost": "unif",
        "goal": "over",
        "oppDishonesty": "honest",
        "catchTrials": [
            84,
            27,
            62,
            83,
            55,
            89,
            1,
            31,
            69,
            70
        ],
        "scoreTotal": {
            "player": -1162,
            "opp": 14
        },
        "sona": {
            "experiment_id": 2228,
            "credit_token": "b315147ae43241ea9c65086cb510cfb7"
        },
        "pilot": false,
        "debug": false
    },
    "trials": [
        {
            "exptPart": "practice",
            "trialNumber": 1,
            "roleCurrent": "sender",
            "marblesSampled": 100,
            "probRed": 0.5,
            "practiceLambda": 5,
            "trialLambda": 0.3,
            "instructedLambda": "honest",
            "drawnRed": 29,
            "reportedRed": 30,
            "inferredRed": 27,
            "playerTrialScore": 0,
            "oppTrialScore": -2,
            "playerTotalScore": 0,
            "oppTotalScore": -2,
            "waitTime": 2527.0291355927216,
            "responseTime": 1680799978953,
            "catchQuestion": "How many <b class=\"r\">red<\/b> marbles did you actually draw (before any changes)? ",
            "catchKey": 29,
            "catchResponse": 48,
            "catchTime": 1680799978954,
            "trialTime": 0
        },
        {
            "exptPart": "practice",
            "trialNumber": 2,
            "roleCurrent": "receiver",
            "marblesSampled": 100,
            "probRed": 0.5,
            "practiceLambda": 5,
            "trialLambda": 0.3,
            "instructedLambda": "honest",
            "drawnRed": 13,
            "reportedRed": 17,
            "inferredRed": 15,
            "playerTrialScore": -2,
            "oppTrialScore": 2,
            "playerTotalScore": -2,
            "oppTotalScore": 0,
            "waitTime": 7096.735627106028,
            "responseTime": 1680800019516,
            "catchQuestion": "How many <b class=\"r\">red<\/b> marbles did your opponent report drawing? ",
            "catchKey": 17,
            "catchResponse": 17,
            "catchTime": 1680800019516,
            "trialTime": 0
        },
        {
            "exptPart": "trial",
            "trialNumber": 1,
            "roleCurrent": "receiver",
            "marblesSampled": 100,
            "probRed": 0.5,
            "practiceLambda": 5,
            "trialLambda": 0.3,
            "instructedLambda": "honest",
            "drawnRed": 71,
            "reportedRed": 71,
            "inferredRed": 60,
            "playerTrialScore": -11,
            "oppTrialScore": 0,
            "playerTotalScore": -11,
            "oppTotalScore": 0,
            "waitTime": 6209.933775688614,
            "responseTime": 1680800045505,
            "catchQuestion": "How many <b class=\"r\">red<\/b> marbles did your opponent report drawing? ",
            "catchKey": -1,
            "catchResponse": -1,
            "catchTime": 1680800019516,
            "trialTime": 0
        },
        {
            "exptPart": "trial",
            "trialNumber": 2,
            "roleCurrent": "receiver",
            "marblesSampled": 100,
            "probRed": 0.5,
            "practiceLambda": 5,
            "trialLambda": 0.3,
            "instructedLambda": "honest",
            "drawnRed": 62,
            "reportedRed": 62,
            "inferredRed": 60,
            "playerTrialScore": -2,
            "oppTrialScore": 0,
            "playerTotalScore": -13,
            "oppTotalScore": 0,
            "waitTime": 6422.5090559041355,
            "responseTime": 1680800055038,
            "catchQuestion": "How many <b class=\"r\">red<\/b> marbles did your opponent report drawing? ",
            "catchKey": 62,
            "catchResponse": 62,
            "catchTime": 1680800055038,
            "trialTime": 0
        },
        {
            "exptPart": "trial",
            "trialNumber": 3,
            "roleCurrent": "receiver",
            "marblesSampled": 100,
            "probRed": 0.5,
            "practiceLambda": 5,
            "trialLambda": 0.3,
            "instructedLambda": "honest",
            "drawnRed": 32,
            "reportedRed": 33,
            "inferredRed": 35,
            "playerTrialScore": -3,
            "oppTrialScore": 3,
            "playerTotalScore": -16,
            "oppTotalScore": 3,
            "waitTime": 5418.784034388265,
            "responseTime": 1680800070708,
            "catchQuestion": "How many <b class=\"r\">red<\/b> marbles did your opponent report drawing? ",
            "catchKey": -1,
            "catchResponse": -1,
            "catchTime": 1680800055038,
            "trialTime": 0
        },
        {
            "exptPart": "trial",
            "trialNumber": 4,
            "roleCurrent": "receiver",
            "marblesSampled": 100,
            "probRed": 0.5,
            "practiceLambda": 5,
            "trialLambda": 0.3,
            "instructedLambda": "honest",
            "drawnRed": 39,
            "reportedRed": 39,
            "inferredRed": 35,
            "playerTrialScore": -4,
            "oppTrialScore": 0,
            "playerTotalScore": -20,
            "oppTotalScore": 3,
            "waitTime": 5357.696570067497,
            "responseTime": 1680800081310,
            "catchQuestion": "How many <b class=\"r\">red<\/b> marbles did your opponent report drawing? ",
            "catchKey": -1,
            "catchResponse": -1,
            "catchTime": 1680800055038,
            "trialTime": 0
        },
        {
            "exptPart": "trial",
            "trialNumber": 5,
            "roleCurrent": "receiver",
            "marblesSampled": 100,
            "probRed": 0.5,
            "practiceLambda": 5,
            "trialLambda": 0.3,
            "instructedLambda": "honest",
            "drawnRed": 61,
            "reportedRed": 62,
            "inferredRed": 60,
            "playerTrialScore": -1,
            "oppTrialScore": 0,
            "playerTotalScore": -21,
            "oppTotalScore": 3,
            "waitTime": 5470.927218181967,
            "responseTime": 1680800089905,
            "catchQuestion": "How many <b class=\"r\">red<\/b> marbles did your opponent report drawing? ",
            "catchKey": -1,
            "catchResponse": -1,
            "catchTime": 1680800055038,
            "trialTime": 0
        },
        {
            "exptPart": "trial",
            "trialNumber": 6,
            "roleCurrent": "receiver",
            "marblesSampled": 100,
            "probRed": 0.5,
            "practiceLambda": 5,
            "trialLambda": 0.3,
            "instructedLambda": "honest",
            "drawnRed": 94,
            "reportedRed": 95,
            "inferredRed": 69,
            "playerTrialScore": -25,
            "oppTrialScore": 0,
            "playerTotalScore": -46,
            "oppTotalScore": 3,
            "waitTime": 7146.563909912821,
            "responseTime": 1680800101519,
            "catchQuestion": "How many <b class=\"r\">red<\/b> marbles did your opponent report drawing? ",
            "catchKey": -1,
            "catchResponse": -1,
            "catchTime": 1680800055038,
            "trialTime": 0
        },
        {
            "exptPart": "trial",
            "trialNumber": 7,
            "roleCurrent": "receiver",
            "marblesSampled": 100,
            "probRed": 0.5,
            "practiceLambda": 5,
            "trialLambda": 0.3,
            "instructedLambda": "honest",
            "drawnRed": 59,
            "reportedRed": 60,
            "inferredRed": 56,
            "playerTrialScore": -3,
            "oppTrialScore": 0,
            "playerTotalScore": -49,
            "oppTotalScore": 3,
            "waitTime": 5712.490529819339,
            "responseTime": 1680800111192,
            "catchQuestion": "How many <b class=\"r\">red<\/b> marbles did your opponent report drawing? ",
            "catchKey": -1,
            "catchResponse": -1,
            "catchTime": 1680800055038,
            "trialTime": 0
        },
        {
            "exptPart": "trial",
            "trialNumber": 8,
            "roleCurrent": "receiver",
            "marblesSampled": 100,
            "probRed": 0.5,
            "practiceLambda": 5,
            "trialLambda": 0.3,
            "instructedLambda": "honest",
            "drawnRed": 22,
            "reportedRed": 22,
            "inferredRed": 19,
            "playerTrialScore": -3,
            "oppTrialScore": 0,
            "playerTotalScore": -52,
            "oppTotalScore": 3,
            "waitTime": 5601.631350112599,
            "responseTime": 1680800121034,
            "catchQuestion": "How many <b class=\"r\">red<\/b> marbles did your opponent report drawing? ",
            "catchKey": -1,
            "catchResponse": -1,
            "catchTime": 1680800055038,
            "trialTime": 0
        },
        {
            "exptPart": "trial",
            "trialNumber": 9,
            "roleCurrent": "receiver",
            "marblesSampled": 100,
            "probRed": 0.5,
            "practiceLambda": 5,
            "trialLambda": 0.3,
            "instructedLambda": "honest",
            "drawnRed": 31,
            "reportedRed": 31,
            "inferredRed": 39,
            "playerTrialScore": -8,
            "oppTrialScore": 8,
            "playerTotalScore": -60,
            "oppTotalScore": 11,
            "waitTime": 5934.3556083188705,
            "responseTime": 1680800131607,
            "catchQuestion": "How many <b class=\"r\">red<\/b> marbles did your opponent report drawing? ",
            "catchKey": -1,
            "catchResponse": -1,
            "catchTime": 1680800055038,
            "trialTime": 0
        },
        {
            "exptPart": "trial",
            "trialNumber": 10,
            "roleCurrent": "receiver",
            "marblesSampled": 100,
            "probRed": 0.5,
            "practiceLambda": 5,
            "trialLambda": 0.3,
            "instructedLambda": "honest",
            "drawnRed": 49,
            "reportedRed": 49,
            "inferredRed": 37,
            "playerTrialScore": -12,
            "oppTrialScore": 0,
            "playerTotalScore": -72,
            "oppTotalScore": 11,
            "waitTime": 6206.364248939794,
            "responseTime": 1680800141970,
            "catchQuestion": "How many <b class=\"r\">red<\/b> marbles did your opponent report drawing? ",
            "catchKey": -1,
            "catchResponse": -1,
            "catchTime": 1680800141970,
            "trialTime": 0
        },
        {
            "exptPart": "trial",
            "trialNumber": 11,
            "roleCurrent": "receiver",
            "marblesSampled": 100,
            "probRed": 0.5,
            "practiceLambda": 5,
            "trialLambda": 0.3,
            "instructedLambda": "honest",
            "drawnRed": 28,
            "reportedRed": 30,
            "inferredRed": 15,
            "playerTrialScore": -13,
            "oppTrialScore": 0,
            "playerTotalScore": -85,
            "oppTotalScore": 11,
            "waitTime": 7172.037126535229,
            "responseTime": 1680800157873,
            "catchQuestion": "How many <b class=\"r\">red<\/b> marbles did your opponent report drawing? ",
            "catchKey": -1,
            "catchResponse": -1,
            "catchTime": 1680800141970,
            "trialTime": 0
        },
        {
            "exptPart": "trial",
            "trialNumber": 12,
            "roleCurrent": "receiver",
            "marblesSampled": 100,
            "probRed": 0.5,
            "practiceLambda": 5,
            "trialLambda": 0.3,
            "instructedLambda": "honest",
            "drawnRed": 13,
            "reportedRed": 14,
            "inferredRed": 10,
            "playerTrialScore": -3,
            "oppTrialScore": 0,
            "playerTotalScore": -88,
            "oppTotalScore": 11,
            "waitTime": 6236.050232837164,
            "responseTime": 1680800167937,
            "catchQuestion": "How many <b class=\"r\">red<\/b> marbles did your opponent report drawing? ",
            "catchKey": -1,
            "catchResponse": -1,
            "catchTime": 1680800141970,
            "trialTime": 0
        },
        {
            "exptPart": "trial",
            "trialNumber": 13,
            "roleCurrent": "receiver",
            "marblesSampled": 100,
            "probRed": 0.5,
            "practiceLambda": 5,
            "trialLambda": 0.3,
            "instructedLambda": "honest",
            "drawnRed": 30,
            "reportedRed": 31,
            "inferredRed": 21,
            "playerTrialScore": -9,
            "oppTrialScore": 0,
            "playerTotalScore": -97,
            "oppTotalScore": 11,
            "waitTime": 5786.020506917439,
            "responseTime": 1680800177572,
            "catchQuestion": "How many <b class=\"r\">red<\/b> marbles did your opponent report drawing? ",
            "catchKey": -1,
            "catchResponse": -1,
            "catchTime": 1680800141970,
            "trialTime": 0
        },
        {
            "exptPart": "trial",
            "trialNumber": 14,
            "roleCurrent": "receiver",
            "marblesSampled": 100,
            "probRed": 0.5,
            "practiceLambda": 5,
            "trialLambda": 0.3,
            "instructedLambda": "honest",
            "drawnRed": 56,
            "reportedRed": 56,
            "inferredRed": 45,
            "playerTrialScore": -11,
            "oppTrialScore": 0,
            "playerTotalScore": -108,
            "oppTotalScore": 11,
            "waitTime": 5276.317362795493,
            "responseTime": 1680800187516,
            "catchQuestion": "How many <b class=\"r\">red<\/b> marbles did your opponent report drawing? ",
            "catchKey": -1,
            "catchResponse": -1,
            "catchTime": 1680800141970,
            "trialTime": 0
        },
        {
            "exptPart": "trial",
            "trialNumber": 15,
            "roleCurrent": "receiver",
            "marblesSampled": 100,
            "probRed": 0.5,
            "practiceLambda": 5,
            "trialLambda": 0.3,
            "instructedLambda": "honest",
            "drawnRed": 48,
            "reportedRed": 49,
            "inferredRed": 30,
            "playerTrialScore": -18,
            "oppTrialScore": 0,
            "playerTotalScore": -126,
            "oppTotalScore": 11,
            "waitTime": 7193.299135086974,
            "responseTime": 1680800198826,
            "catchQuestion": "How many <b class=\"r\">red<\/b> marbles did your opponent report drawing? ",
            "catchKey": -1,
            "catchResponse": -1,
            "catchTime": 1680800141970,
            "trialTime": 0
        },
        {
            "exptPart": "trial",
            "trialNumber": 16,
            "roleCurrent": "receiver",
            "marblesSampled": 100,
            "probRed": 0.5,
            "practiceLambda": 5,
            "trialLambda": 0.3,
            "instructedLambda": "honest",
            "drawnRed": 54,
            "reportedRed": 55,
            "inferredRed": 41,
            "playerTrialScore": -13,
            "oppTrialScore": 0,
            "playerTotalScore": -139,
            "oppTotalScore": 11,
            "waitTime": 5638.924444043274,
            "responseTime": 1680800208296,
            "catchQuestion": "How many <b class=\"r\">red<\/b> marbles did your opponent report drawing? ",
            "catchKey": -1,
            "catchResponse": -1,
            "catchTime": 1680800141970,
            "trialTime": 0
        },
        {
            "exptPart": "trial",
            "trialNumber": 17,
            "roleCurrent": "receiver",
            "marblesSampled": 100,
            "probRed": 0.5,
            "practiceLambda": 5,
            "trialLambda": 0.3,
            "instructedLambda": "honest",
            "drawnRed": 71,
            "reportedRed": 71,
            "inferredRed": 56,
            "playerTrialScore": -15,
            "oppTrialScore": 0,
            "playerTotalScore": -154,
            "oppTotalScore": 11,
            "waitTime": 5586.142364150637,
            "responseTime": 1680800217254,
            "catchQuestion": "How many <b class=\"r\">red<\/b> marbles did your opponent report drawing? ",
            "catchKey": -1,
            "catchResponse": -1,
            "catchTime": 1680800141970,
            "trialTime": 0
        },
        {
            "exptPart": "trial",
            "trialNumber": 18,
            "roleCurrent": "receiver",
            "marblesSampled": 100,
            "probRed": 0.5,
            "practiceLambda": 5,
            "trialLambda": 0.3,
            "instructedLambda": "honest",
            "drawnRed": 45,
            "reportedRed": 45,
            "inferredRed": 34,
            "playerTrialScore": -11,
            "oppTrialScore": 0,
            "playerTotalScore": -165,
            "oppTotalScore": 11,
            "waitTime": 5271.1305619088835,
            "responseTime": 1680800225847,
            "catchQuestion": "How many <b class=\"r\">red<\/b> marbles did your opponent report drawing? ",
            "catchKey": -1,
            "catchResponse": -1,
            "catchTime": 1680800141970,
            "trialTime": 0
        },
        {
            "exptPart": "trial",
            "trialNumber": 19,
            "roleCurrent": "receiver",
            "marblesSampled": 100,
            "probRed": 0.5,
            "practiceLambda": 5,
            "trialLambda": 0.3,
            "instructedLambda": "honest",
            "drawnRed": 45,
            "reportedRed": 45,
            "inferredRed": 37,
            "playerTrialScore": -8,
            "oppTrialScore": 0,
            "playerTotalScore": -173,
            "oppTotalScore": 11,
            "waitTime": 5282.41379309504,
            "responseTime": 1680800235501,
            "catchQuestion": "How many <b class=\"r\">red<\/b> marbles did your opponent report drawing? ",
            "catchKey": -1,
            "catchResponse": -1,
            "catchTime": 1680800141970,
            "trialTime": 0
        },
        {
            "exptPart": "trial",
            "trialNumber": 20,
            "roleCurrent": "receiver",
            "marblesSampled": 100,
            "probRed": 0.5,
            "practiceLambda": 5,
            "trialLambda": 0.3,
            "instructedLambda": "honest",
            "drawnRed": 63,
            "reportedRed": 64,
            "inferredRed": 53,
            "playerTrialScore": -10,
            "oppTrialScore": 0,
            "playerTotalScore": -183,
            "oppTotalScore": 11,
            "waitTime": 5793.079379294125,
            "responseTime": 1680800245498,
            "catchQuestion": "How many <b class=\"r\">red<\/b> marbles did your opponent report drawing? ",
            "catchKey": -1,
            "catchResponse": -1,
            "catchTime": 1680800245499,
            "trialTime": 0
        },
        {
            "exptPart": "trial",
            "trialNumber": 21,
            "roleCurrent": "receiver",
            "marblesSampled": 100,
            "probRed": 0.5,
            "practiceLambda": 5,
            "trialLambda": 0.3,
            "instructedLambda": "honest",
            "drawnRed": 49,
            "reportedRed": 49,
            "inferredRed": 29,
            "playerTrialScore": -20,
            "oppTrialScore": 0,
            "playerTotalScore": -203,
            "oppTotalScore": 11,
            "waitTime": 5704.368688852437,
            "responseTime": 1680800260982,
            "catchQuestion": "How many <b class=\"r\">red<\/b> marbles did your opponent report drawing? ",
            "catchKey": -1,
            "catchResponse": -1,
            "catchTime": 1680800245499,
            "trialTime": 0
        },
        {
            "exptPart": "trial",
            "trialNumber": 22,
            "roleCurrent": "receiver",
            "marblesSampled": 100,
            "probRed": 0.5,
            "practiceLambda": 5,
            "trialLambda": 0.3,
            "instructedLambda": "honest",
            "drawnRed": 53,
            "reportedRed": 53,
            "inferredRed": 29,
            "playerTrialScore": -24,
            "oppTrialScore": 0,
            "playerTotalScore": -227,
            "oppTotalScore": 11,
            "waitTime": 6640.539173641275,
            "responseTime": 1680800274725,
            "catchQuestion": "How many <b class=\"r\">red<\/b> marbles did your opponent report drawing? ",
            "catchKey": -1,
            "catchResponse": -1,
            "catchTime": 1680800245499,
            "trialTime": 0
        },
        {
            "exptPart": "trial",
            "trialNumber": 23,
            "roleCurrent": "receiver",
            "marblesSampled": 100,
            "probRed": 0.5,
            "practiceLambda": 5,
            "trialLambda": 0.3,
            "instructedLambda": "honest",
            "drawnRed": 19,
            "reportedRed": 19,
            "inferredRed": 7,
            "playerTrialScore": -12,
            "oppTrialScore": 0,
            "playerTotalScore": -239,
            "oppTotalScore": 11,
            "waitTime": 5982.1189539567185,
            "responseTime": 1680800283955,
            "catchQuestion": "How many <b class=\"r\">red<\/b> marbles did your opponent report drawing? ",
            "catchKey": -1,
            "catchResponse": -1,
            "catchTime": 1680800245499,
            "trialTime": 0
        },
        {
            "exptPart": "trial",
            "trialNumber": 24,
            "roleCurrent": "receiver",
            "marblesSampled": 100,
            "probRed": 0.5,
            "practiceLambda": 5,
            "trialLambda": 0.3,
            "instructedLambda": "honest",
            "drawnRed": 65,
            "reportedRed": 66,
            "inferredRed": 48,
            "playerTrialScore": -17,
            "oppTrialScore": 0,
            "playerTotalScore": -256,
            "oppTotalScore": 11,
            "waitTime": 5358.974535871584,
            "responseTime": 1680800293205,
            "catchQuestion": "How many <b class=\"r\">red<\/b> marbles did your opponent report drawing? ",
            "catchKey": -1,
            "catchResponse": -1,
            "catchTime": 1680800245499,
            "trialTime": 0
        },
        {
            "exptPart": "trial",
            "trialNumber": 25,
            "roleCurrent": "receiver",
            "marblesSampled": 100,
            "probRed": 0.5,
            "practiceLambda": 5,
            "trialLambda": 0.3,
            "instructedLambda": "honest",
            "drawnRed": 62,
            "reportedRed": 62,
            "inferredRed": 57,
            "playerTrialScore": -5,
            "oppTrialScore": 0,
            "playerTotalScore": -261,
            "oppTotalScore": 11,
            "waitTime": 5946.456284921668,
            "responseTime": 1680800302532,
            "catchQuestion": "How many <b class=\"r\">red<\/b> marbles did your opponent report drawing? ",
            "catchKey": -1,
            "catchResponse": -1,
            "catchTime": 1680800245499,
            "trialTime": 0
        },
        {
            "exptPart": "trial",
            "trialNumber": 26,
            "roleCurrent": "receiver",
            "marblesSampled": 100,
            "probRed": 0.5,
            "practiceLambda": 5,
            "trialLambda": 0.3,
            "instructedLambda": "honest",
            "drawnRed": 40,
            "reportedRed": 40,
            "inferredRed": 28,
            "playerTrialScore": -12,
            "oppTrialScore": 0,
            "playerTotalScore": -273,
            "oppTotalScore": 11,
            "waitTime": 6445.161409610833,
            "responseTime": 1680800313041,
            "catchQuestion": "How many <b class=\"r\">red<\/b> marbles did your opponent report drawing? ",
            "catchKey": -1,
            "catchResponse": -1,
            "catchTime": 1680800245499,
            "trialTime": 0
        },
        {
            "exptPart": "trial",
            "trialNumber": 27,
            "roleCurrent": "receiver",
            "marblesSampled": 100,
            "probRed": 0.5,
            "practiceLambda": 5,
            "trialLambda": 0.3,
            "instructedLambda": "honest",
            "drawnRed": 66,
            "reportedRed": 66,
            "inferredRed": 39,
            "playerTrialScore": -27,
            "oppTrialScore": 0,
            "playerTotalScore": -300,
            "oppTotalScore": 11,
            "waitTime": 6094.985219797596,
            "responseTime": 1680800322841,
            "catchQuestion": "How many <b class=\"r\">red<\/b> marbles did your opponent report drawing? ",
            "catchKey": -1,
            "catchResponse": -1,
            "catchTime": 1680800245499,
            "trialTime": 0
        },
        {
            "exptPart": "trial",
            "trialNumber": 28,
            "roleCurrent": "receiver",
            "marblesSampled": 100,
            "probRed": 0.5,
            "practiceLambda": 5,
            "trialLambda": 0.3,
            "instructedLambda": "honest",
            "drawnRed": 57,
            "reportedRed": 58,
            "inferredRed": 27,
            "playerTrialScore": -30,
            "oppTrialScore": 0,
            "playerTotalScore": -330,
            "oppTotalScore": 11,
            "waitTime": 6998.1267337290465,
            "responseTime": 1680800332921,
            "catchQuestion": "How many <b class=\"r\">red<\/b> marbles did your opponent report drawing? ",
            "catchKey": 58,
            "catchResponse": 58,
            "catchTime": 1680800332921,
            "trialTime": 0
        },
        {
            "exptPart": "trial",
            "trialNumber": 29,
            "roleCurrent": "receiver",
            "marblesSampled": 100,
            "probRed": 0.5,
            "practiceLambda": 5,
            "trialLambda": 0.3,
            "instructedLambda": "honest",
            "drawnRed": 51,
            "reportedRed": 51,
            "inferredRed": 37,
            "playerTrialScore": -14,
            "oppTrialScore": 0,
            "playerTotalScore": -344,
            "oppTotalScore": 11,
            "waitTime": 5652.715455924402,
            "responseTime": 1680800347284,
            "catchQuestion": "How many <b class=\"r\">red<\/b> marbles did your opponent report drawing? ",
            "catchKey": -1,
            "catchResponse": -1,
            "catchTime": 1680800332921,
            "trialTime": 0
        },
        {
            "exptPart": "trial",
            "trialNumber": 30,
            "roleCurrent": "receiver",
            "marblesSampled": 100,
            "probRed": 0.5,
            "practiceLambda": 5,
            "trialLambda": 0.3,
            "instructedLambda": "honest",
            "drawnRed": 64,
            "reportedRed": 64,
            "inferredRed": 28,
            "playerTrialScore": -36,
            "oppTrialScore": 0,
            "playerTotalScore": -380,
            "oppTotalScore": 11,
            "waitTime": 6031.531042426351,
            "responseTime": 1680800357129,
            "catchQuestion": "How many <b class=\"r\">red<\/b> marbles did your opponent report drawing? ",
            "catchKey": -1,
            "catchResponse": -1,
            "catchTime": 1680800357129,
            "trialTime": 0
        },
        {
            "exptPart": "trial",
            "trialNumber": 31,
            "roleCurrent": "receiver",
            "marblesSampled": 100,
            "probRed": 0.5,
            "practiceLambda": 5,
            "trialLambda": 0.3,
            "instructedLambda": "honest",
            "drawnRed": 70,
            "reportedRed": 70,
            "inferredRed": 54,
            "playerTrialScore": -16,
            "oppTrialScore": 0,
            "playerTotalScore": -396,
            "oppTotalScore": 11,
            "waitTime": 5891.579366936781,
            "responseTime": 1680800367858,
            "catchQuestion": "How many <b class=\"r\">red<\/b> marbles did your opponent report drawing? ",
            "catchKey": -1,
            "catchResponse": -1,
            "catchTime": 1680800357129,
            "trialTime": 0
        },
        {
            "exptPart": "trial",
            "trialNumber": 32,
            "roleCurrent": "receiver",
            "marblesSampled": 100,
            "probRed": 0.5,
            "practiceLambda": 5,
            "trialLambda": 0.3,
            "instructedLambda": "honest",
            "drawnRed": 59,
            "reportedRed": 60,
            "inferredRed": 48,
            "playerTrialScore": -11,
            "oppTrialScore": 0,
            "playerTotalScore": -407,
            "oppTotalScore": 11,
            "waitTime": 6009.867403330018,
            "responseTime": 1680800377438,
            "catchQuestion": "How many <b class=\"r\">red<\/b> marbles did your opponent report drawing? ",
            "catchKey": 60,
            "catchResponse": 60,
            "catchTime": 1680800377438,
            "trialTime": 0
        },
        {
            "exptPart": "trial",
            "trialNumber": 33,
            "roleCurrent": "receiver",
            "marblesSampled": 100,
            "probRed": 0.5,
            "practiceLambda": 5,
            "trialLambda": 0.3,
            "instructedLambda": "honest",
            "drawnRed": 25,
            "reportedRed": 26,
            "inferredRed": 11,
            "playerTrialScore": -14,
            "oppTrialScore": 0,
            "playerTotalScore": -421,
            "oppTotalScore": 11,
            "waitTime": 5672.631119039308,
            "responseTime": 1680800390967,
            "catchQuestion": "How many <b class=\"r\">red<\/b> marbles did your opponent report drawing? ",
            "catchKey": -1,
            "catchResponse": -1,
            "catchTime": 1680800377438,
            "trialTime": 0
        },
        {
            "exptPart": "trial",
            "trialNumber": 34,
            "roleCurrent": "receiver",
            "marblesSampled": 100,
            "probRed": 0.5,
            "practiceLambda": 5,
            "trialLambda": 0.3,
            "instructedLambda": "honest",
            "drawnRed": 23,
            "reportedRed": 24,
            "inferredRed": 12,
            "playerTrialScore": -11,
            "oppTrialScore": 0,
            "playerTotalScore": -432,
            "oppTotalScore": 11,
            "waitTime": 5361.843424538938,
            "responseTime": 1680800400863,
            "catchQuestion": "How many <b class=\"r\">red<\/b> marbles did your opponent report drawing? ",
            "catchKey": -1,
            "catchResponse": -1,
            "catchTime": 1680800377438,
            "trialTime": 0
        },
        {
            "exptPart": "trial",
            "trialNumber": 35,
            "roleCurrent": "receiver",
            "marblesSampled": 100,
            "probRed": 0.5,
            "practiceLambda": 5,
            "trialLambda": 0.3,
            "instructedLambda": "honest",
            "drawnRed": 49,
            "reportedRed": 49,
            "inferredRed": 32,
            "playerTrialScore": -17,
            "oppTrialScore": 0,
            "playerTotalScore": -449,
            "oppTotalScore": 11,
            "waitTime": 6178.961122546269,
            "responseTime": 1680800410209,
            "catchQuestion": "How many <b class=\"r\">red<\/b> marbles did your opponent report drawing? ",
            "catchKey": -1,
            "catchResponse": -1,
            "catchTime": 1680800377438,
            "trialTime": 0
        },
        {
            "exptPart": "trial",
            "trialNumber": 36,
            "roleCurrent": "receiver",
            "marblesSampled": 100,
            "probRed": 0.5,
            "practiceLambda": 5,
            "trialLambda": 0.3,
            "instructedLambda": "honest",
            "drawnRed": 13,
            "reportedRed": 13,
            "inferredRed": 9,
            "playerTrialScore": -4,
            "oppTrialScore": 0,
            "playerTotalScore": -453,
            "oppTotalScore": 11,
            "waitTime": 5458.4527715936865,
            "responseTime": 1680800421421,
            "catchQuestion": "How many <b class=\"r\">red<\/b> marbles did your opponent report drawing? ",
            "catchKey": -1,
            "catchResponse": -1,
            "catchTime": 1680800377438,
            "trialTime": 0
        },
        {
            "exptPart": "trial",
            "trialNumber": 37,
            "roleCurrent": "receiver",
            "marblesSampled": 100,
            "probRed": 0.5,
            "practiceLambda": 5,
            "trialLambda": 0.3,
            "instructedLambda": "honest",
            "drawnRed": 46,
            "reportedRed": 48,
            "inferredRed": 35,
            "playerTrialScore": -11,
            "oppTrialScore": 0,
            "playerTotalScore": -464,
            "oppTotalScore": 11,
            "waitTime": 5255.183887292656,
            "responseTime": 1680800430547,
            "catchQuestion": "How many <b class=\"r\">red<\/b> marbles did your opponent report drawing? ",
            "catchKey": -1,
            "catchResponse": -1,
            "catchTime": 1680800377438,
            "trialTime": 0
        },
        {
            "exptPart": "trial",
            "trialNumber": 38,
            "roleCurrent": "receiver",
            "marblesSampled": 100,
            "probRed": 0.5,
            "practiceLambda": 5,
            "trialLambda": 0.3,
            "instructedLambda": "honest",
            "drawnRed": 67,
            "reportedRed": 67,
            "inferredRed": 43,
            "playerTrialScore": -24,
            "oppTrialScore": 0,
            "playerTotalScore": -488,
            "oppTotalScore": 11,
            "waitTime": 7287.904613059996,
            "responseTime": 1680800441653,
            "catchQuestion": "How many <b class=\"r\">red<\/b> marbles did your opponent report drawing? ",
            "catchKey": -1,
            "catchResponse": -1,
            "catchTime": 1680800377438,
            "trialTime": 0
        },
        {
            "exptPart": "trial",
            "trialNumber": 39,
            "roleCurrent": "receiver",
            "marblesSampled": 100,
            "probRed": 0.5,
            "practiceLambda": 5,
            "trialLambda": 0.3,
            "instructedLambda": "honest",
            "drawnRed": 62,
            "reportedRed": 62,
            "inferredRed": 45,
            "playerTrialScore": -17,
            "oppTrialScore": 0,
            "playerTotalScore": -505,
            "oppTotalScore": 11,
            "waitTime": 7357.924973265135,
            "responseTime": 1680800452294,
            "catchQuestion": "How many <b class=\"r\">red<\/b> marbles did your opponent report drawing? ",
            "catchKey": -1,
            "catchResponse": -1,
            "catchTime": 1680800377438,
            "trialTime": 0
        },
        {
            "exptPart": "trial",
            "trialNumber": 40,
            "roleCurrent": "receiver",
            "marblesSampled": 100,
            "probRed": 0.5,
            "practiceLambda": 5,
            "trialLambda": 0.3,
            "instructedLambda": "honest",
            "drawnRed": 79,
            "reportedRed": 80,
            "inferredRed": 60,
            "playerTrialScore": -19,
            "oppTrialScore": 0,
            "playerTotalScore": -524,
            "oppTotalScore": 11,
            "waitTime": 6292.262398434571,
            "responseTime": 1680800462354,
            "catchQuestion": "How many <b class=\"r\">red<\/b> marbles did your opponent report drawing? ",
            "catchKey": -1,
            "catchResponse": -1,
            "catchTime": 1680800462354,
            "trialTime": 0
        },
        {
            "exptPart": "trial",
            "trialNumber": 41,
            "roleCurrent": "receiver",
            "marblesSampled": 100,
            "probRed": 0.5,
            "practiceLambda": 5,
            "trialLambda": 0.3,
            "instructedLambda": "honest",
            "drawnRed": 5,
            "reportedRed": 6,
            "inferredRed": 5,
            "playerTrialScore": 0,
            "oppTrialScore": 0,
            "playerTotalScore": -524,
            "oppTotalScore": 11,
            "waitTime": 6947.132198599473,
            "responseTime": 1680800474382,
            "catchQuestion": "How many <b class=\"r\">red<\/b> marbles did your opponent report drawing? ",
            "catchKey": -1,
            "catchResponse": -1,
            "catchTime": 1680800462354,
            "trialTime": 0
        },
        {
            "exptPart": "trial",
            "trialNumber": 42,
            "roleCurrent": "receiver",
            "marblesSampled": 100,
            "probRed": 0.5,
            "practiceLambda": 5,
            "trialLambda": 0.3,
            "instructedLambda": "honest",
            "drawnRed": 25,
            "reportedRed": 25,
            "inferredRed": 17,
            "playerTrialScore": -8,
            "oppTrialScore": 0,
            "playerTotalScore": -532,
            "oppTotalScore": 11,
            "waitTime": 6825.205619553712,
            "responseTime": 1680800485781,
            "catchQuestion": "How many <b class=\"r\">red<\/b> marbles did your opponent report drawing? ",
            "catchKey": -1,
            "catchResponse": -1,
            "catchTime": 1680800462354,
            "trialTime": 0
        },
        {
            "exptPart": "trial",
            "trialNumber": 43,
            "roleCurrent": "receiver",
            "marblesSampled": 100,
            "probRed": 0.5,
            "practiceLambda": 5,
            "trialLambda": 0.3,
            "instructedLambda": "honest",
            "drawnRed": 19,
            "reportedRed": 20,
            "inferredRed": 10,
            "playerTrialScore": -9,
            "oppTrialScore": 0,
            "playerTotalScore": -541,
            "oppTotalScore": 11,
            "waitTime": 5493.7644413291855,
            "responseTime": 1680800495051,
            "catchQuestion": "How many <b class=\"r\">red<\/b> marbles did your opponent report drawing? ",
            "catchKey": -1,
            "catchResponse": -1,
            "catchTime": 1680800462354,
            "trialTime": 0
        },
        {
            "exptPart": "trial",
            "trialNumber": 44,
            "roleCurrent": "receiver",
            "marblesSampled": 100,
            "probRed": 0.5,
            "practiceLambda": 5,
            "trialLambda": 0.3,
            "instructedLambda": "honest",
            "drawnRed": 29,
            "reportedRed": 29,
            "inferredRed": 19,
            "playerTrialScore": -10,
            "oppTrialScore": 0,
            "playerTotalScore": -551,
            "oppTotalScore": 11,
            "waitTime": 7357.90276400066,
            "responseTime": 1680800506095,
            "catchQuestion": "How many <b class=\"r\">red<\/b> marbles did your opponent report drawing? ",
            "catchKey": -1,
            "catchResponse": -1,
            "catchTime": 1680800462354,
            "trialTime": 0
        },
        {
            "exptPart": "trial",
            "trialNumber": 45,
            "roleCurrent": "receiver",
            "marblesSampled": 100,
            "probRed": 0.5,
            "practiceLambda": 5,
            "trialLambda": 0.3,
            "instructedLambda": "honest",
            "drawnRed": 69,
            "reportedRed": 69,
            "inferredRed": 54,
            "playerTrialScore": -15,
            "oppTrialScore": 0,
            "playerTotalScore": -566,
            "oppTotalScore": 11,
            "waitTime": 5706.229542643281,
            "responseTime": 1680800515889,
            "catchQuestion": "How many <b class=\"r\">red<\/b> marbles did your opponent report drawing? ",
            "catchKey": -1,
            "catchResponse": -1,
            "catchTime": 1680800462354,
            "trialTime": 0
        },
        {
            "exptPart": "trial",
            "trialNumber": 46,
            "roleCurrent": "receiver",
            "marblesSampled": 100,
            "probRed": 0.5,
            "practiceLambda": 5,
            "trialLambda": 0.3,
            "instructedLambda": "honest",
            "drawnRed": 35,
            "reportedRed": 35,
            "inferredRed": 28,
            "playerTrialScore": -7,
            "oppTrialScore": 0,
            "playerTotalScore": -573,
            "oppTotalScore": 11,
            "waitTime": 6282.817045993223,
            "responseTime": 1680800525062,
            "catchQuestion": "How many <b class=\"r\">red<\/b> marbles did your opponent report drawing? ",
            "catchKey": -1,
            "catchResponse": -1,
            "catchTime": 1680800462354,
            "trialTime": 0
        },
        {
            "exptPart": "trial",
            "trialNumber": 47,
            "roleCurrent": "receiver",
            "marblesSampled": 100,
            "probRed": 0.5,
            "practiceLambda": 5,
            "trialLambda": 0.3,
            "instructedLambda": "honest",
            "drawnRed": 20,
            "reportedRed": 20,
            "inferredRed": 12,
            "playerTrialScore": -8,
            "oppTrialScore": 0,
            "playerTotalScore": -581,
            "oppTotalScore": 11,
            "waitTime": 7245.24529628213,
            "responseTime": 1680800534871,
            "catchQuestion": "How many <b class=\"r\">red<\/b> marbles did your opponent report drawing? ",
            "catchKey": -1,
            "catchResponse": -1,
            "catchTime": 1680800462354,
            "trialTime": 0
        },
        {
            "exptPart": "trial",
            "trialNumber": 48,
            "roleCurrent": "receiver",
            "marblesSampled": 100,
            "probRed": 0.5,
            "practiceLambda": 5,
            "trialLambda": 0.3,
            "instructedLambda": "honest",
            "drawnRed": 67,
            "reportedRed": 67,
            "inferredRed": 56,
            "playerTrialScore": -11,
            "oppTrialScore": 0,
            "playerTotalScore": -592,
            "oppTotalScore": 11,
            "waitTime": 6531.462795705421,
            "responseTime": 1680800543909,
            "catchQuestion": "How many <b class=\"r\">red<\/b> marbles did your opponent report drawing? ",
            "catchKey": -1,
            "catchResponse": -1,
            "catchTime": 1680800462354,
            "trialTime": 0
        },
        {
            "exptPart": "trial",
            "trialNumber": 49,
            "roleCurrent": "receiver",
            "marblesSampled": 100,
            "probRed": 0.5,
            "practiceLambda": 5,
            "trialLambda": 0.3,
            "instructedLambda": "honest",
            "drawnRed": 84,
            "reportedRed": 85,
            "inferredRed": 56,
            "playerTrialScore": -28,
            "oppTrialScore": 0,
            "playerTotalScore": -620,
            "oppTotalScore": 11,
            "waitTime": 5693.138067250255,
            "responseTime": 1680800552219,
            "catchQuestion": "How many <b class=\"r\">red<\/b> marbles did your opponent report drawing? ",
            "catchKey": -1,
            "catchResponse": -1,
            "catchTime": 1680800462354,
            "trialTime": 0
        },
        {
            "exptPart": "trial",
            "trialNumber": 50,
            "roleCurrent": "receiver",
            "marblesSampled": 100,
            "probRed": 0.5,
            "practiceLambda": 5,
            "trialLambda": 0.3,
            "instructedLambda": "honest",
            "drawnRed": 75,
            "reportedRed": 75,
            "inferredRed": 67,
            "playerTrialScore": -8,
            "oppTrialScore": 0,
            "playerTotalScore": -628,
            "oppTotalScore": 11,
            "waitTime": 6325.37468729893,
            "responseTime": 1680800561369,
            "catchQuestion": "How many <b class=\"r\">red<\/b> marbles did your opponent report drawing? ",
            "catchKey": -1,
            "catchResponse": -1,
            "catchTime": 1680800561369,
            "trialTime": 0
        },
        {
            "exptPart": "trial",
            "trialNumber": 51,
            "roleCurrent": "receiver",
            "marblesSampled": 100,
            "probRed": 0.5,
            "practiceLambda": 5,
            "trialLambda": 0.3,
            "instructedLambda": "honest",
            "drawnRed": 47,
            "reportedRed": 47,
            "inferredRed": 32,
            "playerTrialScore": -15,
            "oppTrialScore": 0,
            "playerTotalScore": -643,
            "oppTotalScore": 11,
            "waitTime": 6109.442058364644,
            "responseTime": 1680800571336,
            "catchQuestion": "How many <b class=\"r\">red<\/b> marbles did your opponent report drawing? ",
            "catchKey": -1,
            "catchResponse": -1,
            "catchTime": 1680800561369,
            "trialTime": 0
        },
        {
            "exptPart": "trial",
            "trialNumber": 52,
            "roleCurrent": "receiver",
            "marblesSampled": 100,
            "probRed": 0.5,
            "practiceLambda": 5,
            "trialLambda": 0.3,
            "instructedLambda": "honest",
            "drawnRed": 44,
            "reportedRed": 44,
            "inferredRed": 24,
            "playerTrialScore": -20,
            "oppTrialScore": 0,
            "playerTotalScore": -663,
            "oppTotalScore": 11,
            "waitTime": 5510.420881927583,
            "responseTime": 1680800579659,
            "catchQuestion": "How many <b class=\"r\">red<\/b> marbles did your opponent report drawing? ",
            "catchKey": -1,
            "catchResponse": -1,
            "catchTime": 1680800561369,
            "trialTime": 0
        },
        {
            "exptPart": "trial",
            "trialNumber": 53,
            "roleCurrent": "receiver",
            "marblesSampled": 100,
            "probRed": 0.5,
            "practiceLambda": 5,
            "trialLambda": 0.3,
            "instructedLambda": "honest",
            "drawnRed": 29,
            "reportedRed": 29,
            "inferredRed": 16,
            "playerTrialScore": -13,
            "oppTrialScore": 0,
            "playerTotalScore": -676,
            "oppTotalScore": 11,
            "waitTime": 6037.1227747710145,
            "responseTime": 1680800588464,
            "catchQuestion": "How many <b class=\"r\">red<\/b> marbles did your opponent report drawing? ",
            "catchKey": -1,
            "catchResponse": -1,
            "catchTime": 1680800561369,
            "trialTime": 0
        },
        {
            "exptPart": "trial",
            "trialNumber": 54,
            "roleCurrent": "receiver",
            "marblesSampled": 100,
            "probRed": 0.5,
            "practiceLambda": 5,
            "trialLambda": 0.3,
            "instructedLambda": "honest",
            "drawnRed": 66,
            "reportedRed": 68,
            "inferredRed": 56,
            "playerTrialScore": -10,
            "oppTrialScore": 0,
            "playerTotalScore": -686,
            "oppTotalScore": 11,
            "waitTime": 6696.440036836611,
            "responseTime": 1680800598062,
            "catchQuestion": "How many <b class=\"r\">red<\/b> marbles did your opponent report drawing? ",
            "catchKey": -1,
            "catchResponse": -1,
            "catchTime": 1680800561369,
            "trialTime": 0
        },
        {
            "exptPart": "trial",
            "trialNumber": 55,
            "roleCurrent": "receiver",
            "marblesSampled": 100,
            "probRed": 0.5,
            "practiceLambda": 5,
            "trialLambda": 0.3,
            "instructedLambda": "honest",
            "drawnRed": 57,
            "reportedRed": 58,
            "inferredRed": 32,
            "playerTrialScore": -25,
            "oppTrialScore": 0,
            "playerTotalScore": -711,
            "oppTotalScore": 11,
            "waitTime": 7306.708052100301,
            "responseTime": 1680800610360,
            "catchQuestion": "How many <b class=\"r\">red<\/b> marbles did your opponent report drawing? ",
            "catchKey": -1,
            "catchResponse": -1,
            "catchTime": 1680800561369,
            "trialTime": 0
        },
        {
            "exptPart": "trial",
            "trialNumber": 56,
            "roleCurrent": "receiver",
            "marblesSampled": 100,
            "probRed": 0.5,
            "practiceLambda": 5,
            "trialLambda": 0.3,
            "instructedLambda": "honest",
            "drawnRed": 46,
            "reportedRed": 47,
            "inferredRed": 29,
            "playerTrialScore": -17,
            "oppTrialScore": 0,
            "playerTotalScore": -728,
            "oppTotalScore": 11,
            "waitTime": 6052.347322316038,
            "responseTime": 1680800620357,
            "catchQuestion": "How many <b class=\"r\">red<\/b> marbles did your opponent report drawing? ",
            "catchKey": 47,
            "catchResponse": 47,
            "catchTime": 1680800620357,
            "trialTime": 0
        },
        {
            "exptPart": "trial",
            "trialNumber": 57,
            "roleCurrent": "receiver",
            "marblesSampled": 100,
            "probRed": 0.5,
            "practiceLambda": 5,
            "trialLambda": 0.3,
            "instructedLambda": "honest",
            "drawnRed": 58,
            "reportedRed": 58,
            "inferredRed": 45,
            "playerTrialScore": -13,
            "oppTrialScore": 0,
            "playerTotalScore": -741,
            "oppTotalScore": 11,
            "waitTime": 6786.793446992091,
            "responseTime": 1680800635003,
            "catchQuestion": "How many <b class=\"r\">red<\/b> marbles did your opponent report drawing? ",
            "catchKey": -1,
            "catchResponse": -1,
            "catchTime": 1680800620357,
            "trialTime": 0
        },
        {
            "exptPart": "trial",
            "trialNumber": 58,
            "roleCurrent": "receiver",
            "marblesSampled": 100,
            "probRed": 0.5,
            "practiceLambda": 5,
            "trialLambda": 0.3,
            "instructedLambda": "honest",
            "drawnRed": 87,
            "reportedRed": 87,
            "inferredRed": 65,
            "playerTrialScore": -22,
            "oppTrialScore": 0,
            "playerTotalScore": -763,
            "oppTotalScore": 11,
            "waitTime": 7427.206121378723,
            "responseTime": 1680800644770,
            "catchQuestion": "How many <b class=\"r\">red<\/b> marbles did your opponent report drawing? ",
            "catchKey": -1,
            "catchResponse": -1,
            "catchTime": 1680800620357,
            "trialTime": 0
        },
        {
            "exptPart": "trial",
            "trialNumber": 59,
            "roleCurrent": "receiver",
            "marblesSampled": 100,
            "probRed": 0.5,
            "practiceLambda": 5,
            "trialLambda": 0.3,
            "instructedLambda": "honest",
            "drawnRed": 35,
            "reportedRed": 35,
            "inferredRed": 28,
            "playerTrialScore": -7,
            "oppTrialScore": 0,
            "playerTotalScore": -770,
            "oppTotalScore": 11,
            "waitTime": 5369.784688359382,
            "responseTime": 1680800653839,
            "catchQuestion": "How many <b class=\"r\">red<\/b> marbles did your opponent report drawing? ",
            "catchKey": -1,
            "catchResponse": -1,
            "catchTime": 1680800620357,
            "trialTime": 0
        },
        {
            "exptPart": "trial",
            "trialNumber": 60,
            "roleCurrent": "receiver",
            "marblesSampled": 100,
            "probRed": 0.5,
            "practiceLambda": 5,
            "trialLambda": 0.3,
            "instructedLambda": "honest",
            "drawnRed": 60,
            "reportedRed": 61,
            "inferredRed": 56,
            "playerTrialScore": -4,
            "oppTrialScore": 0,
            "playerTotalScore": -774,
            "oppTotalScore": 11,
            "waitTime": 7442.902583404758,
            "responseTime": 1680800663708,
            "catchQuestion": "How many <b class=\"r\">red<\/b> marbles did your opponent report drawing? ",
            "catchKey": -1,
            "catchResponse": -1,
            "catchTime": 1680800663708,
            "trialTime": 0
        },
        {
            "exptPart": "trial",
            "trialNumber": 61,
            "roleCurrent": "receiver",
            "marblesSampled": 100,
            "probRed": 0.5,
            "practiceLambda": 5,
            "trialLambda": 0.3,
            "instructedLambda": "honest",
            "drawnRed": 38,
            "reportedRed": 38,
            "inferredRed": 28,
            "playerTrialScore": -10,
            "oppTrialScore": 0,
            "playerTotalScore": -784,
            "oppTotalScore": 11,
            "waitTime": 5569.400600491939,
            "responseTime": 1680800673745,
            "catchQuestion": "How many <b class=\"r\">red<\/b> marbles did your opponent report drawing? ",
            "catchKey": -1,
            "catchResponse": -1,
            "catchTime": 1680800663708,
            "trialTime": 0
        },
        {
            "exptPart": "trial",
            "trialNumber": 62,
            "roleCurrent": "receiver",
            "marblesSampled": 100,
            "probRed": 0.5,
            "practiceLambda": 5,
            "trialLambda": 0.3,
            "instructedLambda": "honest",
            "drawnRed": 85,
            "reportedRed": 86,
            "inferredRed": 49,
            "playerTrialScore": -36,
            "oppTrialScore": 0,
            "playerTotalScore": -820,
            "oppTotalScore": 11,
            "waitTime": 7102.269595297903,
            "responseTime": 1680800683591,
            "catchQuestion": "How many <b class=\"r\">red<\/b> marbles did your opponent report drawing? ",
            "catchKey": -1,
            "catchResponse": -1,
            "catchTime": 1680800663708,
            "trialTime": 0
        },
        {
            "exptPart": "trial",
            "trialNumber": 63,
            "roleCurrent": "receiver",
            "marblesSampled": 100,
            "probRed": 0.5,
            "practiceLambda": 5,
            "trialLambda": 0.3,
            "instructedLambda": "honest",
            "drawnRed": 34,
            "reportedRed": 34,
            "inferredRed": 28,
            "playerTrialScore": -6,
            "oppTrialScore": 0,
            "playerTotalScore": -826,
            "oppTotalScore": 11,
            "waitTime": 6669.258776413566,
            "responseTime": 1680800695218,
            "catchQuestion": "How many <b class=\"r\">red<\/b> marbles did your opponent report drawing? ",
            "catchKey": 34,
            "catchResponse": 34,
            "catchTime": 1680800695218,
            "trialTime": 0
        },
        {
            "exptPart": "trial",
            "trialNumber": 64,
            "roleCurrent": "receiver",
            "marblesSampled": 100,
            "probRed": 0.5,
            "practiceLambda": 5,
            "trialLambda": 0.3,
            "instructedLambda": "honest",
            "drawnRed": 69,
            "reportedRed": 70,
            "inferredRed": 58,
            "playerTrialScore": -11,
            "oppTrialScore": 0,
            "playerTotalScore": -837,
            "oppTotalScore": 11,
            "waitTime": 6873.672411932823,
            "responseTime": 1680800731621,
            "catchQuestion": "How many <b class=\"r\">red<\/b> marbles did your opponent report drawing? ",
            "catchKey": -1,
            "catchResponse": -1,
            "catchTime": 1680800695218,
            "trialTime": 0
        },
        {
            "exptPart": "trial",
            "trialNumber": 65,
            "roleCurrent": "receiver",
            "marblesSampled": 100,
            "probRed": 0.5,
            "practiceLambda": 5,
            "trialLambda": 0.3,
            "instructedLambda": "honest",
            "drawnRed": 73,
            "reportedRed": 73,
            "inferredRed": 63,
            "playerTrialScore": -10,
            "oppTrialScore": 0,
            "playerTotalScore": -847,
            "oppTotalScore": 11,
            "waitTime": 7223.927361257187,
            "responseTime": 1680800741915,
            "catchQuestion": "How many <b class=\"r\">red<\/b> marbles did your opponent report drawing? ",
            "catchKey": -1,
            "catchResponse": -1,
            "catchTime": 1680800695218,
            "trialTime": 0
        },
        {
            "exptPart": "trial",
            "trialNumber": 66,
            "roleCurrent": "receiver",
            "marblesSampled": 100,
            "probRed": 0.5,
            "practiceLambda": 5,
            "trialLambda": 0.3,
            "instructedLambda": "honest",
            "drawnRed": 59,
            "reportedRed": 59,
            "inferredRed": 45,
            "playerTrialScore": -14,
            "oppTrialScore": 0,
            "playerTotalScore": -861,
            "oppTotalScore": 11,
            "waitTime": 5676.785709668769,
            "responseTime": 1680800749978,
            "catchQuestion": "How many <b class=\"r\">red<\/b> marbles did your opponent report drawing? ",
            "catchKey": -1,
            "catchResponse": -1,
            "catchTime": 1680800695218,
            "trialTime": 0
        },
        {
            "exptPart": "trial",
            "trialNumber": 67,
            "roleCurrent": "receiver",
            "marblesSampled": 100,
            "probRed": 0.5,
            "practiceLambda": 5,
            "trialLambda": 0.3,
            "instructedLambda": "honest",
            "drawnRed": 72,
            "reportedRed": 72,
            "inferredRed": 56,
            "playerTrialScore": -16,
            "oppTrialScore": 0,
            "playerTotalScore": -877,
            "oppTotalScore": 11,
            "waitTime": 6296.914938041267,
            "responseTime": 1680800759442,
            "catchQuestion": "How many <b class=\"r\">red<\/b> marbles did your opponent report drawing? ",
            "catchKey": -1,
            "catchResponse": -1,
            "catchTime": 1680800695218,
            "trialTime": 0
        },
        {
            "exptPart": "trial",
            "trialNumber": 68,
            "roleCurrent": "receiver",
            "marblesSampled": 100,
            "probRed": 0.5,
            "practiceLambda": 5,
            "trialLambda": 0.3,
            "instructedLambda": "honest",
            "drawnRed": 50,
            "reportedRed": 50,
            "inferredRed": 40,
            "playerTrialScore": -10,
            "oppTrialScore": 0,
            "playerTotalScore": -887,
            "oppTotalScore": 11,
            "waitTime": 5234.454396624205,
            "responseTime": 1680800767715,
            "catchQuestion": "How many <b class=\"r\">red<\/b> marbles did your opponent report drawing? ",
            "catchKey": -1,
            "catchResponse": -1,
            "catchTime": 1680800695218,
            "trialTime": 0
        },
        {
            "exptPart": "trial",
            "trialNumber": 69,
            "roleCurrent": "receiver",
            "marblesSampled": 100,
            "probRed": 0.5,
            "practiceLambda": 5,
            "trialLambda": 0.3,
            "instructedLambda": "honest",
            "drawnRed": 40,
            "reportedRed": 40,
            "inferredRed": 26,
            "playerTrialScore": -14,
            "oppTrialScore": 0,
            "playerTotalScore": -901,
            "oppTotalScore": 11,
            "waitTime": 5165.494378060567,
            "responseTime": 1680800777093,
            "catchQuestion": "How many <b class=\"r\">red<\/b> marbles did your opponent report drawing? ",
            "catchKey": -1,
            "catchResponse": -1,
            "catchTime": 1680800695218,
            "trialTime": 0
        },
        {
            "exptPart": "trial",
            "trialNumber": 70,
            "roleCurrent": "receiver",
            "marblesSampled": 100,
            "probRed": 0.5,
            "practiceLambda": 5,
            "trialLambda": 0.3,
            "instructedLambda": "honest",
            "drawnRed": 31,
            "reportedRed": 31,
            "inferredRed": 27,
            "playerTrialScore": -4,
            "oppTrialScore": 0,
            "playerTotalScore": -905,
            "oppTotalScore": 11,
            "waitTime": 6071.360913738672,
            "responseTime": 1680800786041,
            "catchQuestion": "How many <b class=\"r\">red<\/b> marbles did your opponent report drawing? ",
            "catchKey": 31,
            "catchResponse": 31,
            "catchTime": 1680800786041,
            "trialTime": 0
        },
        {
            "exptPart": "trial",
            "trialNumber": 71,
            "roleCurrent": "receiver",
            "marblesSampled": 100,
            "probRed": 0.5,
            "practiceLambda": 5,
            "trialLambda": 0.3,
            "instructedLambda": "honest",
            "drawnRed": 36,
            "reportedRed": 37,
            "inferredRed": 36,
            "playerTrialScore": 0,
            "oppTrialScore": 0,
            "playerTotalScore": -905,
            "oppTotalScore": 11,
            "waitTime": 6692.669992135394,
            "responseTime": 1680800800561,
            "catchQuestion": "How many <b class=\"r\">red<\/b> marbles did your opponent report drawing? ",
            "catchKey": 37,
            "catchResponse": 37,
            "catchTime": 1680800800561,
            "trialTime": 0
        },
        {
            "exptPart": "trial",
            "trialNumber": 72,
            "roleCurrent": "receiver",
            "marblesSampled": 100,
            "probRed": 0.5,
            "practiceLambda": 5,
            "trialLambda": 0.3,
            "instructedLambda": "honest",
            "drawnRed": 80,
            "reportedRed": 80,
            "inferredRed": 70,
            "playerTrialScore": -10,
            "oppTrialScore": 0,
            "playerTotalScore": -915,
            "oppTotalScore": 11,
            "waitTime": 7112.660562594014,
            "responseTime": 1680800818800,
            "catchQuestion": "How many <b class=\"r\">red<\/b> marbles did your opponent report drawing? ",
            "catchKey": -1,
            "catchResponse": -1,
            "catchTime": 1680800800561,
            "trialTime": 0
        },
        {
            "exptPart": "trial",
            "trialNumber": 73,
            "roleCurrent": "receiver",
            "marblesSampled": 100,
            "probRed": 0.5,
            "practiceLambda": 5,
            "trialLambda": 0.3,
            "instructedLambda": "honest",
            "drawnRed": 60,
            "reportedRed": 60,
            "inferredRed": 48,
            "playerTrialScore": -12,
            "oppTrialScore": 0,
            "playerTotalScore": -927,
            "oppTotalScore": 11,
            "waitTime": 6123.273196926495,
            "responseTime": 1680800827620,
            "catchQuestion": "How many <b class=\"r\">red<\/b> marbles did your opponent report drawing? ",
            "catchKey": -1,
            "catchResponse": -1,
            "catchTime": 1680800800561,
            "trialTime": 0
        },
        {
            "exptPart": "trial",
            "trialNumber": 74,
            "roleCurrent": "receiver",
            "marblesSampled": 100,
            "probRed": 0.5,
            "practiceLambda": 5,
            "trialLambda": 0.3,
            "instructedLambda": "honest",
            "drawnRed": 93,
            "reportedRed": 93,
            "inferredRed": 79,
            "playerTrialScore": -14,
            "oppTrialScore": 0,
            "playerTotalScore": -941,
            "oppTotalScore": 11,
            "waitTime": 7373.585985486078,
            "responseTime": 1680800839077,
            "catchQuestion": "How many <b class=\"r\">red<\/b> marbles did your opponent report drawing? ",
            "catchKey": -1,
            "catchResponse": -1,
            "catchTime": 1680800800561,
            "trialTime": 0
        },
        {
            "exptPart": "trial",
            "trialNumber": 75,
            "roleCurrent": "receiver",
            "marblesSampled": 100,
            "probRed": 0.5,
            "practiceLambda": 5,
            "trialLambda": 0.3,
            "instructedLambda": "honest",
            "drawnRed": 67,
            "reportedRed": 68,
            "inferredRed": 53,
            "playerTrialScore": -14,
            "oppTrialScore": 0,
            "playerTotalScore": -955,
            "oppTotalScore": 11,
            "waitTime": 5899.475874610025,
            "responseTime": 1680800849134,
            "catchQuestion": "How many <b class=\"r\">red<\/b> marbles did your opponent report drawing? ",
            "catchKey": -1,
            "catchResponse": -1,
            "catchTime": 1680800800561,
            "trialTime": 0
        },
        {
            "exptPart": "trial",
            "trialNumber": 76,
            "roleCurrent": "receiver",
            "marblesSampled": 100,
            "probRed": 0.5,
            "practiceLambda": 5,
            "trialLambda": 0.3,
            "instructedLambda": "honest",
            "drawnRed": 74,
            "reportedRed": 74,
            "inferredRed": 63,
            "playerTrialScore": -11,
            "oppTrialScore": 0,
            "playerTotalScore": -966,
            "oppTotalScore": 11,
            "waitTime": 7417.122483274378,
            "responseTime": 1680800859347,
            "catchQuestion": "How many <b class=\"r\">red<\/b> marbles did your opponent report drawing? ",
            "catchKey": -1,
            "catchResponse": -1,
            "catchTime": 1680800800561,
            "trialTime": 0
        },
        {
            "exptPart": "trial",
            "trialNumber": 77,
            "roleCurrent": "receiver",
            "marblesSampled": 100,
            "probRed": 0.5,
            "practiceLambda": 5,
            "trialLambda": 0.3,
            "instructedLambda": "honest",
            "drawnRed": 53,
            "reportedRed": 53,
            "inferredRed": 42,
            "playerTrialScore": -11,
            "oppTrialScore": 0,
            "playerTotalScore": -977,
            "oppTotalScore": 11,
            "waitTime": 5624.570059213993,
            "responseTime": 1680800868125,
            "catchQuestion": "How many <b class=\"r\">red<\/b> marbles did your opponent report drawing? ",
            "catchKey": -1,
            "catchResponse": -1,
            "catchTime": 1680800800561,
            "trialTime": 0
        },
        {
            "exptPart": "trial",
            "trialNumber": 78,
            "roleCurrent": "receiver",
            "marblesSampled": 100,
            "probRed": 0.5,
            "practiceLambda": 5,
            "trialLambda": 0.3,
            "instructedLambda": "honest",
            "drawnRed": 69,
            "reportedRed": 69,
            "inferredRed": 54,
            "playerTrialScore": -15,
            "oppTrialScore": 0,
            "playerTotalScore": -992,
            "oppTotalScore": 11,
            "waitTime": 5280.749094075403,
            "responseTime": 1680800876269,
            "catchQuestion": "How many <b class=\"r\">red<\/b> marbles did your opponent report drawing? ",
            "catchKey": -1,
            "catchResponse": -1,
            "catchTime": 1680800800561,
            "trialTime": 0
        },
        {
            "exptPart": "trial",
            "trialNumber": 79,
            "roleCurrent": "receiver",
            "marblesSampled": 100,
            "probRed": 0.5,
            "practiceLambda": 5,
            "trialLambda": 0.3,
            "instructedLambda": "honest",
            "drawnRed": 72,
            "reportedRed": 72,
            "inferredRed": 57,
            "playerTrialScore": -15,
            "oppTrialScore": 0,
            "playerTotalScore": -1007,
            "oppTotalScore": 11,
            "waitTime": 6693.546470791192,
            "responseTime": 1680800886858,
            "catchQuestion": "How many <b class=\"r\">red<\/b> marbles did your opponent report drawing? ",
            "catchKey": -1,
            "catchResponse": -1,
            "catchTime": 1680800800561,
            "trialTime": 0
        },
        {
            "exptPart": "trial",
            "trialNumber": 80,
            "roleCurrent": "receiver",
            "marblesSampled": 100,
            "probRed": 0.5,
            "practiceLambda": 5,
            "trialLambda": 0.3,
            "instructedLambda": "honest",
            "drawnRed": 41,
            "reportedRed": 42,
            "inferredRed": 39,
            "playerTrialScore": -2,
            "oppTrialScore": 0,
            "playerTotalScore": -1009,
            "oppTotalScore": 11,
            "waitTime": 5849.362996735808,
            "responseTime": 1680800895474,
            "catchQuestion": "How many <b class=\"r\">red<\/b> marbles did your opponent report drawing? ",
            "catchKey": -1,
            "catchResponse": -1,
            "catchTime": 1680800895474,
            "trialTime": 0
        },
        {
            "exptPart": "trial",
            "trialNumber": 81,
            "roleCurrent": "receiver",
            "marblesSampled": 100,
            "probRed": 0.5,
            "practiceLambda": 5,
            "trialLambda": 0.3,
            "instructedLambda": "honest",
            "drawnRed": 91,
            "reportedRed": 91,
            "inferredRed": 80,
            "playerTrialScore": -11,
            "oppTrialScore": 0,
            "playerTotalScore": -1020,
            "oppTotalScore": 11,
            "waitTime": 5922.221079224193,
            "responseTime": 1680800906057,
            "catchQuestion": "How many <b class=\"r\">red<\/b> marbles did your opponent report drawing? ",
            "catchKey": -1,
            "catchResponse": -1,
            "catchTime": 1680800895474,
            "trialTime": 0
        },
        {
            "exptPart": "trial",
            "trialNumber": 82,
            "roleCurrent": "receiver",
            "marblesSampled": 100,
            "probRed": 0.5,
            "practiceLambda": 5,
            "trialLambda": 0.3,
            "instructedLambda": "honest",
            "drawnRed": 61,
            "reportedRed": 61,
            "inferredRed": 56,
            "playerTrialScore": -5,
            "oppTrialScore": 0,
            "playerTotalScore": -1025,
            "oppTotalScore": 11,
            "waitTime": 5236.602252268931,
            "responseTime": 1680800914235,
            "catchQuestion": "How many <b class=\"r\">red<\/b> marbles did your opponent report drawing? ",
            "catchKey": -1,
            "catchResponse": -1,
            "catchTime": 1680800895474,
            "trialTime": 0
        },
        {
            "exptPart": "trial",
            "trialNumber": 83,
            "roleCurrent": "receiver",
            "marblesSampled": 100,
            "probRed": 0.5,
            "practiceLambda": 5,
            "trialLambda": 0.3,
            "instructedLambda": "honest",
            "drawnRed": 39,
            "reportedRed": 39,
            "inferredRed": 27,
            "playerTrialScore": -12,
            "oppTrialScore": 0,
            "playerTotalScore": -1037,
            "oppTotalScore": 11,
            "waitTime": 5904.408965227311,
            "responseTime": 1680800923289,
            "catchQuestion": "How many <b class=\"r\">red<\/b> marbles did your opponent report drawing? ",
            "catchKey": -1,
            "catchResponse": -1,
            "catchTime": 1680800895474,
            "trialTime": 0
        },
        {
            "exptPart": "trial",
            "trialNumber": 84,
            "roleCurrent": "receiver",
            "marblesSampled": 100,
            "probRed": 0.5,
            "practiceLambda": 5,
            "trialLambda": 0.3,
            "instructedLambda": "honest",
            "drawnRed": 16,
            "reportedRed": 16,
            "inferredRed": 6,
            "playerTrialScore": -10,
            "oppTrialScore": 0,
            "playerTotalScore": -1047,
            "oppTotalScore": 11,
            "waitTime": 5342.678526796297,
            "responseTime": 1680800930896,
            "catchQuestion": "How many <b class=\"r\">red<\/b> marbles did your opponent report drawing? ",
            "catchKey": 16,
            "catchResponse": 16,
            "catchTime": 1680800930896,
            "trialTime": 0
        },
        {
            "exptPart": "trial",
            "trialNumber": 85,
            "roleCurrent": "receiver",
            "marblesSampled": 100,
            "probRed": 0.5,
            "practiceLambda": 5,
            "trialLambda": 0.3,
            "instructedLambda": "honest",
            "drawnRed": 38,
            "reportedRed": 38,
            "inferredRed": 27,
            "playerTrialScore": -11,
            "oppTrialScore": 0,
            "playerTotalScore": -1058,
            "oppTotalScore": 11,
            "waitTime": 6648.34645763315,
            "responseTime": 1680800945185,
            "catchQuestion": "How many <b class=\"r\">red<\/b> marbles did your opponent report drawing? ",
            "catchKey": 38,
            "catchResponse": 38,
            "catchTime": 1680800945185,
            "trialTime": 0
        },
        {
            "exptPart": "trial",
            "trialNumber": 86,
            "roleCurrent": "receiver",
            "marblesSampled": 100,
            "probRed": 0.5,
            "practiceLambda": 5,
            "trialLambda": 0.3,
            "instructedLambda": "honest",
            "drawnRed": 27,
            "reportedRed": 28,
            "inferredRed": 30,
            "playerTrialScore": -3,
            "oppTrialScore": 3,
            "playerTotalScore": -1061,
            "oppTotalScore": 14,
            "waitTime": 6069.457171571002,
            "responseTime": 1680800959222,
            "catchQuestion": "How many <b class=\"r\">red<\/b> marbles did your opponent report drawing? ",
            "catchKey": -1,
            "catchResponse": -1,
            "catchTime": 1680800945185,
            "trialTime": 0
        },
        {
            "exptPart": "trial",
            "trialNumber": 87,
            "roleCurrent": "receiver",
            "marblesSampled": 100,
            "probRed": 0.5,
            "practiceLambda": 5,
            "trialLambda": 0.3,
            "instructedLambda": "honest",
            "drawnRed": 83,
            "reportedRed": 83,
            "inferredRed": 79,
            "playerTrialScore": -4,
            "oppTrialScore": 0,
            "playerTotalScore": -1065,
            "oppTotalScore": 14,
            "waitTime": 5683.796388699504,
            "responseTime": 1680800967816,
            "catchQuestion": "How many <b class=\"r\">red<\/b> marbles did your opponent report drawing? ",
            "catchKey": -1,
            "catchResponse": -1,
            "catchTime": 1680800945185,
            "trialTime": 0
        },
        {
            "exptPart": "trial",
            "trialNumber": 88,
            "roleCurrent": "receiver",
            "marblesSampled": 100,
            "probRed": 0.5,
            "practiceLambda": 5,
            "trialLambda": 0.3,
            "instructedLambda": "honest",
            "drawnRed": 18,
            "reportedRed": 18,
            "inferredRed": 12,
            "playerTrialScore": -6,
            "oppTrialScore": 0,
            "playerTotalScore": -1071,
            "oppTotalScore": 14,
            "waitTime": 5528.091838270613,
            "responseTime": 1680800976443,
            "catchQuestion": "How many <b class=\"r\">red<\/b> marbles did your opponent report drawing? ",
            "catchKey": -1,
            "catchResponse": -1,
            "catchTime": 1680800945185,
            "trialTime": 0
        },
        {
            "exptPart": "trial",
            "trialNumber": 89,
            "roleCurrent": "receiver",
            "marblesSampled": 100,
            "probRed": 0.5,
            "practiceLambda": 5,
            "trialLambda": 0.3,
            "instructedLambda": "honest",
            "drawnRed": 38,
            "reportedRed": 38,
            "inferredRed": 28,
            "playerTrialScore": -10,
            "oppTrialScore": 0,
            "playerTotalScore": -1081,
            "oppTotalScore": 14,
            "waitTime": 6897.242381147644,
            "responseTime": 1680800986558,
            "catchQuestion": "How many <b class=\"r\">red<\/b> marbles did your opponent report drawing? ",
            "catchKey": -1,
            "catchResponse": -1,
            "catchTime": 1680800945185,
            "trialTime": 0
        },
        {
            "exptPart": "trial",
            "trialNumber": 90,
            "roleCurrent": "receiver",
            "marblesSampled": 100,
            "probRed": 0.5,
            "practiceLambda": 5,
            "trialLambda": 0.3,
            "instructedLambda": "honest",
            "drawnRed": 36,
            "reportedRed": 36,
            "inferredRed": 31,
            "playerTrialScore": -5,
            "oppTrialScore": 0,
            "playerTotalScore": -1086,
            "oppTotalScore": 14,
            "waitTime": 6946.498447509941,
            "responseTime": 1680800996540,
            "catchQuestion": "How many <b class=\"r\">red<\/b> marbles did your opponent report drawing? ",
            "catchKey": 36,
            "catchResponse": 36,
            "catchTime": 1680800996540,
            "trialTime": 0
        },
        {
            "exptPart": "trial",
            "trialNumber": 91,
            "roleCurrent": "receiver",
            "marblesSampled": 100,
            "probRed": 0.5,
            "practiceLambda": 5,
            "trialLambda": 0.3,
            "instructedLambda": "honest",
            "drawnRed": 33,
            "reportedRed": 33,
            "inferredRed": 28,
            "playerTrialScore": -5,
            "oppTrialScore": 0,
            "playerTotalScore": -1091,
            "oppTotalScore": 14,
            "waitTime": 7292.160941848563,
            "responseTime": 1680801013529,
            "catchQuestion": "How many <b class=\"r\">red<\/b> marbles did your opponent report drawing? ",
            "catchKey": -1,
            "catchResponse": -1,
            "catchTime": 1680800996540,
            "trialTime": 0
        },
        {
            "exptPart": "trial",
            "trialNumber": 92,
            "roleCurrent": "receiver",
            "marblesSampled": 100,
            "probRed": 0.5,
            "practiceLambda": 5,
            "trialLambda": 0.3,
            "instructedLambda": "honest",
            "drawnRed": 47,
            "reportedRed": 47,
            "inferredRed": 39,
            "playerTrialScore": -8,
            "oppTrialScore": 0,
            "playerTotalScore": -1099,
            "oppTotalScore": 14,
            "waitTime": 6489.485643514756,
            "responseTime": 1680801023065,
            "catchQuestion": "How many <b class=\"r\">red<\/b> marbles did your opponent report drawing? ",
            "catchKey": -1,
            "catchResponse": -1,
            "catchTime": 1680800996540,
            "trialTime": 0
        },
        {
            "exptPart": "trial",
            "trialNumber": 93,
            "roleCurrent": "receiver",
            "marblesSampled": 100,
            "probRed": 0.5,
            "practiceLambda": 5,
            "trialLambda": 0.3,
            "instructedLambda": "honest",
            "drawnRed": 35,
            "reportedRed": 36,
            "inferredRed": 27,
            "playerTrialScore": -8,
            "oppTrialScore": 0,
            "playerTotalScore": -1107,
            "oppTotalScore": 14,
            "waitTime": 6928.517453411252,
            "responseTime": 1680801033218,
            "catchQuestion": "How many <b class=\"r\">red<\/b> marbles did your opponent report drawing? ",
            "catchKey": -1,
            "catchResponse": -1,
            "catchTime": 1680800996540,
            "trialTime": 0
        },
        {
            "exptPart": "trial",
            "trialNumber": 94,
            "roleCurrent": "receiver",
            "marblesSampled": 100,
            "probRed": 0.5,
            "practiceLambda": 5,
            "trialLambda": 0.3,
            "instructedLambda": "honest",
            "drawnRed": 36,
            "reportedRed": 36,
            "inferredRed": 25,
            "playerTrialScore": -11,
            "oppTrialScore": 0,
            "playerTotalScore": -1118,
            "oppTotalScore": 14,
            "waitTime": 5329.930189220378,
            "responseTime": 1680801045089,
            "catchQuestion": "How many <b class=\"r\">red<\/b> marbles did your opponent report drawing? ",
            "catchKey": -1,
            "catchResponse": -1,
            "catchTime": 1680800996540,
            "trialTime": 0
        },
        {
            "exptPart": "trial",
            "trialNumber": 95,
            "roleCurrent": "receiver",
            "marblesSampled": 100,
            "probRed": 0.5,
            "practiceLambda": 5,
            "trialLambda": 0.3,
            "instructedLambda": "honest",
            "drawnRed": 35,
            "reportedRed": 35,
            "inferredRed": 27,
            "playerTrialScore": -8,
            "oppTrialScore": 0,
            "playerTotalScore": -1126,
            "oppTotalScore": 14,
            "waitTime": 5772.487278981755,
            "responseTime": 1680801053944,
            "catchQuestion": "How many <b class=\"r\">red<\/b> marbles did your opponent report drawing? ",
            "catchKey": -1,
            "catchResponse": -1,
            "catchTime": 1680800996540,
            "trialTime": 0
        },
        {
            "exptPart": "trial",
            "trialNumber": 96,
            "roleCurrent": "receiver",
            "marblesSampled": 100,
            "probRed": 0.5,
            "practiceLambda": 5,
            "trialLambda": 0.3,
            "instructedLambda": "honest",
            "drawnRed": 43,
            "reportedRed": 43,
            "inferredRed": 32,
            "playerTrialScore": -11,
            "oppTrialScore": 0,
            "playerTotalScore": -1137,
            "oppTotalScore": 14,
            "waitTime": 5307.156846404752,
            "responseTime": 1680801063422,
            "catchQuestion": "How many <b class=\"r\">red<\/b> marbles did your opponent report drawing? ",
            "catchKey": -1,
            "catchResponse": -1,
            "catchTime": 1680800996540,
            "trialTime": 0
        },
        {
            "exptPart": "trial",
            "trialNumber": 97,
            "roleCurrent": "receiver",
            "marblesSampled": 100,
            "probRed": 0.5,
            "practiceLambda": 5,
            "trialLambda": 0.3,
            "instructedLambda": "honest",
            "drawnRed": 19,
            "reportedRed": 19,
            "inferredRed": 10,
            "playerTrialScore": -9,
            "oppTrialScore": 0,
            "playerTotalScore": -1146,
            "oppTotalScore": 14,
            "waitTime": 5444.886309467411,
            "responseTime": 1680801072345,
            "catchQuestion": "How many <b class=\"r\">red<\/b> marbles did your opponent report drawing? ",
            "catchKey": -1,
            "catchResponse": -1,
            "catchTime": 1680800996540,
            "trialTime": 0
        },
        {
            "exptPart": "trial",
            "trialNumber": 98,
            "roleCurrent": "receiver",
            "marblesSampled": 100,
            "probRed": 0.5,
            "practiceLambda": 5,
            "trialLambda": 0.3,
            "instructedLambda": "honest",
            "drawnRed": 22,
            "reportedRed": 22,
            "inferredRed": 16,
            "playerTrialScore": -6,
            "oppTrialScore": 0,
            "playerTotalScore": -1152,
            "oppTotalScore": 14,
            "waitTime": 7146.179495924109,
            "responseTime": 1680801083656,
            "catchQuestion": "How many <b class=\"r\">red<\/b> marbles did your opponent report drawing? ",
            "catchKey": -1,
            "catchResponse": -1,
            "catchTime": 1680800996540,
            "trialTime": 0
        },
        {
            "exptPart": "trial",
            "trialNumber": 99,
            "roleCurrent": "receiver",
            "marblesSampled": 100,
            "probRed": 0.5,
            "practiceLambda": 5,
            "trialLambda": 0.3,
            "instructedLambda": "honest",
            "drawnRed": 63,
            "reportedRed": 63,
            "inferredRed": 57,
            "playerTrialScore": -6,
            "oppTrialScore": 0,
            "playerTotalScore": -1158,
            "oppTotalScore": 14,
            "waitTime": 5432.475028541368,
            "responseTime": 1680801091824,
            "catchQuestion": "How many <b class=\"r\">red<\/b> marbles did your opponent report drawing? ",
            "catchKey": -1,
            "catchResponse": -1,
            "catchTime": 1680800996540,
            "trialTime": 0
        },
        {
            "exptPart": "trial",
            "trialNumber": 100,
            "roleCurrent": "receiver",
            "marblesSampled": 100,
            "probRed": 0.5,
            "practiceLambda": 5,
            "trialLambda": 0.3,
            "instructedLambda": "honest",
            "drawnRed": 30,
            "reportedRed": 30,
            "inferredRed": 26,
            "playerTrialScore": -4,
            "oppTrialScore": 0,
            "playerTotalScore": -1162,
            "oppTotalScore": 14,
            "waitTime": 5153.806559860281,
            "responseTime": 1680801100592,
            "catchQuestion": "How many <b class=\"r\">red<\/b> marbles did your opponent report drawing? ",
            "catchKey": -1,
            "catchResponse": -1,
            "catchTime": 1680801100592,
            "trialTime": 0
        }
    ]
}