{
    "client": {
        "type": "sona",
        "experiment_id": 2228,
        "credit_token": "b315147ae43241ea9c65086cb510cfb7",
        "survey_code": "37292",
        "sid": "sona-37292",
        "window": {
            "width": 1536,
            "height": 746
        },
        "screen": {
            "width": 1536,
            "height": 864
        },
        "userAgent": "Mozilla\/5.0 (Windows NT 10.0; Win64; x64) AppleWebKit\/537.36 (KHTML, like Gecko) Chrome\/111.0.0.0 Safari\/537.36",
        "score": 0,
        "bonus": 0
    },
    "expt": {
        "saveURL": "submit.simple.php",
        "trials": 100,
        "practiceTrials": 2,
        "marblesSampled": 100,
        "probRed": 0.5,
        "practiceLambdaAI": 5,
        "lambdaAI": 21.9,
        "roles": [
            "sender",
            "receiver"
        ],
        "cost": "unif",
        "goal": "over",
        "oppDishonesty": "honest",
        "catchTrials": [
            51,
            64,
            53,
            75,
            96,
            36,
            39,
            26,
            14,
            98
        ],
        "scoreTotal": {
            "player": -2628,
            "opp": 699
        },
        "sona": {
            "experiment_id": 2228,
            "credit_token": "b315147ae43241ea9c65086cb510cfb7"
        },
        "pilot": false,
        "debug": false
    },
    "trials": [
        {
            "exptPart": "practice",
            "trialNumber": 1,
            "roleCurrent": "sender",
            "marblesSampled": 100,
            "probRed": 0.5,
            "practiceLambda": 5,
            "trialLambda": 21.9,
            "instructedLambda": "honest",
            "drawnRed": 41,
            "reportedRed": 45,
            "inferredRed": 41,
            "playerTrialScore": 0,
            "oppTrialScore": 0,
            "playerTotalScore": 0,
            "oppTotalScore": 0,
            "waitTime": 2916.4963331777317,
            "responseTime": 1681109178226,
            "catchQuestion": "How many <b class=\"r\">red<\/b> marbles did you actually draw (before any changes)? ",
            "catchKey": 41,
            "catchResponse": 41,
            "catchTime": 1681109178227,
            "trialTime": 0
        },
        {
            "exptPart": "practice",
            "trialNumber": 2,
            "roleCurrent": "receiver",
            "marblesSampled": 100,
            "probRed": 0.5,
            "practiceLambda": 5,
            "trialLambda": 21.9,
            "instructedLambda": "honest",
            "drawnRed": 10,
            "reportedRed": 16,
            "inferredRed": 17,
            "playerTrialScore": -7,
            "oppTrialScore": 7,
            "playerTotalScore": -7,
            "oppTotalScore": 7,
            "waitTime": 7397.3443185511205,
            "responseTime": 1681109224229,
            "catchQuestion": "How many <b class=\"r\">red<\/b> marbles did your opponent report drawing? ",
            "catchKey": 16,
            "catchResponse": 16,
            "catchTime": 1681109224229,
            "trialTime": 0
        },
        {
            "exptPart": "trial",
            "trialNumber": 1,
            "roleCurrent": "receiver",
            "marblesSampled": 100,
            "probRed": 0.5,
            "practiceLambda": 5,
            "trialLambda": 21.9,
            "instructedLambda": "honest",
            "drawnRed": 30,
            "reportedRed": 45,
            "inferredRed": 40,
            "playerTrialScore": -10,
            "oppTrialScore": 10,
            "playerTotalScore": -10,
            "oppTotalScore": 10,
            "waitTime": 5388.11172938743,
            "responseTime": 1681109278092,
            "catchQuestion": "How many <b class=\"r\">red<\/b> marbles did your opponent report drawing? ",
            "catchKey": -1,
            "catchResponse": -1,
            "catchTime": 1681109224229,
            "trialTime": 0
        },
        {
            "exptPart": "trial",
            "trialNumber": 2,
            "roleCurrent": "receiver",
            "marblesSampled": 100,
            "probRed": 0.5,
            "practiceLambda": 5,
            "trialLambda": 21.9,
            "instructedLambda": "honest",
            "drawnRed": 53,
            "reportedRed": 80,
            "inferredRed": 60,
            "playerTrialScore": -7,
            "oppTrialScore": 7,
            "playerTotalScore": -17,
            "oppTotalScore": 17,
            "waitTime": 6239.828520819383,
            "responseTime": 1681109289657,
            "catchQuestion": "How many <b class=\"r\">red<\/b> marbles did your opponent report drawing? ",
            "catchKey": -1,
            "catchResponse": -1,
            "catchTime": 1681109224229,
            "trialTime": 0
        },
        {
            "exptPart": "trial",
            "trialNumber": 3,
            "roleCurrent": "receiver",
            "marblesSampled": 100,
            "probRed": 0.5,
            "practiceLambda": 5,
            "trialLambda": 21.9,
            "instructedLambda": "honest",
            "drawnRed": 69,
            "reportedRed": 91,
            "inferredRed": 20,
            "playerTrialScore": -49,
            "oppTrialScore": 0,
            "playerTotalScore": -66,
            "oppTotalScore": 17,
            "waitTime": 6011.844985975386,
            "responseTime": 1681109299612,
            "catchQuestion": "How many <b class=\"r\">red<\/b> marbles did your opponent report drawing? ",
            "catchKey": -1,
            "catchResponse": -1,
            "catchTime": 1681109224229,
            "trialTime": 0
        },
        {
            "exptPart": "trial",
            "trialNumber": 4,
            "roleCurrent": "receiver",
            "marblesSampled": 100,
            "probRed": 0.5,
            "practiceLambda": 5,
            "trialLambda": 21.9,
            "instructedLambda": "honest",
            "drawnRed": 46,
            "reportedRed": 73,
            "inferredRed": 12,
            "playerTrialScore": -34,
            "oppTrialScore": 0,
            "playerTotalScore": -100,
            "oppTotalScore": 17,
            "waitTime": 6882.021096748607,
            "responseTime": 1681109310301,
            "catchQuestion": "How many <b class=\"r\">red<\/b> marbles did your opponent report drawing? ",
            "catchKey": -1,
            "catchResponse": -1,
            "catchTime": 1681109224229,
            "trialTime": 0
        },
        {
            "exptPart": "trial",
            "trialNumber": 5,
            "roleCurrent": "receiver",
            "marblesSampled": 100,
            "probRed": 0.5,
            "practiceLambda": 5,
            "trialLambda": 21.9,
            "instructedLambda": "honest",
            "drawnRed": 64,
            "reportedRed": 80,
            "inferredRed": 2,
            "playerTrialScore": -62,
            "oppTrialScore": 0,
            "playerTotalScore": -162,
            "oppTotalScore": 17,
            "waitTime": 6643.074111772676,
            "responseTime": 1681109320985,
            "catchQuestion": "How many <b class=\"r\">red<\/b> marbles did your opponent report drawing? ",
            "catchKey": -1,
            "catchResponse": -1,
            "catchTime": 1681109224229,
            "trialTime": 0
        },
        {
            "exptPart": "trial",
            "trialNumber": 6,
            "roleCurrent": "receiver",
            "marblesSampled": 100,
            "probRed": 0.5,
            "practiceLambda": 5,
            "trialLambda": 21.9,
            "instructedLambda": "honest",
            "drawnRed": 67,
            "reportedRed": 86,
            "inferredRed": 20,
            "playerTrialScore": -47,
            "oppTrialScore": 0,
            "playerTotalScore": -209,
            "oppTotalScore": 17,
            "waitTime": 7492.898859543573,
            "responseTime": 1681109334340,
            "catchQuestion": "How many <b class=\"r\">red<\/b> marbles did your opponent report drawing? ",
            "catchKey": -1,
            "catchResponse": -1,
            "catchTime": 1681109224229,
            "trialTime": 0
        },
        {
            "exptPart": "trial",
            "trialNumber": 7,
            "roleCurrent": "receiver",
            "marblesSampled": 100,
            "probRed": 0.5,
            "practiceLambda": 5,
            "trialLambda": 21.9,
            "instructedLambda": "honest",
            "drawnRed": 65,
            "reportedRed": 89,
            "inferredRed": 2,
            "playerTrialScore": -63,
            "oppTrialScore": 0,
            "playerTotalScore": -272,
            "oppTotalScore": 17,
            "waitTime": 6739.717890383915,
            "responseTime": 1681109344323,
            "catchQuestion": "How many <b class=\"r\">red<\/b> marbles did your opponent report drawing? ",
            "catchKey": -1,
            "catchResponse": -1,
            "catchTime": 1681109224229,
            "trialTime": 0
        },
        {
            "exptPart": "trial",
            "trialNumber": 8,
            "roleCurrent": "receiver",
            "marblesSampled": 100,
            "probRed": 0.5,
            "practiceLambda": 5,
            "trialLambda": 21.9,
            "instructedLambda": "honest",
            "drawnRed": 54,
            "reportedRed": 70,
            "inferredRed": 20,
            "playerTrialScore": -34,
            "oppTrialScore": 0,
            "playerTotalScore": -306,
            "oppTotalScore": 17,
            "waitTime": 5350.039628082619,
            "responseTime": 1681109360756,
            "catchQuestion": "How many <b class=\"r\">red<\/b> marbles did your opponent report drawing? ",
            "catchKey": -1,
            "catchResponse": -1,
            "catchTime": 1681109224229,
            "trialTime": 0
        },
        {
            "exptPart": "trial",
            "trialNumber": 9,
            "roleCurrent": "receiver",
            "marblesSampled": 100,
            "probRed": 0.5,
            "practiceLambda": 5,
            "trialLambda": 21.9,
            "instructedLambda": "honest",
            "drawnRed": 47,
            "reportedRed": 64,
            "inferredRed": 30,
            "playerTrialScore": -17,
            "oppTrialScore": 0,
            "playerTotalScore": -323,
            "oppTotalScore": 17,
            "waitTime": 5737.93392617401,
            "responseTime": 1681109371852,
            "catchQuestion": "How many <b class=\"r\">red<\/b> marbles did your opponent report drawing? ",
            "catchKey": -1,
            "catchResponse": -1,
            "catchTime": 1681109224229,
            "trialTime": 0
        },
        {
            "exptPart": "trial",
            "trialNumber": 10,
            "roleCurrent": "receiver",
            "marblesSampled": 100,
            "probRed": 0.5,
            "practiceLambda": 5,
            "trialLambda": 21.9,
            "instructedLambda": "honest",
            "drawnRed": 18,
            "reportedRed": 37,
            "inferredRed": 20,
            "playerTrialScore": -2,
            "oppTrialScore": 2,
            "playerTotalScore": -325,
            "oppTotalScore": 19,
            "waitTime": 5434.825695711428,
            "responseTime": 1681109381604,
            "catchQuestion": "How many <b class=\"r\">red<\/b> marbles did your opponent report drawing? ",
            "catchKey": -1,
            "catchResponse": -1,
            "catchTime": 1681109381604,
            "trialTime": 0
        },
        {
            "exptPart": "trial",
            "trialNumber": 11,
            "roleCurrent": "receiver",
            "marblesSampled": 100,
            "probRed": 0.5,
            "practiceLambda": 5,
            "trialLambda": 21.9,
            "instructedLambda": "honest",
            "drawnRed": 50,
            "reportedRed": 72,
            "inferredRed": 30,
            "playerTrialScore": -20,
            "oppTrialScore": 0,
            "playerTotalScore": -345,
            "oppTotalScore": 19,
            "waitTime": 5769.647825767091,
            "responseTime": 1681109423132,
            "catchQuestion": "How many <b class=\"r\">red<\/b> marbles did your opponent report drawing? ",
            "catchKey": -1,
            "catchResponse": -1,
            "catchTime": 1681109381604,
            "trialTime": 0
        },
        {
            "exptPart": "trial",
            "trialNumber": 12,
            "roleCurrent": "receiver",
            "marblesSampled": 100,
            "probRed": 0.5,
            "practiceLambda": 5,
            "trialLambda": 21.9,
            "instructedLambda": "honest",
            "drawnRed": 19,
            "reportedRed": 46,
            "inferredRed": 20,
            "playerTrialScore": -1,
            "oppTrialScore": 1,
            "playerTotalScore": -346,
            "oppTotalScore": 20,
            "waitTime": 7494.078310156652,
            "responseTime": 1681109435780,
            "catchQuestion": "How many <b class=\"r\">red<\/b> marbles did your opponent report drawing? ",
            "catchKey": -1,
            "catchResponse": -1,
            "catchTime": 1681109381604,
            "trialTime": 0
        },
        {
            "exptPart": "trial",
            "trialNumber": 13,
            "roleCurrent": "receiver",
            "marblesSampled": 100,
            "probRed": 0.5,
            "practiceLambda": 5,
            "trialLambda": 21.9,
            "instructedLambda": "honest",
            "drawnRed": 31,
            "reportedRed": 44,
            "inferredRed": 40,
            "playerTrialScore": -9,
            "oppTrialScore": 9,
            "playerTotalScore": -355,
            "oppTotalScore": 29,
            "waitTime": 6375.297439220798,
            "responseTime": 1681109448562,
            "catchQuestion": "How many <b class=\"r\">red<\/b> marbles did your opponent report drawing? ",
            "catchKey": -1,
            "catchResponse": -1,
            "catchTime": 1681109381604,
            "trialTime": 0
        },
        {
            "exptPart": "trial",
            "trialNumber": 14,
            "roleCurrent": "receiver",
            "marblesSampled": 100,
            "probRed": 0.5,
            "practiceLambda": 5,
            "trialLambda": 21.9,
            "instructedLambda": "honest",
            "drawnRed": 42,
            "reportedRed": 70,
            "inferredRed": 65,
            "playerTrialScore": -23,
            "oppTrialScore": 23,
            "playerTotalScore": -378,
            "oppTotalScore": 52,
            "waitTime": 6269.141502356502,
            "responseTime": 1681109458576,
            "catchQuestion": "How many <b class=\"r\">red<\/b> marbles did your opponent report drawing? ",
            "catchKey": -1,
            "catchResponse": -1,
            "catchTime": 1681109381604,
            "trialTime": 0
        },
        {
            "exptPart": "trial",
            "trialNumber": 15,
            "roleCurrent": "receiver",
            "marblesSampled": 100,
            "probRed": 0.5,
            "practiceLambda": 5,
            "trialLambda": 21.9,
            "instructedLambda": "honest",
            "drawnRed": 36,
            "reportedRed": 56,
            "inferredRed": 55,
            "playerTrialScore": -19,
            "oppTrialScore": 19,
            "playerTotalScore": -397,
            "oppTotalScore": 71,
            "waitTime": 5718.047690823136,
            "responseTime": 1681109468460,
            "catchQuestion": "How many <b class=\"r\">red<\/b> marbles did your opponent report drawing? ",
            "catchKey": 56,
            "catchResponse": 56,
            "catchTime": 1681109468460,
            "trialTime": 0
        },
        {
            "exptPart": "trial",
            "trialNumber": 16,
            "roleCurrent": "receiver",
            "marblesSampled": 100,
            "probRed": 0.5,
            "practiceLambda": 5,
            "trialLambda": 21.9,
            "instructedLambda": "honest",
            "drawnRed": 33,
            "reportedRed": 50,
            "inferredRed": 50,
            "playerTrialScore": -17,
            "oppTrialScore": 17,
            "playerTotalScore": -414,
            "oppTotalScore": 88,
            "waitTime": 6966.1469575098145,
            "responseTime": 1681109485975,
            "catchQuestion": "How many <b class=\"r\">red<\/b> marbles did your opponent report drawing? ",
            "catchKey": -1,
            "catchResponse": -1,
            "catchTime": 1681109468460,
            "trialTime": 0
        },
        {
            "exptPart": "trial",
            "trialNumber": 17,
            "roleCurrent": "receiver",
            "marblesSampled": 100,
            "probRed": 0.5,
            "practiceLambda": 5,
            "trialLambda": 21.9,
            "instructedLambda": "honest",
            "drawnRed": 33,
            "reportedRed": 54,
            "inferredRed": 56,
            "playerTrialScore": -23,
            "oppTrialScore": 23,
            "playerTotalScore": -437,
            "oppTotalScore": 111,
            "waitTime": 6171.52158286126,
            "responseTime": 1681109499344,
            "catchQuestion": "How many <b class=\"r\">red<\/b> marbles did your opponent report drawing? ",
            "catchKey": -1,
            "catchResponse": -1,
            "catchTime": 1681109468460,
            "trialTime": 0
        },
        {
            "exptPart": "trial",
            "trialNumber": 18,
            "roleCurrent": "receiver",
            "marblesSampled": 100,
            "probRed": 0.5,
            "practiceLambda": 5,
            "trialLambda": 21.9,
            "instructedLambda": "honest",
            "drawnRed": 44,
            "reportedRed": 61,
            "inferredRed": 6,
            "playerTrialScore": -38,
            "oppTrialScore": 0,
            "playerTotalScore": -475,
            "oppTotalScore": 111,
            "waitTime": 7248.612025624627,
            "responseTime": 1681109507916,
            "catchQuestion": "How many <b class=\"r\">red<\/b> marbles did your opponent report drawing? ",
            "catchKey": -1,
            "catchResponse": -1,
            "catchTime": 1681109468460,
            "trialTime": 0
        },
        {
            "exptPart": "trial",
            "trialNumber": 19,
            "roleCurrent": "receiver",
            "marblesSampled": 100,
            "probRed": 0.5,
            "practiceLambda": 5,
            "trialLambda": 21.9,
            "instructedLambda": "honest",
            "drawnRed": 0,
            "reportedRed": 0,
            "inferredRed": 65,
            "playerTrialScore": -65,
            "oppTrialScore": 65,
            "playerTotalScore": -540,
            "oppTotalScore": 176,
            "waitTime": 6575.103949741444,
            "responseTime": 1681109514231,
            "catchQuestion": "How many <b class=\"r\">red<\/b> marbles did your opponent report drawing? ",
            "catchKey": -1,
            "catchResponse": -1,
            "catchTime": 1681109468460,
            "trialTime": 0
        },
        {
            "exptPart": "trial",
            "trialNumber": 20,
            "roleCurrent": "receiver",
            "marblesSampled": 100,
            "probRed": 0.5,
            "practiceLambda": 5,
            "trialLambda": 21.9,
            "instructedLambda": "honest",
            "drawnRed": 32,
            "reportedRed": 59,
            "inferredRed": 80,
            "playerTrialScore": -48,
            "oppTrialScore": 48,
            "playerTotalScore": -588,
            "oppTotalScore": 224,
            "waitTime": 6426.732983801252,
            "responseTime": 1681109521002,
            "catchQuestion": "How many <b class=\"r\">red<\/b> marbles did your opponent report drawing? ",
            "catchKey": -1,
            "catchResponse": -1,
            "catchTime": 1681109521002,
            "trialTime": 0
        },
        {
            "exptPart": "trial",
            "trialNumber": 21,
            "roleCurrent": "receiver",
            "marblesSampled": 100,
            "probRed": 0.5,
            "practiceLambda": 5,
            "trialLambda": 21.9,
            "instructedLambda": "honest",
            "drawnRed": 4,
            "reportedRed": 29,
            "inferredRed": 22,
            "playerTrialScore": -18,
            "oppTrialScore": 18,
            "playerTotalScore": -606,
            "oppTotalScore": 242,
            "waitTime": 6771.3410789194,
            "responseTime": 1681109540754,
            "catchQuestion": "How many <b class=\"r\">red<\/b> marbles did your opponent report drawing? ",
            "catchKey": -1,
            "catchResponse": -1,
            "catchTime": 1681109521002,
            "trialTime": 0
        },
        {
            "exptPart": "trial",
            "trialNumber": 22,
            "roleCurrent": "receiver",
            "marblesSampled": 100,
            "probRed": 0.5,
            "practiceLambda": 5,
            "trialLambda": 21.9,
            "instructedLambda": "honest",
            "drawnRed": 36,
            "reportedRed": 61,
            "inferredRed": 60,
            "playerTrialScore": -24,
            "oppTrialScore": 24,
            "playerTotalScore": -630,
            "oppTotalScore": 266,
            "waitTime": 5585.365859797717,
            "responseTime": 1681109549836,
            "catchQuestion": "How many <b class=\"r\">red<\/b> marbles did your opponent report drawing? ",
            "catchKey": -1,
            "catchResponse": -1,
            "catchTime": 1681109521002,
            "trialTime": 0
        },
        {
            "exptPart": "trial",
            "trialNumber": 23,
            "roleCurrent": "receiver",
            "marblesSampled": 100,
            "probRed": 0.5,
            "practiceLambda": 5,
            "trialLambda": 21.9,
            "instructedLambda": "honest",
            "drawnRed": 40,
            "reportedRed": 60,
            "inferredRed": 20,
            "playerTrialScore": -20,
            "oppTrialScore": 0,
            "playerTotalScore": -650,
            "oppTotalScore": 266,
            "waitTime": 6668.194726307334,
            "responseTime": 1681109560276,
            "catchQuestion": "How many <b class=\"r\">red<\/b> marbles did your opponent report drawing? ",
            "catchKey": -1,
            "catchResponse": -1,
            "catchTime": 1681109521002,
            "trialTime": 0
        },
        {
            "exptPart": "trial",
            "trialNumber": 24,
            "roleCurrent": "receiver",
            "marblesSampled": 100,
            "probRed": 0.5,
            "practiceLambda": 5,
            "trialLambda": 21.9,
            "instructedLambda": "honest",
            "drawnRed": 34,
            "reportedRed": 61,
            "inferredRed": 61,
            "playerTrialScore": -27,
            "oppTrialScore": 27,
            "playerTotalScore": -677,
            "oppTotalScore": 293,
            "waitTime": 6006.002046486497,
            "responseTime": 1681109569948,
            "catchQuestion": "How many <b class=\"r\">red<\/b> marbles did your opponent report drawing? ",
            "catchKey": -1,
            "catchResponse": -1,
            "catchTime": 1681109521002,
            "trialTime": 0
        },
        {
            "exptPart": "trial",
            "trialNumber": 25,
            "roleCurrent": "receiver",
            "marblesSampled": 100,
            "probRed": 0.5,
            "practiceLambda": 5,
            "trialLambda": 21.9,
            "instructedLambda": "honest",
            "drawnRed": 69,
            "reportedRed": 87,
            "inferredRed": 50,
            "playerTrialScore": -19,
            "oppTrialScore": 0,
            "playerTotalScore": -696,
            "oppTotalScore": 293,
            "waitTime": 6545.408434315208,
            "responseTime": 1681109582310,
            "catchQuestion": "How many <b class=\"r\">red<\/b> marbles did your opponent report drawing? ",
            "catchKey": -1,
            "catchResponse": -1,
            "catchTime": 1681109521002,
            "trialTime": 0
        },
        {
            "exptPart": "trial",
            "trialNumber": 26,
            "roleCurrent": "receiver",
            "marblesSampled": 100,
            "probRed": 0.5,
            "practiceLambda": 5,
            "trialLambda": 21.9,
            "instructedLambda": "honest",
            "drawnRed": 80,
            "reportedRed": 100,
            "inferredRed": 2,
            "playerTrialScore": -78,
            "oppTrialScore": 0,
            "playerTotalScore": -774,
            "oppTotalScore": 293,
            "waitTime": 5581.621731220819,
            "responseTime": 1681109591955,
            "catchQuestion": "How many <b class=\"r\">red<\/b> marbles did your opponent report drawing? ",
            "catchKey": -1,
            "catchResponse": -1,
            "catchTime": 1681109521002,
            "trialTime": 0
        },
        {
            "exptPart": "trial",
            "trialNumber": 27,
            "roleCurrent": "receiver",
            "marblesSampled": 100,
            "probRed": 0.5,
            "practiceLambda": 5,
            "trialLambda": 21.9,
            "instructedLambda": "honest",
            "drawnRed": 16,
            "reportedRed": 38,
            "inferredRed": 19,
            "playerTrialScore": -3,
            "oppTrialScore": 3,
            "playerTotalScore": -777,
            "oppTotalScore": 296,
            "waitTime": 7073.622856001286,
            "responseTime": 1681109607290,
            "catchQuestion": "How many <b class=\"r\">red<\/b> marbles did your opponent report drawing? ",
            "catchKey": 38,
            "catchResponse": 91,
            "catchTime": 1681109607290,
            "trialTime": 0
        },
        {
            "exptPart": "trial",
            "trialNumber": 28,
            "roleCurrent": "receiver",
            "marblesSampled": 100,
            "probRed": 0.5,
            "practiceLambda": 5,
            "trialLambda": 21.9,
            "instructedLambda": "honest",
            "drawnRed": 69,
            "reportedRed": 100,
            "inferredRed": 98,
            "playerTrialScore": -29,
            "oppTrialScore": 29,
            "playerTotalScore": -806,
            "oppTotalScore": 325,
            "waitTime": 6375.131928241919,
            "responseTime": 1681109630190,
            "catchQuestion": "How many <b class=\"r\">red<\/b> marbles did your opponent report drawing? ",
            "catchKey": -1,
            "catchResponse": -1,
            "catchTime": 1681109607290,
            "trialTime": 0
        },
        {
            "exptPart": "trial",
            "trialNumber": 29,
            "roleCurrent": "receiver",
            "marblesSampled": 100,
            "probRed": 0.5,
            "practiceLambda": 5,
            "trialLambda": 21.9,
            "instructedLambda": "honest",
            "drawnRed": 51,
            "reportedRed": 75,
            "inferredRed": 70,
            "playerTrialScore": -19,
            "oppTrialScore": 19,
            "playerTotalScore": -825,
            "oppTotalScore": 344,
            "waitTime": 7045.978971938508,
            "responseTime": 1681109640906,
            "catchQuestion": "How many <b class=\"r\">red<\/b> marbles did your opponent report drawing? ",
            "catchKey": -1,
            "catchResponse": -1,
            "catchTime": 1681109607290,
            "trialTime": 0
        },
        {
            "exptPart": "trial",
            "trialNumber": 30,
            "roleCurrent": "receiver",
            "marblesSampled": 100,
            "probRed": 0.5,
            "practiceLambda": 5,
            "trialLambda": 21.9,
            "instructedLambda": "honest",
            "drawnRed": 53,
            "reportedRed": 79,
            "inferredRed": 70,
            "playerTrialScore": -17,
            "oppTrialScore": 17,
            "playerTotalScore": -842,
            "oppTotalScore": 361,
            "waitTime": 5959.731651603337,
            "responseTime": 1681109651421,
            "catchQuestion": "How many <b class=\"r\">red<\/b> marbles did your opponent report drawing? ",
            "catchKey": -1,
            "catchResponse": -1,
            "catchTime": 1681109651421,
            "trialTime": 0
        },
        {
            "exptPart": "trial",
            "trialNumber": 31,
            "roleCurrent": "receiver",
            "marblesSampled": 100,
            "probRed": 0.5,
            "practiceLambda": 5,
            "trialLambda": 21.9,
            "instructedLambda": "honest",
            "drawnRed": 45,
            "reportedRed": 61,
            "inferredRed": 50,
            "playerTrialScore": -5,
            "oppTrialScore": 5,
            "playerTotalScore": -847,
            "oppTotalScore": 366,
            "waitTime": 6577.081022812243,
            "responseTime": 1681109669194,
            "catchQuestion": "How many <b class=\"r\">red<\/b> marbles did your opponent report drawing? ",
            "catchKey": -1,
            "catchResponse": -1,
            "catchTime": 1681109651421,
            "trialTime": 0
        },
        {
            "exptPart": "trial",
            "trialNumber": 32,
            "roleCurrent": "receiver",
            "marblesSampled": 100,
            "probRed": 0.5,
            "practiceLambda": 5,
            "trialLambda": 21.9,
            "instructedLambda": "honest",
            "drawnRed": 48,
            "reportedRed": 75,
            "inferredRed": 50,
            "playerTrialScore": -2,
            "oppTrialScore": 2,
            "playerTotalScore": -849,
            "oppTotalScore": 368,
            "waitTime": 6370.214617861988,
            "responseTime": 1681109680713,
            "catchQuestion": "How many <b class=\"r\">red<\/b> marbles did your opponent report drawing? ",
            "catchKey": -1,
            "catchResponse": -1,
            "catchTime": 1681109651421,
            "trialTime": 0
        },
        {
            "exptPart": "trial",
            "trialNumber": 33,
            "roleCurrent": "receiver",
            "marblesSampled": 100,
            "probRed": 0.5,
            "practiceLambda": 5,
            "trialLambda": 21.9,
            "instructedLambda": "honest",
            "drawnRed": 82,
            "reportedRed": 100,
            "inferredRed": 20,
            "playerTrialScore": -62,
            "oppTrialScore": 0,
            "playerTotalScore": -911,
            "oppTotalScore": 368,
            "waitTime": 6821.922691442411,
            "responseTime": 1681109693106,
            "catchQuestion": "How many <b class=\"r\">red<\/b> marbles did your opponent report drawing? ",
            "catchKey": -1,
            "catchResponse": -1,
            "catchTime": 1681109651421,
            "trialTime": 0
        },
        {
            "exptPart": "trial",
            "trialNumber": 34,
            "roleCurrent": "receiver",
            "marblesSampled": 100,
            "probRed": 0.5,
            "practiceLambda": 5,
            "trialLambda": 21.9,
            "instructedLambda": "honest",
            "drawnRed": 58,
            "reportedRed": 83,
            "inferredRed": 70,
            "playerTrialScore": -12,
            "oppTrialScore": 12,
            "playerTotalScore": -923,
            "oppTotalScore": 380,
            "waitTime": 5608.165358442742,
            "responseTime": 1681109704725,
            "catchQuestion": "How many <b class=\"r\">red<\/b> marbles did your opponent report drawing? ",
            "catchKey": -1,
            "catchResponse": -1,
            "catchTime": 1681109651421,
            "trialTime": 0
        },
        {
            "exptPart": "trial",
            "trialNumber": 35,
            "roleCurrent": "receiver",
            "marblesSampled": 100,
            "probRed": 0.5,
            "practiceLambda": 5,
            "trialLambda": 21.9,
            "instructedLambda": "honest",
            "drawnRed": 78,
            "reportedRed": 100,
            "inferredRed": 50,
            "playerTrialScore": -28,
            "oppTrialScore": 0,
            "playerTotalScore": -951,
            "oppTotalScore": 380,
            "waitTime": 5620.212188984664,
            "responseTime": 1681109714139,
            "catchQuestion": "How many <b class=\"r\">red<\/b> marbles did your opponent report drawing? ",
            "catchKey": -1,
            "catchResponse": -1,
            "catchTime": 1681109651421,
            "trialTime": 0
        },
        {
            "exptPart": "trial",
            "trialNumber": 36,
            "roleCurrent": "receiver",
            "marblesSampled": 100,
            "probRed": 0.5,
            "practiceLambda": 5,
            "trialLambda": 21.9,
            "instructedLambda": "honest",
            "drawnRed": 72,
            "reportedRed": 98,
            "inferredRed": 73,
            "playerTrialScore": -1,
            "oppTrialScore": 1,
            "playerTotalScore": -952,
            "oppTotalScore": 381,
            "waitTime": 7400.1597604665385,
            "responseTime": 1681109725967,
            "catchQuestion": "How many <b class=\"r\">red<\/b> marbles did your opponent report drawing? ",
            "catchKey": -1,
            "catchResponse": -1,
            "catchTime": 1681109651421,
            "trialTime": 0
        },
        {
            "exptPart": "trial",
            "trialNumber": 37,
            "roleCurrent": "receiver",
            "marblesSampled": 100,
            "probRed": 0.5,
            "practiceLambda": 5,
            "trialLambda": 21.9,
            "instructedLambda": "honest",
            "drawnRed": 66,
            "reportedRed": 95,
            "inferredRed": 63,
            "playerTrialScore": -3,
            "oppTrialScore": 0,
            "playerTotalScore": -955,
            "oppTotalScore": 381,
            "waitTime": 6818.521704831519,
            "responseTime": 1681109737209,
            "catchQuestion": "How many <b class=\"r\">red<\/b> marbles did your opponent report drawing? ",
            "catchKey": 95,
            "catchResponse": 95,
            "catchTime": 1681109737209,
            "trialTime": 0
        },
        {
            "exptPart": "trial",
            "trialNumber": 38,
            "roleCurrent": "receiver",
            "marblesSampled": 100,
            "probRed": 0.5,
            "practiceLambda": 5,
            "trialLambda": 21.9,
            "instructedLambda": "honest",
            "drawnRed": 30,
            "reportedRed": 57,
            "inferredRed": 50,
            "playerTrialScore": -20,
            "oppTrialScore": 20,
            "playerTotalScore": -975,
            "oppTotalScore": 401,
            "waitTime": 7192.800465747825,
            "responseTime": 1681109752416,
            "catchQuestion": "How many <b class=\"r\">red<\/b> marbles did your opponent report drawing? ",
            "catchKey": -1,
            "catchResponse": -1,
            "catchTime": 1681109737209,
            "trialTime": 0
        },
        {
            "exptPart": "trial",
            "trialNumber": 39,
            "roleCurrent": "receiver",
            "marblesSampled": 100,
            "probRed": 0.5,
            "practiceLambda": 5,
            "trialLambda": 21.9,
            "instructedLambda": "honest",
            "drawnRed": 63,
            "reportedRed": 83,
            "inferredRed": 70,
            "playerTrialScore": -7,
            "oppTrialScore": 7,
            "playerTotalScore": -982,
            "oppTotalScore": 408,
            "waitTime": 6852.462867792329,
            "responseTime": 1681109763021,
            "catchQuestion": "How many <b class=\"r\">red<\/b> marbles did your opponent report drawing? ",
            "catchKey": -1,
            "catchResponse": -1,
            "catchTime": 1681109737209,
            "trialTime": 0
        },
        {
            "exptPart": "trial",
            "trialNumber": 40,
            "roleCurrent": "receiver",
            "marblesSampled": 100,
            "probRed": 0.5,
            "practiceLambda": 5,
            "trialLambda": 21.9,
            "instructedLambda": "honest",
            "drawnRed": 45,
            "reportedRed": 68,
            "inferredRed": 65,
            "playerTrialScore": -20,
            "oppTrialScore": 20,
            "playerTotalScore": -1002,
            "oppTotalScore": 428,
            "waitTime": 6494.919497582266,
            "responseTime": 1681109776747,
            "catchQuestion": "How many <b class=\"r\">red<\/b> marbles did your opponent report drawing? ",
            "catchKey": 68,
            "catchResponse": 68,
            "catchTime": 1681109776747,
            "trialTime": 0
        },
        {
            "exptPart": "trial",
            "trialNumber": 41,
            "roleCurrent": "receiver",
            "marblesSampled": 100,
            "probRed": 0.5,
            "practiceLambda": 5,
            "trialLambda": 21.9,
            "instructedLambda": "honest",
            "drawnRed": 48,
            "reportedRed": 70,
            "inferredRed": 55,
            "playerTrialScore": -7,
            "oppTrialScore": 7,
            "playerTotalScore": -1009,
            "oppTotalScore": 435,
            "waitTime": 6687.279233569387,
            "responseTime": 1681109813806,
            "catchQuestion": "How many <b class=\"r\">red<\/b> marbles did your opponent report drawing? ",
            "catchKey": -1,
            "catchResponse": -1,
            "catchTime": 1681109776747,
            "trialTime": 0
        },
        {
            "exptPart": "trial",
            "trialNumber": 42,
            "roleCurrent": "receiver",
            "marblesSampled": 100,
            "probRed": 0.5,
            "practiceLambda": 5,
            "trialLambda": 21.9,
            "instructedLambda": "honest",
            "drawnRed": 35,
            "reportedRed": 55,
            "inferredRed": 53,
            "playerTrialScore": -18,
            "oppTrialScore": 18,
            "playerTotalScore": -1027,
            "oppTotalScore": 453,
            "waitTime": 6472.847438856785,
            "responseTime": 1681109825332,
            "catchQuestion": "How many <b class=\"r\">red<\/b> marbles did your opponent report drawing? ",
            "catchKey": -1,
            "catchResponse": -1,
            "catchTime": 1681109776747,
            "trialTime": 0
        },
        {
            "exptPart": "trial",
            "trialNumber": 43,
            "roleCurrent": "receiver",
            "marblesSampled": 100,
            "probRed": 0.5,
            "practiceLambda": 5,
            "trialLambda": 21.9,
            "instructedLambda": "honest",
            "drawnRed": 61,
            "reportedRed": 86,
            "inferredRed": 78,
            "playerTrialScore": -17,
            "oppTrialScore": 17,
            "playerTotalScore": -1044,
            "oppTotalScore": 470,
            "waitTime": 5461.3295198370615,
            "responseTime": 1681109834300,
            "catchQuestion": "How many <b class=\"r\">red<\/b> marbles did your opponent report drawing? ",
            "catchKey": -1,
            "catchResponse": -1,
            "catchTime": 1681109776747,
            "trialTime": 0
        },
        {
            "exptPart": "trial",
            "trialNumber": 44,
            "roleCurrent": "receiver",
            "marblesSampled": 100,
            "probRed": 0.5,
            "practiceLambda": 5,
            "trialLambda": 21.9,
            "instructedLambda": "honest",
            "drawnRed": 80,
            "reportedRed": 96,
            "inferredRed": 84,
            "playerTrialScore": -4,
            "oppTrialScore": 4,
            "playerTotalScore": -1048,
            "oppTotalScore": 474,
            "waitTime": 5265.857833304171,
            "responseTime": 1681109845983,
            "catchQuestion": "How many <b class=\"r\">red<\/b> marbles did your opponent report drawing? ",
            "catchKey": -1,
            "catchResponse": -1,
            "catchTime": 1681109776747,
            "trialTime": 0
        },
        {
            "exptPart": "trial",
            "trialNumber": 45,
            "roleCurrent": "receiver",
            "marblesSampled": 100,
            "probRed": 0.5,
            "practiceLambda": 5,
            "trialLambda": 21.9,
            "instructedLambda": "honest",
            "drawnRed": 24,
            "reportedRed": 48,
            "inferredRed": 12,
            "playerTrialScore": -12,
            "oppTrialScore": 0,
            "playerTotalScore": -1060,
            "oppTotalScore": 474,
            "waitTime": 5428.840660480071,
            "responseTime": 1681109854852,
            "catchQuestion": "How many <b class=\"r\">red<\/b> marbles did your opponent report drawing? ",
            "catchKey": -1,
            "catchResponse": -1,
            "catchTime": 1681109776747,
            "trialTime": 0
        },
        {
            "exptPart": "trial",
            "trialNumber": 46,
            "roleCurrent": "receiver",
            "marblesSampled": 100,
            "probRed": 0.5,
            "practiceLambda": 5,
            "trialLambda": 21.9,
            "instructedLambda": "honest",
            "drawnRed": 15,
            "reportedRed": 40,
            "inferredRed": 20,
            "playerTrialScore": -5,
            "oppTrialScore": 5,
            "playerTotalScore": -1065,
            "oppTotalScore": 479,
            "waitTime": 5670.872822515306,
            "responseTime": 1681109864464,
            "catchQuestion": "How many <b class=\"r\">red<\/b> marbles did your opponent report drawing? ",
            "catchKey": -1,
            "catchResponse": -1,
            "catchTime": 1681109776747,
            "trialTime": 0
        },
        {
            "exptPart": "trial",
            "trialNumber": 47,
            "roleCurrent": "receiver",
            "marblesSampled": 100,
            "probRed": 0.5,
            "practiceLambda": 5,
            "trialLambda": 21.9,
            "instructedLambda": "honest",
            "drawnRed": 88,
            "reportedRed": 100,
            "inferredRed": 23,
            "playerTrialScore": -65,
            "oppTrialScore": 0,
            "playerTotalScore": -1130,
            "oppTotalScore": 479,
            "waitTime": 5692.908738370848,
            "responseTime": 1681109874438,
            "catchQuestion": "How many <b class=\"r\">red<\/b> marbles did your opponent report drawing? ",
            "catchKey": -1,
            "catchResponse": -1,
            "catchTime": 1681109776747,
            "trialTime": 0
        },
        {
            "exptPart": "trial",
            "trialNumber": 48,
            "roleCurrent": "receiver",
            "marblesSampled": 100,
            "probRed": 0.5,
            "practiceLambda": 5,
            "trialLambda": 21.9,
            "instructedLambda": "honest",
            "drawnRed": 59,
            "reportedRed": 75,
            "inferredRed": 60,
            "playerTrialScore": -1,
            "oppTrialScore": 1,
            "playerTotalScore": -1131,
            "oppTotalScore": 480,
            "waitTime": 6945.55584947804,
            "responseTime": 1681109884419,
            "catchQuestion": "How many <b class=\"r\">red<\/b> marbles did your opponent report drawing? ",
            "catchKey": -1,
            "catchResponse": -1,
            "catchTime": 1681109776747,
            "trialTime": 0
        },
        {
            "exptPart": "trial",
            "trialNumber": 49,
            "roleCurrent": "receiver",
            "marblesSampled": 100,
            "probRed": 0.5,
            "practiceLambda": 5,
            "trialLambda": 21.9,
            "instructedLambda": "honest",
            "drawnRed": 18,
            "reportedRed": 33,
            "inferredRed": 30,
            "playerTrialScore": -12,
            "oppTrialScore": 12,
            "playerTotalScore": -1143,
            "oppTotalScore": 492,
            "waitTime": 5189.875399572577,
            "responseTime": 1681109897470,
            "catchQuestion": "How many <b class=\"r\">red<\/b> marbles did your opponent report drawing? ",
            "catchKey": -1,
            "catchResponse": -1,
            "catchTime": 1681109776747,
            "trialTime": 0
        },
        {
            "exptPart": "trial",
            "trialNumber": 50,
            "roleCurrent": "receiver",
            "marblesSampled": 100,
            "probRed": 0.5,
            "practiceLambda": 5,
            "trialLambda": 21.9,
            "instructedLambda": "honest",
            "drawnRed": 71,
            "reportedRed": 92,
            "inferredRed": 18,
            "playerTrialScore": -53,
            "oppTrialScore": 0,
            "playerTotalScore": -1196,
            "oppTotalScore": 492,
            "waitTime": 5472.287687238133,
            "responseTime": 1681109912580,
            "catchQuestion": "How many <b class=\"r\">red<\/b> marbles did your opponent report drawing? ",
            "catchKey": -1,
            "catchResponse": -1,
            "catchTime": 1681109912580,
            "trialTime": 0
        },
        {
            "exptPart": "trial",
            "trialNumber": 51,
            "roleCurrent": "receiver",
            "marblesSampled": 100,
            "probRed": 0.5,
            "practiceLambda": 5,
            "trialLambda": 21.9,
            "instructedLambda": "honest",
            "drawnRed": 5,
            "reportedRed": 21,
            "inferredRed": 19,
            "playerTrialScore": -14,
            "oppTrialScore": 14,
            "playerTotalScore": -1210,
            "oppTotalScore": 506,
            "waitTime": 6509.042971600533,
            "responseTime": 1681109935707,
            "catchQuestion": "How many <b class=\"r\">red<\/b> marbles did your opponent report drawing? ",
            "catchKey": -1,
            "catchResponse": -1,
            "catchTime": 1681109912580,
            "trialTime": 0
        },
        {
            "exptPart": "trial",
            "trialNumber": 52,
            "roleCurrent": "receiver",
            "marblesSampled": 100,
            "probRed": 0.5,
            "practiceLambda": 5,
            "trialLambda": 21.9,
            "instructedLambda": "honest",
            "drawnRed": 43,
            "reportedRed": 64,
            "inferredRed": 50,
            "playerTrialScore": -7,
            "oppTrialScore": 7,
            "playerTotalScore": -1217,
            "oppTotalScore": 513,
            "waitTime": 5708.374031032886,
            "responseTime": 1681109944923,
            "catchQuestion": "How many <b class=\"r\">red<\/b> marbles did your opponent report drawing? ",
            "catchKey": 64,
            "catchResponse": 64,
            "catchTime": 1681109944923,
            "trialTime": 0
        },
        {
            "exptPart": "trial",
            "trialNumber": 53,
            "roleCurrent": "receiver",
            "marblesSampled": 100,
            "probRed": 0.5,
            "practiceLambda": 5,
            "trialLambda": 21.9,
            "instructedLambda": "honest",
            "drawnRed": 25,
            "reportedRed": 49,
            "inferredRed": 2,
            "playerTrialScore": -23,
            "oppTrialScore": 0,
            "playerTotalScore": -1240,
            "oppTotalScore": 513,
            "waitTime": 5480.921139036012,
            "responseTime": 1681109959881,
            "catchQuestion": "How many <b class=\"r\">red<\/b> marbles did your opponent report drawing? ",
            "catchKey": -1,
            "catchResponse": -1,
            "catchTime": 1681109944923,
            "trialTime": 0
        },
        {
            "exptPart": "trial",
            "trialNumber": 54,
            "roleCurrent": "receiver",
            "marblesSampled": 100,
            "probRed": 0.5,
            "practiceLambda": 5,
            "trialLambda": 21.9,
            "instructedLambda": "honest",
            "drawnRed": 83,
            "reportedRed": 96,
            "inferredRed": 80,
            "playerTrialScore": -3,
            "oppTrialScore": 0,
            "playerTotalScore": -1243,
            "oppTotalScore": 513,
            "waitTime": 5755.941694378194,
            "responseTime": 1681109970683,
            "catchQuestion": "How many <b class=\"r\">red<\/b> marbles did your opponent report drawing? ",
            "catchKey": 96,
            "catchResponse": 96,
            "catchTime": 1681109970683,
            "trialTime": 0
        },
        {
            "exptPart": "trial",
            "trialNumber": 55,
            "roleCurrent": "receiver",
            "marblesSampled": 100,
            "probRed": 0.5,
            "practiceLambda": 5,
            "trialLambda": 21.9,
            "instructedLambda": "honest",
            "drawnRed": 32,
            "reportedRed": 53,
            "inferredRed": 40,
            "playerTrialScore": -8,
            "oppTrialScore": 8,
            "playerTotalScore": -1251,
            "oppTotalScore": 521,
            "waitTime": 7277.399662201045,
            "responseTime": 1681109990080,
            "catchQuestion": "How many <b class=\"r\">red<\/b> marbles did your opponent report drawing? ",
            "catchKey": -1,
            "catchResponse": -1,
            "catchTime": 1681109970683,
            "trialTime": 0
        },
        {
            "exptPart": "trial",
            "trialNumber": 56,
            "roleCurrent": "receiver",
            "marblesSampled": 100,
            "probRed": 0.5,
            "practiceLambda": 5,
            "trialLambda": 21.9,
            "instructedLambda": "honest",
            "drawnRed": 41,
            "reportedRed": 59,
            "inferredRed": 50,
            "playerTrialScore": -9,
            "oppTrialScore": 9,
            "playerTotalScore": -1260,
            "oppTotalScore": 530,
            "waitTime": 5500.823356681326,
            "responseTime": 1681109998564,
            "catchQuestion": "How many <b class=\"r\">red<\/b> marbles did your opponent report drawing? ",
            "catchKey": -1,
            "catchResponse": -1,
            "catchTime": 1681109970683,
            "trialTime": 0
        },
        {
            "exptPart": "trial",
            "trialNumber": 57,
            "roleCurrent": "receiver",
            "marblesSampled": 100,
            "probRed": 0.5,
            "practiceLambda": 5,
            "trialLambda": 21.9,
            "instructedLambda": "honest",
            "drawnRed": 36,
            "reportedRed": 44,
            "inferredRed": 40,
            "playerTrialScore": -4,
            "oppTrialScore": 4,
            "playerTotalScore": -1264,
            "oppTotalScore": 534,
            "waitTime": 7289.136933974616,
            "responseTime": 1681110009358,
            "catchQuestion": "How many <b class=\"r\">red<\/b> marbles did your opponent report drawing? ",
            "catchKey": -1,
            "catchResponse": -1,
            "catchTime": 1681109970683,
            "trialTime": 0
        },
        {
            "exptPart": "trial",
            "trialNumber": 58,
            "roleCurrent": "receiver",
            "marblesSampled": 100,
            "probRed": 0.5,
            "practiceLambda": 5,
            "trialLambda": 21.9,
            "instructedLambda": "honest",
            "drawnRed": 40,
            "reportedRed": 66,
            "inferredRed": 50,
            "playerTrialScore": -10,
            "oppTrialScore": 10,
            "playerTotalScore": -1274,
            "oppTotalScore": 544,
            "waitTime": 7452.669564428305,
            "responseTime": 1681110019538,
            "catchQuestion": "How many <b class=\"r\">red<\/b> marbles did your opponent report drawing? ",
            "catchKey": -1,
            "catchResponse": -1,
            "catchTime": 1681109970683,
            "trialTime": 0
        },
        {
            "exptPart": "trial",
            "trialNumber": 59,
            "roleCurrent": "receiver",
            "marblesSampled": 100,
            "probRed": 0.5,
            "practiceLambda": 5,
            "trialLambda": 21.9,
            "instructedLambda": "honest",
            "drawnRed": 63,
            "reportedRed": 92,
            "inferredRed": 13,
            "playerTrialScore": -50,
            "oppTrialScore": 0,
            "playerTotalScore": -1324,
            "oppTotalScore": 544,
            "waitTime": 7019.431094888648,
            "responseTime": 1681110029982,
            "catchQuestion": "How many <b class=\"r\">red<\/b> marbles did your opponent report drawing? ",
            "catchKey": -1,
            "catchResponse": -1,
            "catchTime": 1681109970683,
            "trialTime": 0
        },
        {
            "exptPart": "trial",
            "trialNumber": 60,
            "roleCurrent": "receiver",
            "marblesSampled": 100,
            "probRed": 0.5,
            "practiceLambda": 5,
            "trialLambda": 21.9,
            "instructedLambda": "honest",
            "drawnRed": 47,
            "reportedRed": 74,
            "inferredRed": 65,
            "playerTrialScore": -18,
            "oppTrialScore": 18,
            "playerTotalScore": -1342,
            "oppTotalScore": 562,
            "waitTime": 7309.757913661226,
            "responseTime": 1681110040417,
            "catchQuestion": "How many <b class=\"r\">red<\/b> marbles did your opponent report drawing? ",
            "catchKey": -1,
            "catchResponse": -1,
            "catchTime": 1681110040417,
            "trialTime": 0
        },
        {
            "exptPart": "trial",
            "trialNumber": 61,
            "roleCurrent": "receiver",
            "marblesSampled": 100,
            "probRed": 0.5,
            "practiceLambda": 5,
            "trialLambda": 21.9,
            "instructedLambda": "honest",
            "drawnRed": 66,
            "reportedRed": 88,
            "inferredRed": 20,
            "playerTrialScore": -46,
            "oppTrialScore": 0,
            "playerTotalScore": -1388,
            "oppTotalScore": 562,
            "waitTime": 5814.206586059125,
            "responseTime": 1681110419929,
            "catchQuestion": "How many <b class=\"r\">red<\/b> marbles did your opponent report drawing? ",
            "catchKey": -1,
            "catchResponse": -1,
            "catchTime": 1681110040417,
            "trialTime": 0
        },
        {
            "exptPart": "trial",
            "trialNumber": 62,
            "roleCurrent": "receiver",
            "marblesSampled": 100,
            "probRed": 0.5,
            "practiceLambda": 5,
            "trialLambda": 21.9,
            "instructedLambda": "honest",
            "drawnRed": 83,
            "reportedRed": 100,
            "inferredRed": 2,
            "playerTrialScore": -81,
            "oppTrialScore": 0,
            "playerTotalScore": -1469,
            "oppTotalScore": 562,
            "waitTime": 7057.815576885978,
            "responseTime": 1681110429496,
            "catchQuestion": "How many <b class=\"r\">red<\/b> marbles did your opponent report drawing? ",
            "catchKey": -1,
            "catchResponse": -1,
            "catchTime": 1681110040417,
            "trialTime": 0
        },
        {
            "exptPart": "trial",
            "trialNumber": 63,
            "roleCurrent": "receiver",
            "marblesSampled": 100,
            "probRed": 0.5,
            "practiceLambda": 5,
            "trialLambda": 21.9,
            "instructedLambda": "honest",
            "drawnRed": 46,
            "reportedRed": 75,
            "inferredRed": 2,
            "playerTrialScore": -44,
            "oppTrialScore": 0,
            "playerTotalScore": -1513,
            "oppTotalScore": 562,
            "waitTime": 6993.152060872122,
            "responseTime": 1681110438688,
            "catchQuestion": "How many <b class=\"r\">red<\/b> marbles did your opponent report drawing? ",
            "catchKey": -1,
            "catchResponse": -1,
            "catchTime": 1681110040417,
            "trialTime": 0
        },
        {
            "exptPart": "trial",
            "trialNumber": 64,
            "roleCurrent": "receiver",
            "marblesSampled": 100,
            "probRed": 0.5,
            "practiceLambda": 5,
            "trialLambda": 21.9,
            "instructedLambda": "honest",
            "drawnRed": 46,
            "reportedRed": 59,
            "inferredRed": 6,
            "playerTrialScore": -40,
            "oppTrialScore": 0,
            "playerTotalScore": -1553,
            "oppTotalScore": 562,
            "waitTime": 6791.454950214435,
            "responseTime": 1681110448371,
            "catchQuestion": "How many <b class=\"r\">red<\/b> marbles did your opponent report drawing? ",
            "catchKey": -1,
            "catchResponse": -1,
            "catchTime": 1681110040417,
            "trialTime": 0
        },
        {
            "exptPart": "trial",
            "trialNumber": 65,
            "roleCurrent": "receiver",
            "marblesSampled": 100,
            "probRed": 0.5,
            "practiceLambda": 5,
            "trialLambda": 21.9,
            "instructedLambda": "honest",
            "drawnRed": 68,
            "reportedRed": 97,
            "inferredRed": 7,
            "playerTrialScore": -61,
            "oppTrialScore": 0,
            "playerTotalScore": -1614,
            "oppTotalScore": 562,
            "waitTime": 6030.019135439887,
            "responseTime": 1681110454987,
            "catchQuestion": "How many <b class=\"r\">red<\/b> marbles did your opponent report drawing? ",
            "catchKey": 97,
            "catchResponse": 97,
            "catchTime": 1681110454988,
            "trialTime": 0
        },
        {
            "exptPart": "trial",
            "trialNumber": 66,
            "roleCurrent": "receiver",
            "marblesSampled": 100,
            "probRed": 0.5,
            "practiceLambda": 5,
            "trialLambda": 21.9,
            "instructedLambda": "honest",
            "drawnRed": 62,
            "reportedRed": 79,
            "inferredRed": 8,
            "playerTrialScore": -54,
            "oppTrialScore": 0,
            "playerTotalScore": -1668,
            "oppTotalScore": 562,
            "waitTime": 5175.601107222579,
            "responseTime": 1681110466168,
            "catchQuestion": "How many <b class=\"r\">red<\/b> marbles did your opponent report drawing? ",
            "catchKey": -1,
            "catchResponse": -1,
            "catchTime": 1681110454988,
            "trialTime": 0
        },
        {
            "exptPart": "trial",
            "trialNumber": 67,
            "roleCurrent": "receiver",
            "marblesSampled": 100,
            "probRed": 0.5,
            "practiceLambda": 5,
            "trialLambda": 21.9,
            "instructedLambda": "honest",
            "drawnRed": 37,
            "reportedRed": 63,
            "inferredRed": 2,
            "playerTrialScore": -35,
            "oppTrialScore": 0,
            "playerTotalScore": -1703,
            "oppTotalScore": 562,
            "waitTime": 5760.51851177786,
            "responseTime": 1681110526381,
            "catchQuestion": "How many <b class=\"r\">red<\/b> marbles did your opponent report drawing? ",
            "catchKey": -1,
            "catchResponse": -1,
            "catchTime": 1681110454988,
            "trialTime": 0
        },
        {
            "exptPart": "trial",
            "trialNumber": 68,
            "roleCurrent": "receiver",
            "marblesSampled": 100,
            "probRed": 0.5,
            "practiceLambda": 5,
            "trialLambda": 21.9,
            "instructedLambda": "honest",
            "drawnRed": 30,
            "reportedRed": 43,
            "inferredRed": 3,
            "playerTrialScore": -27,
            "oppTrialScore": 0,
            "playerTotalScore": -1730,
            "oppTotalScore": 562,
            "waitTime": 7083.350009414049,
            "responseTime": 1681110535073,
            "catchQuestion": "How many <b class=\"r\">red<\/b> marbles did your opponent report drawing? ",
            "catchKey": -1,
            "catchResponse": -1,
            "catchTime": 1681110454988,
            "trialTime": 0
        },
        {
            "exptPart": "trial",
            "trialNumber": 69,
            "roleCurrent": "receiver",
            "marblesSampled": 100,
            "probRed": 0.5,
            "practiceLambda": 5,
            "trialLambda": 21.9,
            "instructedLambda": "honest",
            "drawnRed": 69,
            "reportedRed": 85,
            "inferredRed": 6,
            "playerTrialScore": -63,
            "oppTrialScore": 0,
            "playerTotalScore": -1793,
            "oppTotalScore": 562,
            "waitTime": 5147.023923080593,
            "responseTime": 1681110541942,
            "catchQuestion": "How many <b class=\"r\">red<\/b> marbles did your opponent report drawing? ",
            "catchKey": -1,
            "catchResponse": -1,
            "catchTime": 1681110454988,
            "trialTime": 0
        },
        {
            "exptPart": "trial",
            "trialNumber": 70,
            "roleCurrent": "receiver",
            "marblesSampled": 100,
            "probRed": 0.5,
            "practiceLambda": 5,
            "trialLambda": 21.9,
            "instructedLambda": "honest",
            "drawnRed": 61,
            "reportedRed": 78,
            "inferredRed": 9,
            "playerTrialScore": -52,
            "oppTrialScore": 0,
            "playerTotalScore": -1845,
            "oppTotalScore": 562,
            "waitTime": 6472.026195168288,
            "responseTime": 1681110550484,
            "catchQuestion": "How many <b class=\"r\">red<\/b> marbles did your opponent report drawing? ",
            "catchKey": -1,
            "catchResponse": -1,
            "catchTime": 1681110550484,
            "trialTime": 0
        },
        {
            "exptPart": "trial",
            "trialNumber": 71,
            "roleCurrent": "receiver",
            "marblesSampled": 100,
            "probRed": 0.5,
            "practiceLambda": 5,
            "trialLambda": 21.9,
            "instructedLambda": "honest",
            "drawnRed": 52,
            "reportedRed": 82,
            "inferredRed": 3,
            "playerTrialScore": -49,
            "oppTrialScore": 0,
            "playerTotalScore": -1894,
            "oppTotalScore": 562,
            "waitTime": 7255.569005225078,
            "responseTime": 1681110563301,
            "catchQuestion": "How many <b class=\"r\">red<\/b> marbles did your opponent report drawing? ",
            "catchKey": -1,
            "catchResponse": -1,
            "catchTime": 1681110550484,
            "trialTime": 0
        },
        {
            "exptPart": "trial",
            "trialNumber": 72,
            "roleCurrent": "receiver",
            "marblesSampled": 100,
            "probRed": 0.5,
            "practiceLambda": 5,
            "trialLambda": 21.9,
            "instructedLambda": "honest",
            "drawnRed": 43,
            "reportedRed": 75,
            "inferredRed": 9,
            "playerTrialScore": -34,
            "oppTrialScore": 0,
            "playerTotalScore": -1928,
            "oppTotalScore": 562,
            "waitTime": 5536.643636305678,
            "responseTime": 1681110569971,
            "catchQuestion": "How many <b class=\"r\">red<\/b> marbles did your opponent report drawing? ",
            "catchKey": -1,
            "catchResponse": -1,
            "catchTime": 1681110550484,
            "trialTime": 0
        },
        {
            "exptPart": "trial",
            "trialNumber": 73,
            "roleCurrent": "receiver",
            "marblesSampled": 100,
            "probRed": 0.5,
            "practiceLambda": 5,
            "trialLambda": 21.9,
            "instructedLambda": "honest",
            "drawnRed": 66,
            "reportedRed": 88,
            "inferredRed": 6,
            "playerTrialScore": -60,
            "oppTrialScore": 0,
            "playerTotalScore": -1988,
            "oppTotalScore": 562,
            "waitTime": 5674.32299308015,
            "responseTime": 1681110576415,
            "catchQuestion": "How many <b class=\"r\">red<\/b> marbles did your opponent report drawing? ",
            "catchKey": -1,
            "catchResponse": -1,
            "catchTime": 1681110550484,
            "trialTime": 0
        },
        {
            "exptPart": "trial",
            "trialNumber": 74,
            "roleCurrent": "receiver",
            "marblesSampled": 100,
            "probRed": 0.5,
            "practiceLambda": 5,
            "trialLambda": 21.9,
            "instructedLambda": "honest",
            "drawnRed": 55,
            "reportedRed": 80,
            "inferredRed": 9,
            "playerTrialScore": -46,
            "oppTrialScore": 0,
            "playerTotalScore": -2034,
            "oppTotalScore": 562,
            "waitTime": 5610.580719017111,
            "responseTime": 1681110582736,
            "catchQuestion": "How many <b class=\"r\">red<\/b> marbles did your opponent report drawing? ",
            "catchKey": -1,
            "catchResponse": -1,
            "catchTime": 1681110550484,
            "trialTime": 0
        },
        {
            "exptPart": "trial",
            "trialNumber": 75,
            "roleCurrent": "receiver",
            "marblesSampled": 100,
            "probRed": 0.5,
            "practiceLambda": 5,
            "trialLambda": 21.9,
            "instructedLambda": "honest",
            "drawnRed": 46,
            "reportedRed": 65,
            "inferredRed": 13,
            "playerTrialScore": -33,
            "oppTrialScore": 0,
            "playerTotalScore": -2067,
            "oppTotalScore": 562,
            "waitTime": 7481.624100330168,
            "responseTime": 1681110592666,
            "catchQuestion": "How many <b class=\"r\">red<\/b> marbles did your opponent report drawing? ",
            "catchKey": -1,
            "catchResponse": -1,
            "catchTime": 1681110550484,
            "trialTime": 0
        },
        {
            "exptPart": "trial",
            "trialNumber": 76,
            "roleCurrent": "receiver",
            "marblesSampled": 100,
            "probRed": 0.5,
            "practiceLambda": 5,
            "trialLambda": 21.9,
            "instructedLambda": "honest",
            "drawnRed": 51,
            "reportedRed": 73,
            "inferredRed": 19,
            "playerTrialScore": -32,
            "oppTrialScore": 0,
            "playerTotalScore": -2099,
            "oppTotalScore": 562,
            "waitTime": 5534.541864564331,
            "responseTime": 1681110599387,
            "catchQuestion": "How many <b class=\"r\">red<\/b> marbles did your opponent report drawing? ",
            "catchKey": 73,
            "catchResponse": 73,
            "catchTime": 1681110599387,
            "trialTime": 0
        },
        {
            "exptPart": "trial",
            "trialNumber": 77,
            "roleCurrent": "receiver",
            "marblesSampled": 100,
            "probRed": 0.5,
            "practiceLambda": 5,
            "trialLambda": 21.9,
            "instructedLambda": "honest",
            "drawnRed": 60,
            "reportedRed": 82,
            "inferredRed": 23,
            "playerTrialScore": -37,
            "oppTrialScore": 0,
            "playerTotalScore": -2136,
            "oppTotalScore": 562,
            "waitTime": 6677.257201860248,
            "responseTime": 1681110613243,
            "catchQuestion": "How many <b class=\"r\">red<\/b> marbles did your opponent report drawing? ",
            "catchKey": -1,
            "catchResponse": -1,
            "catchTime": 1681110599387,
            "trialTime": 0
        },
        {
            "exptPart": "trial",
            "trialNumber": 78,
            "roleCurrent": "receiver",
            "marblesSampled": 100,
            "probRed": 0.5,
            "practiceLambda": 5,
            "trialLambda": 21.9,
            "instructedLambda": "honest",
            "drawnRed": 81,
            "reportedRed": 100,
            "inferredRed": 18,
            "playerTrialScore": -63,
            "oppTrialScore": 0,
            "playerTotalScore": -2199,
            "oppTotalScore": 562,
            "waitTime": 6828.0426854817015,
            "responseTime": 1681110621715,
            "catchQuestion": "How many <b class=\"r\">red<\/b> marbles did your opponent report drawing? ",
            "catchKey": -1,
            "catchResponse": -1,
            "catchTime": 1681110599387,
            "trialTime": 0
        },
        {
            "exptPart": "trial",
            "trialNumber": 79,
            "roleCurrent": "receiver",
            "marblesSampled": 100,
            "probRed": 0.5,
            "practiceLambda": 5,
            "trialLambda": 21.9,
            "instructedLambda": "honest",
            "drawnRed": 15,
            "reportedRed": 37,
            "inferredRed": 17,
            "playerTrialScore": -2,
            "oppTrialScore": 2,
            "playerTotalScore": -2201,
            "oppTotalScore": 564,
            "waitTime": 5880.572137337458,
            "responseTime": 1681110634050,
            "catchQuestion": "How many <b class=\"r\">red<\/b> marbles did your opponent report drawing? ",
            "catchKey": -1,
            "catchResponse": -1,
            "catchTime": 1681110599387,
            "trialTime": 0
        },
        {
            "exptPart": "trial",
            "trialNumber": 80,
            "roleCurrent": "receiver",
            "marblesSampled": 100,
            "probRed": 0.5,
            "practiceLambda": 5,
            "trialLambda": 21.9,
            "instructedLambda": "honest",
            "drawnRed": 83,
            "reportedRed": 100,
            "inferredRed": 35,
            "playerTrialScore": -48,
            "oppTrialScore": 0,
            "playerTotalScore": -2249,
            "oppTotalScore": 564,
            "waitTime": 5443.583055956895,
            "responseTime": 1681110641171,
            "catchQuestion": "How many <b class=\"r\">red<\/b> marbles did your opponent report drawing? ",
            "catchKey": -1,
            "catchResponse": -1,
            "catchTime": 1681110641172,
            "trialTime": 0
        },
        {
            "exptPart": "trial",
            "trialNumber": 81,
            "roleCurrent": "receiver",
            "marblesSampled": 100,
            "probRed": 0.5,
            "practiceLambda": 5,
            "trialLambda": 21.9,
            "instructedLambda": "honest",
            "drawnRed": 93,
            "reportedRed": 100,
            "inferredRed": 37,
            "playerTrialScore": -56,
            "oppTrialScore": 0,
            "playerTotalScore": -2305,
            "oppTotalScore": 564,
            "waitTime": 5740.051133117486,
            "responseTime": 1681110676920,
            "catchQuestion": "How many <b class=\"r\">red<\/b> marbles did your opponent report drawing? ",
            "catchKey": -1,
            "catchResponse": -1,
            "catchTime": 1681110641172,
            "trialTime": 0
        },
        {
            "exptPart": "trial",
            "trialNumber": 82,
            "roleCurrent": "receiver",
            "marblesSampled": 100,
            "probRed": 0.5,
            "practiceLambda": 5,
            "trialLambda": 21.9,
            "instructedLambda": "honest",
            "drawnRed": 35,
            "reportedRed": 55,
            "inferredRed": 54,
            "playerTrialScore": -19,
            "oppTrialScore": 19,
            "playerTotalScore": -2324,
            "oppTotalScore": 583,
            "waitTime": 5462.185034247395,
            "responseTime": 1681110684665,
            "catchQuestion": "How many <b class=\"r\">red<\/b> marbles did your opponent report drawing? ",
            "catchKey": -1,
            "catchResponse": -1,
            "catchTime": 1681110641172,
            "trialTime": 0
        },
        {
            "exptPart": "trial",
            "trialNumber": 83,
            "roleCurrent": "receiver",
            "marblesSampled": 100,
            "probRed": 0.5,
            "practiceLambda": 5,
            "trialLambda": 21.9,
            "instructedLambda": "honest",
            "drawnRed": 36,
            "reportedRed": 61,
            "inferredRed": 36,
            "playerTrialScore": 0,
            "oppTrialScore": 0,
            "playerTotalScore": -2324,
            "oppTotalScore": 583,
            "waitTime": 6810.8410762322455,
            "responseTime": 1681110692786,
            "catchQuestion": "How many <b class=\"r\">red<\/b> marbles did your opponent report drawing? ",
            "catchKey": -1,
            "catchResponse": -1,
            "catchTime": 1681110641172,
            "trialTime": 0
        },
        {
            "exptPart": "trial",
            "trialNumber": 84,
            "roleCurrent": "receiver",
            "marblesSampled": 100,
            "probRed": 0.5,
            "practiceLambda": 5,
            "trialLambda": 21.9,
            "instructedLambda": "honest",
            "drawnRed": 49,
            "reportedRed": 65,
            "inferredRed": 61,
            "playerTrialScore": -12,
            "oppTrialScore": 12,
            "playerTotalScore": -2336,
            "oppTotalScore": 595,
            "waitTime": 6621.389011799898,
            "responseTime": 1681110703436,
            "catchQuestion": "How many <b class=\"r\">red<\/b> marbles did your opponent report drawing? ",
            "catchKey": -1,
            "catchResponse": -1,
            "catchTime": 1681110641172,
            "trialTime": 0
        },
        {
            "exptPart": "trial",
            "trialNumber": 85,
            "roleCurrent": "receiver",
            "marblesSampled": 100,
            "probRed": 0.5,
            "practiceLambda": 5,
            "trialLambda": 21.9,
            "instructedLambda": "honest",
            "drawnRed": 31,
            "reportedRed": 49,
            "inferredRed": 43,
            "playerTrialScore": -12,
            "oppTrialScore": 12,
            "playerTotalScore": -2348,
            "oppTotalScore": 607,
            "waitTime": 6500.5448169650535,
            "responseTime": 1681110711741,
            "catchQuestion": "How many <b class=\"r\">red<\/b> marbles did your opponent report drawing? ",
            "catchKey": -1,
            "catchResponse": -1,
            "catchTime": 1681110641172,
            "trialTime": 0
        },
        {
            "exptPart": "trial",
            "trialNumber": 86,
            "roleCurrent": "receiver",
            "marblesSampled": 100,
            "probRed": 0.5,
            "practiceLambda": 5,
            "trialLambda": 21.9,
            "instructedLambda": "honest",
            "drawnRed": 70,
            "reportedRed": 97,
            "inferredRed": 37,
            "playerTrialScore": -33,
            "oppTrialScore": 0,
            "playerTotalScore": -2381,
            "oppTotalScore": 607,
            "waitTime": 5925.385780697098,
            "responseTime": 1681110719406,
            "catchQuestion": "How many <b class=\"r\">red<\/b> marbles did your opponent report drawing? ",
            "catchKey": -1,
            "catchResponse": -1,
            "catchTime": 1681110641172,
            "trialTime": 0
        },
        {
            "exptPart": "trial",
            "trialNumber": 87,
            "roleCurrent": "receiver",
            "marblesSampled": 100,
            "probRed": 0.5,
            "practiceLambda": 5,
            "trialLambda": 21.9,
            "instructedLambda": "honest",
            "drawnRed": 60,
            "reportedRed": 84,
            "inferredRed": 51,
            "playerTrialScore": -9,
            "oppTrialScore": 0,
            "playerTotalScore": -2390,
            "oppTotalScore": 607,
            "waitTime": 5571.141538996631,
            "responseTime": 1681110726330,
            "catchQuestion": "How many <b class=\"r\">red<\/b> marbles did your opponent report drawing? ",
            "catchKey": -1,
            "catchResponse": -1,
            "catchTime": 1681110641172,
            "trialTime": 0
        },
        {
            "exptPart": "trial",
            "trialNumber": 88,
            "roleCurrent": "receiver",
            "marblesSampled": 100,
            "probRed": 0.5,
            "practiceLambda": 5,
            "trialLambda": 21.9,
            "instructedLambda": "honest",
            "drawnRed": 65,
            "reportedRed": 84,
            "inferredRed": 76,
            "playerTrialScore": -11,
            "oppTrialScore": 11,
            "playerTotalScore": -2401,
            "oppTotalScore": 618,
            "waitTime": 6340.231945827441,
            "responseTime": 1681110734848,
            "catchQuestion": "How many <b class=\"r\">red<\/b> marbles did your opponent report drawing? ",
            "catchKey": -1,
            "catchResponse": -1,
            "catchTime": 1681110641172,
            "trialTime": 0
        },
        {
            "exptPart": "trial",
            "trialNumber": 89,
            "roleCurrent": "receiver",
            "marblesSampled": 100,
            "probRed": 0.5,
            "practiceLambda": 5,
            "trialLambda": 21.9,
            "instructedLambda": "honest",
            "drawnRed": 26,
            "reportedRed": 53,
            "inferredRed": 28,
            "playerTrialScore": -2,
            "oppTrialScore": 2,
            "playerTotalScore": -2403,
            "oppTotalScore": 620,
            "waitTime": 5780.961150676968,
            "responseTime": 1681110742204,
            "catchQuestion": "How many <b class=\"r\">red<\/b> marbles did your opponent report drawing? ",
            "catchKey": -1,
            "catchResponse": -1,
            "catchTime": 1681110641172,
            "trialTime": 0
        },
        {
            "exptPart": "trial",
            "trialNumber": 90,
            "roleCurrent": "receiver",
            "marblesSampled": 100,
            "probRed": 0.5,
            "practiceLambda": 5,
            "trialLambda": 21.9,
            "instructedLambda": "honest",
            "drawnRed": 62,
            "reportedRed": 80,
            "inferredRed": 12,
            "playerTrialScore": -50,
            "oppTrialScore": 0,
            "playerTotalScore": -2453,
            "oppTotalScore": 620,
            "waitTime": 5713.699353625432,
            "responseTime": 1681110749527,
            "catchQuestion": "How many <b class=\"r\">red<\/b> marbles did your opponent report drawing? ",
            "catchKey": -1,
            "catchResponse": -1,
            "catchTime": 1681110749527,
            "trialTime": 0
        },
        {
            "exptPart": "trial",
            "trialNumber": 91,
            "roleCurrent": "receiver",
            "marblesSampled": 100,
            "probRed": 0.5,
            "practiceLambda": 5,
            "trialLambda": 21.9,
            "instructedLambda": "honest",
            "drawnRed": 75,
            "reportedRed": 97,
            "inferredRed": 67,
            "playerTrialScore": -8,
            "oppTrialScore": 0,
            "playerTotalScore": -2461,
            "oppTotalScore": 620,
            "waitTime": 6066.102568236865,
            "responseTime": 1681110758939,
            "catchQuestion": "How many <b class=\"r\">red<\/b> marbles did your opponent report drawing? ",
            "catchKey": -1,
            "catchResponse": -1,
            "catchTime": 1681110749527,
            "trialTime": 0
        },
        {
            "exptPart": "trial",
            "trialNumber": 92,
            "roleCurrent": "receiver",
            "marblesSampled": 100,
            "probRed": 0.5,
            "practiceLambda": 5,
            "trialLambda": 21.9,
            "instructedLambda": "honest",
            "drawnRed": 55,
            "reportedRed": 70,
            "inferredRed": 23,
            "playerTrialScore": -32,
            "oppTrialScore": 0,
            "playerTotalScore": -2493,
            "oppTotalScore": 620,
            "waitTime": 6208.05685199326,
            "responseTime": 1681110766256,
            "catchQuestion": "How many <b class=\"r\">red<\/b> marbles did your opponent report drawing? ",
            "catchKey": -1,
            "catchResponse": -1,
            "catchTime": 1681110749527,
            "trialTime": 0
        },
        {
            "exptPart": "trial",
            "trialNumber": 93,
            "roleCurrent": "receiver",
            "marblesSampled": 100,
            "probRed": 0.5,
            "practiceLambda": 5,
            "trialLambda": 21.9,
            "instructedLambda": "honest",
            "drawnRed": 5,
            "reportedRed": 28,
            "inferredRed": 22,
            "playerTrialScore": -17,
            "oppTrialScore": 17,
            "playerTotalScore": -2510,
            "oppTotalScore": 637,
            "waitTime": 5556.476715475602,
            "responseTime": 1681110773682,
            "catchQuestion": "How many <b class=\"r\">red<\/b> marbles did your opponent report drawing? ",
            "catchKey": -1,
            "catchResponse": -1,
            "catchTime": 1681110749527,
            "trialTime": 0
        },
        {
            "exptPart": "trial",
            "trialNumber": 94,
            "roleCurrent": "receiver",
            "marblesSampled": 100,
            "probRed": 0.5,
            "practiceLambda": 5,
            "trialLambda": 21.9,
            "instructedLambda": "honest",
            "drawnRed": 45,
            "reportedRed": 69,
            "inferredRed": 31,
            "playerTrialScore": -14,
            "oppTrialScore": 0,
            "playerTotalScore": -2524,
            "oppTotalScore": 637,
            "waitTime": 6368.327756643221,
            "responseTime": 1681110781393,
            "catchQuestion": "How many <b class=\"r\">red<\/b> marbles did your opponent report drawing? ",
            "catchKey": -1,
            "catchResponse": -1,
            "catchTime": 1681110749527,
            "trialTime": 0
        },
        {
            "exptPart": "trial",
            "trialNumber": 95,
            "roleCurrent": "receiver",
            "marblesSampled": 100,
            "probRed": 0.5,
            "practiceLambda": 5,
            "trialLambda": 21.9,
            "instructedLambda": "honest",
            "drawnRed": 29,
            "reportedRed": 58,
            "inferredRed": 55,
            "playerTrialScore": -26,
            "oppTrialScore": 26,
            "playerTotalScore": -2550,
            "oppTotalScore": 663,
            "waitTime": 6220.375293404379,
            "responseTime": 1681110791265,
            "catchQuestion": "How many <b class=\"r\">red<\/b> marbles did your opponent report drawing? ",
            "catchKey": -1,
            "catchResponse": -1,
            "catchTime": 1681110749527,
            "trialTime": 0
        },
        {
            "exptPart": "trial",
            "trialNumber": 96,
            "roleCurrent": "receiver",
            "marblesSampled": 100,
            "probRed": 0.5,
            "practiceLambda": 5,
            "trialLambda": 21.9,
            "instructedLambda": "honest",
            "drawnRed": 33,
            "reportedRed": 54,
            "inferredRed": 46,
            "playerTrialScore": -13,
            "oppTrialScore": 13,
            "playerTotalScore": -2563,
            "oppTotalScore": 676,
            "waitTime": 7395.510897971222,
            "responseTime": 1681110800460,
            "catchQuestion": "How many <b class=\"r\">red<\/b> marbles did your opponent report drawing? ",
            "catchKey": -1,
            "catchResponse": -1,
            "catchTime": 1681110749527,
            "trialTime": 0
        },
        {
            "exptPart": "trial",
            "trialNumber": 97,
            "roleCurrent": "receiver",
            "marblesSampled": 100,
            "probRed": 0.5,
            "practiceLambda": 5,
            "trialLambda": 21.9,
            "instructedLambda": "honest",
            "drawnRed": 52,
            "reportedRed": 74,
            "inferredRed": 20,
            "playerTrialScore": -32,
            "oppTrialScore": 0,
            "playerTotalScore": -2595,
            "oppTotalScore": 676,
            "waitTime": 7384.891927679602,
            "responseTime": 1681110809004,
            "catchQuestion": "How many <b class=\"r\">red<\/b> marbles did your opponent report drawing? ",
            "catchKey": 74,
            "catchResponse": 74,
            "catchTime": 1681110809004,
            "trialTime": 0
        },
        {
            "exptPart": "trial",
            "trialNumber": 98,
            "roleCurrent": "receiver",
            "marblesSampled": 100,
            "probRed": 0.5,
            "practiceLambda": 5,
            "trialLambda": 21.9,
            "instructedLambda": "honest",
            "drawnRed": 27,
            "reportedRed": 52,
            "inferredRed": 17,
            "playerTrialScore": -10,
            "oppTrialScore": 0,
            "playerTotalScore": -2605,
            "oppTotalScore": 676,
            "waitTime": 7467.424999238709,
            "responseTime": 1681110824506,
            "catchQuestion": "How many <b class=\"r\">red<\/b> marbles did your opponent report drawing? ",
            "catchKey": -1,
            "catchResponse": -1,
            "catchTime": 1681110809004,
            "trialTime": 0
        },
        {
            "exptPart": "trial",
            "trialNumber": 99,
            "roleCurrent": "receiver",
            "marblesSampled": 100,
            "probRed": 0.5,
            "practiceLambda": 5,
            "trialLambda": 21.9,
            "instructedLambda": "honest",
            "drawnRed": 59,
            "reportedRed": 70,
            "inferredRed": 68,
            "playerTrialScore": -9,
            "oppTrialScore": 9,
            "playerTotalScore": -2614,
            "oppTotalScore": 685,
            "waitTime": 6514.56503334805,
            "responseTime": 1681110835366,
            "catchQuestion": "How many <b class=\"r\">red<\/b> marbles did your opponent report drawing? ",
            "catchKey": 70,
            "catchResponse": 80,
            "catchTime": 1681110835366,
            "trialTime": 0
        },
        {
            "exptPart": "trial",
            "trialNumber": 100,
            "roleCurrent": "receiver",
            "marblesSampled": 100,
            "probRed": 0.5,
            "practiceLambda": 5,
            "trialLambda": 21.9,
            "instructedLambda": "honest",
            "drawnRed": 75,
            "reportedRed": 100,
            "inferredRed": 89,
            "playerTrialScore": -14,
            "oppTrialScore": 14,
            "playerTotalScore": -2628,
            "oppTotalScore": 699,
            "waitTime": 6727.912291285773,
            "responseTime": 1681110856961,
            "catchQuestion": "How many <b class=\"r\">red<\/b> marbles did your opponent report drawing? ",
            "catchKey": -1,
            "catchResponse": -1,
            "catchTime": 1681110856961,
            "trialTime": 0
        }
    ]
}