{
    "client": {
        "type": "sona",
        "experiment_id": 2228,
        "credit_token": "b315147ae43241ea9c65086cb510cfb7",
        "survey_code": "36234",
        "sid": "sona-36234",
        "window": {
            "width": 1441,
            "height": 686
        },
        "screen": {
            "width": 1440,
            "height": 900
        },
        "userAgent": "Mozilla\/5.0 (Macintosh; Intel Mac OS X 10_15_7) AppleWebKit\/537.36 (KHTML, like Gecko) Chrome\/111.0.0.0 Safari\/537.36",
        "score": 0,
        "bonus": 0
    },
    "expt": {
        "saveURL": "submit.simple.php",
        "trials": 100,
        "practiceTrials": 2,
        "marblesSampled": 100,
        "probRed": 0.5,
        "practiceLambdaAI": 5,
        "lambdaAI": 21.9,
        "roles": [
            "sender",
            "receiver"
        ],
        "cost": "unif",
        "goal": "over",
        "oppDishonesty": "dishonest_small",
        "catchTrials": [
            5,
            41,
            90,
            16,
            96,
            42,
            58,
            21,
            9,
            60
        ],
        "scoreTotal": {
            "player": -1895,
            "opp": 1827
        },
        "sona": {
            "experiment_id": 2228,
            "credit_token": "b315147ae43241ea9c65086cb510cfb7"
        },
        "pilot": false,
        "debug": false
    },
    "trials": [
        {
            "exptPart": "practice",
            "trialNumber": 1,
            "roleCurrent": "sender",
            "marblesSampled": 100,
            "probRed": 0.5,
            "practiceLambda": 5,
            "trialLambda": 21.9,
            "instructedLambda": "dishonest_small",
            "drawnRed": 24,
            "reportedRed": 28,
            "inferredRed": 22,
            "playerTrialScore": 0,
            "oppTrialScore": -2,
            "playerTotalScore": 0,
            "oppTotalScore": -2,
            "waitTime": 3168.2877532762327,
            "responseTime": 1680835559472,
            "catchQuestion": "How many <b class=\"r\">red<\/b> marbles did you actually draw (before any changes)? ",
            "catchKey": 24,
            "catchResponse": 24,
            "catchTime": 1680835559473,
            "trialTime": 0
        },
        {
            "exptPart": "practice",
            "trialNumber": 2,
            "roleCurrent": "receiver",
            "marblesSampled": 100,
            "probRed": 0.5,
            "practiceLambda": 5,
            "trialLambda": 21.9,
            "instructedLambda": "dishonest_small",
            "drawnRed": 45,
            "reportedRed": 51,
            "inferredRed": 50,
            "playerTrialScore": -5,
            "oppTrialScore": 5,
            "playerTotalScore": -5,
            "oppTotalScore": 3,
            "waitTime": 6368.917017408028,
            "responseTime": 1680835595718,
            "catchQuestion": "How many <b class=\"r\">red<\/b> marbles did your opponent report drawing? ",
            "catchKey": 51,
            "catchResponse": 51,
            "catchTime": 1680835595718,
            "trialTime": 0
        },
        {
            "exptPart": "trial",
            "trialNumber": 1,
            "roleCurrent": "receiver",
            "marblesSampled": 100,
            "probRed": 0.5,
            "practiceLambda": 5,
            "trialLambda": 21.9,
            "instructedLambda": "dishonest_small",
            "drawnRed": 57,
            "reportedRed": 80,
            "inferredRed": 30,
            "playerTrialScore": -27,
            "oppTrialScore": 0,
            "playerTotalScore": -27,
            "oppTotalScore": 0,
            "waitTime": 6983.049328471615,
            "responseTime": 1680835622322,
            "catchQuestion": "How many <b class=\"r\">red<\/b> marbles did your opponent report drawing? ",
            "catchKey": -1,
            "catchResponse": -1,
            "catchTime": 1680835595718,
            "trialTime": 0
        },
        {
            "exptPart": "trial",
            "trialNumber": 2,
            "roleCurrent": "receiver",
            "marblesSampled": 100,
            "probRed": 0.5,
            "practiceLambda": 5,
            "trialLambda": 21.9,
            "instructedLambda": "dishonest_small",
            "drawnRed": 51,
            "reportedRed": 62,
            "inferredRed": 27,
            "playerTrialScore": -24,
            "oppTrialScore": 0,
            "playerTotalScore": -51,
            "oppTotalScore": 0,
            "waitTime": 5689.047788024286,
            "responseTime": 1680835634139,
            "catchQuestion": "How many <b class=\"r\">red<\/b> marbles did your opponent report drawing? ",
            "catchKey": -1,
            "catchResponse": -1,
            "catchTime": 1680835595718,
            "trialTime": 0
        },
        {
            "exptPart": "trial",
            "trialNumber": 3,
            "roleCurrent": "receiver",
            "marblesSampled": 100,
            "probRed": 0.5,
            "practiceLambda": 5,
            "trialLambda": 21.9,
            "instructedLambda": "dishonest_small",
            "drawnRed": 24,
            "reportedRed": 49,
            "inferredRed": 51,
            "playerTrialScore": -27,
            "oppTrialScore": 27,
            "playerTotalScore": -78,
            "oppTotalScore": 27,
            "waitTime": 6354.849298940663,
            "responseTime": 1680835645589,
            "catchQuestion": "How many <b class=\"r\">red<\/b> marbles did your opponent report drawing? ",
            "catchKey": -1,
            "catchResponse": -1,
            "catchTime": 1680835595718,
            "trialTime": 0
        },
        {
            "exptPart": "trial",
            "trialNumber": 4,
            "roleCurrent": "receiver",
            "marblesSampled": 100,
            "probRed": 0.5,
            "practiceLambda": 5,
            "trialLambda": 21.9,
            "instructedLambda": "dishonest_small",
            "drawnRed": 47,
            "reportedRed": 72,
            "inferredRed": 30,
            "playerTrialScore": -17,
            "oppTrialScore": 0,
            "playerTotalScore": -95,
            "oppTotalScore": 27,
            "waitTime": 5612.998267434898,
            "responseTime": 1680835658502,
            "catchQuestion": "How many <b class=\"r\">red<\/b> marbles did your opponent report drawing? ",
            "catchKey": -1,
            "catchResponse": -1,
            "catchTime": 1680835595718,
            "trialTime": 0
        },
        {
            "exptPart": "trial",
            "trialNumber": 5,
            "roleCurrent": "receiver",
            "marblesSampled": 100,
            "probRed": 0.5,
            "practiceLambda": 5,
            "trialLambda": 21.9,
            "instructedLambda": "dishonest_small",
            "drawnRed": 84,
            "reportedRed": 97,
            "inferredRed": 98,
            "playerTrialScore": -14,
            "oppTrialScore": 14,
            "playerTotalScore": -109,
            "oppTotalScore": 41,
            "waitTime": 5555.786046661131,
            "responseTime": 1680835670423,
            "catchQuestion": "How many <b class=\"r\">red<\/b> marbles did your opponent report drawing? ",
            "catchKey": -1,
            "catchResponse": -1,
            "catchTime": 1680835595718,
            "trialTime": 0
        },
        {
            "exptPart": "trial",
            "trialNumber": 6,
            "roleCurrent": "receiver",
            "marblesSampled": 100,
            "probRed": 0.5,
            "practiceLambda": 5,
            "trialLambda": 21.9,
            "instructedLambda": "dishonest_small",
            "drawnRed": 40,
            "reportedRed": 55,
            "inferredRed": 50,
            "playerTrialScore": -10,
            "oppTrialScore": 10,
            "playerTotalScore": -119,
            "oppTotalScore": 51,
            "waitTime": 5769.804670409828,
            "responseTime": 1680835679836,
            "catchQuestion": "How many <b class=\"r\">red<\/b> marbles did your opponent report drawing? ",
            "catchKey": 55,
            "catchResponse": 55,
            "catchTime": 1680835679836,
            "trialTime": 0
        },
        {
            "exptPart": "trial",
            "trialNumber": 7,
            "roleCurrent": "receiver",
            "marblesSampled": 100,
            "probRed": 0.5,
            "practiceLambda": 5,
            "trialLambda": 21.9,
            "instructedLambda": "dishonest_small",
            "drawnRed": 42,
            "reportedRed": 60,
            "inferredRed": 62,
            "playerTrialScore": -20,
            "oppTrialScore": 20,
            "playerTotalScore": -139,
            "oppTotalScore": 71,
            "waitTime": 6547.39351823881,
            "responseTime": 1680835695873,
            "catchQuestion": "How many <b class=\"r\">red<\/b> marbles did your opponent report drawing? ",
            "catchKey": -1,
            "catchResponse": -1,
            "catchTime": 1680835679836,
            "trialTime": 0
        },
        {
            "exptPart": "trial",
            "trialNumber": 8,
            "roleCurrent": "receiver",
            "marblesSampled": 100,
            "probRed": 0.5,
            "practiceLambda": 5,
            "trialLambda": 21.9,
            "instructedLambda": "dishonest_small",
            "drawnRed": 37,
            "reportedRed": 54,
            "inferredRed": 56,
            "playerTrialScore": -19,
            "oppTrialScore": 19,
            "playerTotalScore": -158,
            "oppTotalScore": 90,
            "waitTime": 5518.419438706608,
            "responseTime": 1680835704825,
            "catchQuestion": "How many <b class=\"r\">red<\/b> marbles did your opponent report drawing? ",
            "catchKey": -1,
            "catchResponse": -1,
            "catchTime": 1680835679836,
            "trialTime": 0
        },
        {
            "exptPart": "trial",
            "trialNumber": 9,
            "roleCurrent": "receiver",
            "marblesSampled": 100,
            "probRed": 0.5,
            "practiceLambda": 5,
            "trialLambda": 21.9,
            "instructedLambda": "dishonest_small",
            "drawnRed": 64,
            "reportedRed": 93,
            "inferredRed": 90,
            "playerTrialScore": -26,
            "oppTrialScore": 26,
            "playerTotalScore": -184,
            "oppTotalScore": 116,
            "waitTime": 5203.496507919733,
            "responseTime": 1680835714309,
            "catchQuestion": "How many <b class=\"r\">red<\/b> marbles did your opponent report drawing? ",
            "catchKey": -1,
            "catchResponse": -1,
            "catchTime": 1680835679836,
            "trialTime": 0
        },
        {
            "exptPart": "trial",
            "trialNumber": 10,
            "roleCurrent": "receiver",
            "marblesSampled": 100,
            "probRed": 0.5,
            "practiceLambda": 5,
            "trialLambda": 21.9,
            "instructedLambda": "dishonest_small",
            "drawnRed": 67,
            "reportedRed": 86,
            "inferredRed": 84,
            "playerTrialScore": -17,
            "oppTrialScore": 17,
            "playerTotalScore": -201,
            "oppTotalScore": 133,
            "waitTime": 6180.543088015882,
            "responseTime": 1680835725443,
            "catchQuestion": "How many <b class=\"r\">red<\/b> marbles did your opponent report drawing? ",
            "catchKey": 86,
            "catchResponse": 86,
            "catchTime": 1680835725444,
            "trialTime": 0
        },
        {
            "exptPart": "trial",
            "trialNumber": 11,
            "roleCurrent": "receiver",
            "marblesSampled": 100,
            "probRed": 0.5,
            "practiceLambda": 5,
            "trialLambda": 21.9,
            "instructedLambda": "dishonest_small",
            "drawnRed": 48,
            "reportedRed": 71,
            "inferredRed": 74,
            "playerTrialScore": -26,
            "oppTrialScore": 26,
            "playerTotalScore": -227,
            "oppTotalScore": 159,
            "waitTime": 5883.756294933614,
            "responseTime": 1680835741838,
            "catchQuestion": "How many <b class=\"r\">red<\/b> marbles did your opponent report drawing? ",
            "catchKey": -1,
            "catchResponse": -1,
            "catchTime": 1680835725444,
            "trialTime": 0
        },
        {
            "exptPart": "trial",
            "trialNumber": 12,
            "roleCurrent": "receiver",
            "marblesSampled": 100,
            "probRed": 0.5,
            "practiceLambda": 5,
            "trialLambda": 21.9,
            "instructedLambda": "dishonest_small",
            "drawnRed": 13,
            "reportedRed": 45,
            "inferredRed": 46,
            "playerTrialScore": -33,
            "oppTrialScore": 33,
            "playerTotalScore": -260,
            "oppTotalScore": 192,
            "waitTime": 7222.224367975242,
            "responseTime": 1680835753556,
            "catchQuestion": "How many <b class=\"r\">red<\/b> marbles did your opponent report drawing? ",
            "catchKey": -1,
            "catchResponse": -1,
            "catchTime": 1680835725444,
            "trialTime": 0
        },
        {
            "exptPart": "trial",
            "trialNumber": 13,
            "roleCurrent": "receiver",
            "marblesSampled": 100,
            "probRed": 0.5,
            "practiceLambda": 5,
            "trialLambda": 21.9,
            "instructedLambda": "dishonest_small",
            "drawnRed": 33,
            "reportedRed": 61,
            "inferredRed": 63,
            "playerTrialScore": -30,
            "oppTrialScore": 30,
            "playerTotalScore": -290,
            "oppTotalScore": 222,
            "waitTime": 6310.338489841228,
            "responseTime": 1680835763505,
            "catchQuestion": "How many <b class=\"r\">red<\/b> marbles did your opponent report drawing? ",
            "catchKey": -1,
            "catchResponse": -1,
            "catchTime": 1680835725444,
            "trialTime": 0
        },
        {
            "exptPart": "trial",
            "trialNumber": 14,
            "roleCurrent": "receiver",
            "marblesSampled": 100,
            "probRed": 0.5,
            "practiceLambda": 5,
            "trialLambda": 21.9,
            "instructedLambda": "dishonest_small",
            "drawnRed": 68,
            "reportedRed": 88,
            "inferredRed": 89,
            "playerTrialScore": -21,
            "oppTrialScore": 21,
            "playerTotalScore": -311,
            "oppTotalScore": 243,
            "waitTime": 6945.773194264108,
            "responseTime": 1680835774439,
            "catchQuestion": "How many <b class=\"r\">red<\/b> marbles did your opponent report drawing? ",
            "catchKey": -1,
            "catchResponse": -1,
            "catchTime": 1680835725444,
            "trialTime": 0
        },
        {
            "exptPart": "trial",
            "trialNumber": 15,
            "roleCurrent": "receiver",
            "marblesSampled": 100,
            "probRed": 0.5,
            "practiceLambda": 5,
            "trialLambda": 21.9,
            "instructedLambda": "dishonest_small",
            "drawnRed": 54,
            "reportedRed": 72,
            "inferredRed": 70,
            "playerTrialScore": -16,
            "oppTrialScore": 16,
            "playerTotalScore": -327,
            "oppTotalScore": 259,
            "waitTime": 5588.800651946299,
            "responseTime": 1680835784039,
            "catchQuestion": "How many <b class=\"r\">red<\/b> marbles did your opponent report drawing? ",
            "catchKey": -1,
            "catchResponse": -1,
            "catchTime": 1680835725444,
            "trialTime": 0
        },
        {
            "exptPart": "trial",
            "trialNumber": 16,
            "roleCurrent": "receiver",
            "marblesSampled": 100,
            "probRed": 0.5,
            "practiceLambda": 5,
            "trialLambda": 21.9,
            "instructedLambda": "dishonest_small",
            "drawnRed": 70,
            "reportedRed": 91,
            "inferredRed": 89,
            "playerTrialScore": -19,
            "oppTrialScore": 19,
            "playerTotalScore": -346,
            "oppTotalScore": 278,
            "waitTime": 5161.751760896648,
            "responseTime": 1680835792425,
            "catchQuestion": "How many <b class=\"r\">red<\/b> marbles did your opponent report drawing? ",
            "catchKey": -1,
            "catchResponse": -1,
            "catchTime": 1680835725444,
            "trialTime": 0
        },
        {
            "exptPart": "trial",
            "trialNumber": 17,
            "roleCurrent": "receiver",
            "marblesSampled": 100,
            "probRed": 0.5,
            "practiceLambda": 5,
            "trialLambda": 21.9,
            "instructedLambda": "dishonest_small",
            "drawnRed": 49,
            "reportedRed": 66,
            "inferredRed": 62,
            "playerTrialScore": -13,
            "oppTrialScore": 13,
            "playerTotalScore": -359,
            "oppTotalScore": 291,
            "waitTime": 6632.730893178945,
            "responseTime": 1680835807827,
            "catchQuestion": "How many <b class=\"r\">red<\/b> marbles did your opponent report drawing? ",
            "catchKey": 66,
            "catchResponse": 66,
            "catchTime": 1680835807828,
            "trialTime": 0
        },
        {
            "exptPart": "trial",
            "trialNumber": 18,
            "roleCurrent": "receiver",
            "marblesSampled": 100,
            "probRed": 0.5,
            "practiceLambda": 5,
            "trialLambda": 21.9,
            "instructedLambda": "dishonest_small",
            "drawnRed": 62,
            "reportedRed": 79,
            "inferredRed": 76,
            "playerTrialScore": -14,
            "oppTrialScore": 14,
            "playerTotalScore": -373,
            "oppTotalScore": 305,
            "waitTime": 5399.530950855094,
            "responseTime": 1680835821277,
            "catchQuestion": "How many <b class=\"r\">red<\/b> marbles did your opponent report drawing? ",
            "catchKey": -1,
            "catchResponse": -1,
            "catchTime": 1680835807828,
            "trialTime": 0
        },
        {
            "exptPart": "trial",
            "trialNumber": 19,
            "roleCurrent": "receiver",
            "marblesSampled": 100,
            "probRed": 0.5,
            "practiceLambda": 5,
            "trialLambda": 21.9,
            "instructedLambda": "dishonest_small",
            "drawnRed": 41,
            "reportedRed": 63,
            "inferredRed": 60,
            "playerTrialScore": -19,
            "oppTrialScore": 19,
            "playerTotalScore": -392,
            "oppTotalScore": 324,
            "waitTime": 7357.047328621535,
            "responseTime": 1680835835924,
            "catchQuestion": "How many <b class=\"r\">red<\/b> marbles did your opponent report drawing? ",
            "catchKey": -1,
            "catchResponse": -1,
            "catchTime": 1680835807828,
            "trialTime": 0
        },
        {
            "exptPart": "trial",
            "trialNumber": 20,
            "roleCurrent": "receiver",
            "marblesSampled": 100,
            "probRed": 0.5,
            "practiceLambda": 5,
            "trialLambda": 21.9,
            "instructedLambda": "dishonest_small",
            "drawnRed": 40,
            "reportedRed": 59,
            "inferredRed": 56,
            "playerTrialScore": -16,
            "oppTrialScore": 16,
            "playerTotalScore": -408,
            "oppTotalScore": 340,
            "waitTime": 5799.197716340971,
            "responseTime": 1680835847412,
            "catchQuestion": "How many <b class=\"r\">red<\/b> marbles did your opponent report drawing? ",
            "catchKey": -1,
            "catchResponse": -1,
            "catchTime": 1680835847412,
            "trialTime": 0
        },
        {
            "exptPart": "trial",
            "trialNumber": 21,
            "roleCurrent": "receiver",
            "marblesSampled": 100,
            "probRed": 0.5,
            "practiceLambda": 5,
            "trialLambda": 21.9,
            "instructedLambda": "dishonest_small",
            "drawnRed": 57,
            "reportedRed": 77,
            "inferredRed": 75,
            "playerTrialScore": -18,
            "oppTrialScore": 18,
            "playerTotalScore": -426,
            "oppTotalScore": 358,
            "waitTime": 7184.08999063754,
            "responseTime": 1680835864108,
            "catchQuestion": "How many <b class=\"r\">red<\/b> marbles did your opponent report drawing? ",
            "catchKey": -1,
            "catchResponse": -1,
            "catchTime": 1680835847412,
            "trialTime": 0
        },
        {
            "exptPart": "trial",
            "trialNumber": 22,
            "roleCurrent": "receiver",
            "marblesSampled": 100,
            "probRed": 0.5,
            "practiceLambda": 5,
            "trialLambda": 21.9,
            "instructedLambda": "dishonest_small",
            "drawnRed": 43,
            "reportedRed": 68,
            "inferredRed": 62,
            "playerTrialScore": -19,
            "oppTrialScore": 19,
            "playerTotalScore": -445,
            "oppTotalScore": 377,
            "waitTime": 5988.942188067776,
            "responseTime": 1680835877358,
            "catchQuestion": "How many <b class=\"r\">red<\/b> marbles did your opponent report drawing? ",
            "catchKey": 68,
            "catchResponse": 68,
            "catchTime": 1680835877358,
            "trialTime": 0
        },
        {
            "exptPart": "trial",
            "trialNumber": 23,
            "roleCurrent": "receiver",
            "marblesSampled": 100,
            "probRed": 0.5,
            "practiceLambda": 5,
            "trialLambda": 21.9,
            "instructedLambda": "dishonest_small",
            "drawnRed": 65,
            "reportedRed": 92,
            "inferredRed": 87,
            "playerTrialScore": -22,
            "oppTrialScore": 22,
            "playerTotalScore": -467,
            "oppTotalScore": 399,
            "waitTime": 6197.794596057514,
            "responseTime": 1680835892905,
            "catchQuestion": "How many <b class=\"r\">red<\/b> marbles did your opponent report drawing? ",
            "catchKey": -1,
            "catchResponse": -1,
            "catchTime": 1680835877358,
            "trialTime": 0
        },
        {
            "exptPart": "trial",
            "trialNumber": 24,
            "roleCurrent": "receiver",
            "marblesSampled": 100,
            "probRed": 0.5,
            "practiceLambda": 5,
            "trialLambda": 21.9,
            "instructedLambda": "dishonest_small",
            "drawnRed": 63,
            "reportedRed": 83,
            "inferredRed": 80,
            "playerTrialScore": -17,
            "oppTrialScore": 17,
            "playerTotalScore": -484,
            "oppTotalScore": 416,
            "waitTime": 6059.911627615142,
            "responseTime": 1680835906828,
            "catchQuestion": "How many <b class=\"r\">red<\/b> marbles did your opponent report drawing? ",
            "catchKey": -1,
            "catchResponse": -1,
            "catchTime": 1680835877358,
            "trialTime": 0
        },
        {
            "exptPart": "trial",
            "trialNumber": 25,
            "roleCurrent": "receiver",
            "marblesSampled": 100,
            "probRed": 0.5,
            "practiceLambda": 5,
            "trialLambda": 21.9,
            "instructedLambda": "dishonest_small",
            "drawnRed": 79,
            "reportedRed": 100,
            "inferredRed": 99,
            "playerTrialScore": -20,
            "oppTrialScore": 20,
            "playerTotalScore": -504,
            "oppTotalScore": 436,
            "waitTime": 6214.505461713143,
            "responseTime": 1680835916796,
            "catchQuestion": "How many <b class=\"r\">red<\/b> marbles did your opponent report drawing? ",
            "catchKey": -1,
            "catchResponse": -1,
            "catchTime": 1680835877358,
            "trialTime": 0
        },
        {
            "exptPart": "trial",
            "trialNumber": 26,
            "roleCurrent": "receiver",
            "marblesSampled": 100,
            "probRed": 0.5,
            "practiceLambda": 5,
            "trialLambda": 21.9,
            "instructedLambda": "dishonest_small",
            "drawnRed": 74,
            "reportedRed": 96,
            "inferredRed": 93,
            "playerTrialScore": -19,
            "oppTrialScore": 19,
            "playerTotalScore": -523,
            "oppTotalScore": 455,
            "waitTime": 5577.461843852854,
            "responseTime": 1680835926609,
            "catchQuestion": "How many <b class=\"r\">red<\/b> marbles did your opponent report drawing? ",
            "catchKey": -1,
            "catchResponse": -1,
            "catchTime": 1680835877358,
            "trialTime": 0
        },
        {
            "exptPart": "trial",
            "trialNumber": 27,
            "roleCurrent": "receiver",
            "marblesSampled": 100,
            "probRed": 0.5,
            "practiceLambda": 5,
            "trialLambda": 21.9,
            "instructedLambda": "dishonest_small",
            "drawnRed": 26,
            "reportedRed": 44,
            "inferredRed": 40,
            "playerTrialScore": -14,
            "oppTrialScore": 14,
            "playerTotalScore": -537,
            "oppTotalScore": 469,
            "waitTime": 7073.791027892419,
            "responseTime": 1680835937744,
            "catchQuestion": "How many <b class=\"r\">red<\/b> marbles did your opponent report drawing? ",
            "catchKey": -1,
            "catchResponse": -1,
            "catchTime": 1680835877358,
            "trialTime": 0
        },
        {
            "exptPart": "trial",
            "trialNumber": 28,
            "roleCurrent": "receiver",
            "marblesSampled": 100,
            "probRed": 0.5,
            "practiceLambda": 5,
            "trialLambda": 21.9,
            "instructedLambda": "dishonest_small",
            "drawnRed": 55,
            "reportedRed": 72,
            "inferredRed": 69,
            "playerTrialScore": -14,
            "oppTrialScore": 14,
            "playerTotalScore": -551,
            "oppTotalScore": 483,
            "waitTime": 7423.426162049634,
            "responseTime": 1680835990884,
            "catchQuestion": "How many <b class=\"r\">red<\/b> marbles did your opponent report drawing? ",
            "catchKey": -1,
            "catchResponse": -1,
            "catchTime": 1680835877358,
            "trialTime": 0
        },
        {
            "exptPart": "trial",
            "trialNumber": 29,
            "roleCurrent": "receiver",
            "marblesSampled": 100,
            "probRed": 0.5,
            "practiceLambda": 5,
            "trialLambda": 21.9,
            "instructedLambda": "dishonest_small",
            "drawnRed": 10,
            "reportedRed": 23,
            "inferredRed": 20,
            "playerTrialScore": -10,
            "oppTrialScore": 10,
            "playerTotalScore": -561,
            "oppTotalScore": 493,
            "waitTime": 5714.204739709734,
            "responseTime": 1680836000529,
            "catchQuestion": "How many <b class=\"r\">red<\/b> marbles did your opponent report drawing? ",
            "catchKey": -1,
            "catchResponse": -1,
            "catchTime": 1680835877358,
            "trialTime": 0
        },
        {
            "exptPart": "trial",
            "trialNumber": 30,
            "roleCurrent": "receiver",
            "marblesSampled": 100,
            "probRed": 0.5,
            "practiceLambda": 5,
            "trialLambda": 21.9,
            "instructedLambda": "dishonest_small",
            "drawnRed": 61,
            "reportedRed": 77,
            "inferredRed": 75,
            "playerTrialScore": -14,
            "oppTrialScore": 14,
            "playerTotalScore": -575,
            "oppTotalScore": 507,
            "waitTime": 7316.931081374384,
            "responseTime": 1680836013631,
            "catchQuestion": "How many <b class=\"r\">red<\/b> marbles did your opponent report drawing? ",
            "catchKey": -1,
            "catchResponse": -1,
            "catchTime": 1680836013632,
            "trialTime": 0
        },
        {
            "exptPart": "trial",
            "trialNumber": 31,
            "roleCurrent": "receiver",
            "marblesSampled": 100,
            "probRed": 0.5,
            "practiceLambda": 5,
            "trialLambda": 21.9,
            "instructedLambda": "dishonest_small",
            "drawnRed": 12,
            "reportedRed": 36,
            "inferredRed": 32,
            "playerTrialScore": -20,
            "oppTrialScore": 20,
            "playerTotalScore": -595,
            "oppTotalScore": 527,
            "waitTime": 6324.197515853977,
            "responseTime": 1680836038280,
            "catchQuestion": "How many <b class=\"r\">red<\/b> marbles did your opponent report drawing? ",
            "catchKey": -1,
            "catchResponse": -1,
            "catchTime": 1680836013632,
            "trialTime": 0
        },
        {
            "exptPart": "trial",
            "trialNumber": 32,
            "roleCurrent": "receiver",
            "marblesSampled": 100,
            "probRed": 0.5,
            "practiceLambda": 5,
            "trialLambda": 21.9,
            "instructedLambda": "dishonest_small",
            "drawnRed": 18,
            "reportedRed": 31,
            "inferredRed": 29,
            "playerTrialScore": -11,
            "oppTrialScore": 11,
            "playerTotalScore": -606,
            "oppTotalScore": 538,
            "waitTime": 5680.830946752148,
            "responseTime": 1680836049296,
            "catchQuestion": "How many <b class=\"r\">red<\/b> marbles did your opponent report drawing? ",
            "catchKey": -1,
            "catchResponse": -1,
            "catchTime": 1680836013632,
            "trialTime": 0
        },
        {
            "exptPart": "trial",
            "trialNumber": 33,
            "roleCurrent": "receiver",
            "marblesSampled": 100,
            "probRed": 0.5,
            "practiceLambda": 5,
            "trialLambda": 21.9,
            "instructedLambda": "dishonest_small",
            "drawnRed": 11,
            "reportedRed": 22,
            "inferredRed": 19,
            "playerTrialScore": -8,
            "oppTrialScore": 8,
            "playerTotalScore": -614,
            "oppTotalScore": 546,
            "waitTime": 5656.3764034943215,
            "responseTime": 1680836065946,
            "catchQuestion": "How many <b class=\"r\">red<\/b> marbles did your opponent report drawing? ",
            "catchKey": -1,
            "catchResponse": -1,
            "catchTime": 1680836013632,
            "trialTime": 0
        },
        {
            "exptPart": "trial",
            "trialNumber": 34,
            "roleCurrent": "receiver",
            "marblesSampled": 100,
            "probRed": 0.5,
            "practiceLambda": 5,
            "trialLambda": 21.9,
            "instructedLambda": "dishonest_small",
            "drawnRed": 41,
            "reportedRed": 55,
            "inferredRed": 50,
            "playerTrialScore": -9,
            "oppTrialScore": 9,
            "playerTotalScore": -623,
            "oppTotalScore": 555,
            "waitTime": 5428.819386200366,
            "responseTime": 1680836076816,
            "catchQuestion": "How many <b class=\"r\">red<\/b> marbles did your opponent report drawing? ",
            "catchKey": -1,
            "catchResponse": -1,
            "catchTime": 1680836013632,
            "trialTime": 0
        },
        {
            "exptPart": "trial",
            "trialNumber": 35,
            "roleCurrent": "receiver",
            "marblesSampled": 100,
            "probRed": 0.5,
            "practiceLambda": 5,
            "trialLambda": 21.9,
            "instructedLambda": "dishonest_small",
            "drawnRed": 73,
            "reportedRed": 87,
            "inferredRed": 86,
            "playerTrialScore": -13,
            "oppTrialScore": 13,
            "playerTotalScore": -636,
            "oppTotalScore": 568,
            "waitTime": 5240.284362125871,
            "responseTime": 1680836088634,
            "catchQuestion": "How many <b class=\"r\">red<\/b> marbles did your opponent report drawing? ",
            "catchKey": -1,
            "catchResponse": -1,
            "catchTime": 1680836013632,
            "trialTime": 0
        },
        {
            "exptPart": "trial",
            "trialNumber": 36,
            "roleCurrent": "receiver",
            "marblesSampled": 100,
            "probRed": 0.5,
            "practiceLambda": 5,
            "trialLambda": 21.9,
            "instructedLambda": "dishonest_small",
            "drawnRed": 34,
            "reportedRed": 58,
            "inferredRed": 58,
            "playerTrialScore": -24,
            "oppTrialScore": 24,
            "playerTotalScore": -660,
            "oppTotalScore": 592,
            "waitTime": 7218.3172339300745,
            "responseTime": 1680836099501,
            "catchQuestion": "How many <b class=\"r\">red<\/b> marbles did your opponent report drawing? ",
            "catchKey": -1,
            "catchResponse": -1,
            "catchTime": 1680836013632,
            "trialTime": 0
        },
        {
            "exptPart": "trial",
            "trialNumber": 37,
            "roleCurrent": "receiver",
            "marblesSampled": 100,
            "probRed": 0.5,
            "practiceLambda": 5,
            "trialLambda": 21.9,
            "instructedLambda": "dishonest_small",
            "drawnRed": 61,
            "reportedRed": 82,
            "inferredRed": 80,
            "playerTrialScore": -19,
            "oppTrialScore": 19,
            "playerTotalScore": -679,
            "oppTotalScore": 611,
            "waitTime": 6164.723174860097,
            "responseTime": 1680836109364,
            "catchQuestion": "How many <b class=\"r\">red<\/b> marbles did your opponent report drawing? ",
            "catchKey": -1,
            "catchResponse": -1,
            "catchTime": 1680836013632,
            "trialTime": 0
        },
        {
            "exptPart": "trial",
            "trialNumber": 38,
            "roleCurrent": "receiver",
            "marblesSampled": 100,
            "probRed": 0.5,
            "practiceLambda": 5,
            "trialLambda": 21.9,
            "instructedLambda": "dishonest_small",
            "drawnRed": 61,
            "reportedRed": 81,
            "inferredRed": 81,
            "playerTrialScore": -20,
            "oppTrialScore": 20,
            "playerTotalScore": -699,
            "oppTotalScore": 631,
            "waitTime": 5359.322637621353,
            "responseTime": 1680836120483,
            "catchQuestion": "How many <b class=\"r\">red<\/b> marbles did your opponent report drawing? ",
            "catchKey": -1,
            "catchResponse": -1,
            "catchTime": 1680836013632,
            "trialTime": 0
        },
        {
            "exptPart": "trial",
            "trialNumber": 39,
            "roleCurrent": "receiver",
            "marblesSampled": 100,
            "probRed": 0.5,
            "practiceLambda": 5,
            "trialLambda": 21.9,
            "instructedLambda": "dishonest_small",
            "drawnRed": 75,
            "reportedRed": 98,
            "inferredRed": 98,
            "playerTrialScore": -23,
            "oppTrialScore": 23,
            "playerTotalScore": -722,
            "oppTotalScore": 654,
            "waitTime": 5754.886545862448,
            "responseTime": 1680836129800,
            "catchQuestion": "How many <b class=\"r\">red<\/b> marbles did your opponent report drawing? ",
            "catchKey": -1,
            "catchResponse": -1,
            "catchTime": 1680836013632,
            "trialTime": 0
        },
        {
            "exptPart": "trial",
            "trialNumber": 40,
            "roleCurrent": "receiver",
            "marblesSampled": 100,
            "probRed": 0.5,
            "practiceLambda": 5,
            "trialLambda": 21.9,
            "instructedLambda": "dishonest_small",
            "drawnRed": 31,
            "reportedRed": 49,
            "inferredRed": 47,
            "playerTrialScore": -16,
            "oppTrialScore": 16,
            "playerTotalScore": -738,
            "oppTotalScore": 670,
            "waitTime": 6330.726629750975,
            "responseTime": 1680836140882,
            "catchQuestion": "How many <b class=\"r\">red<\/b> marbles did your opponent report drawing? ",
            "catchKey": -1,
            "catchResponse": -1,
            "catchTime": 1680836140882,
            "trialTime": 0
        },
        {
            "exptPart": "trial",
            "trialNumber": 41,
            "roleCurrent": "receiver",
            "marblesSampled": 100,
            "probRed": 0.5,
            "practiceLambda": 5,
            "trialLambda": 21.9,
            "instructedLambda": "dishonest_small",
            "drawnRed": 23,
            "reportedRed": 38,
            "inferredRed": 30,
            "playerTrialScore": -7,
            "oppTrialScore": 7,
            "playerTotalScore": -745,
            "oppTotalScore": 677,
            "waitTime": 6451.075729557778,
            "responseTime": 1680836161386,
            "catchQuestion": "How many <b class=\"r\">red<\/b> marbles did your opponent report drawing? ",
            "catchKey": -1,
            "catchResponse": -1,
            "catchTime": 1680836140882,
            "trialTime": 0
        },
        {
            "exptPart": "trial",
            "trialNumber": 42,
            "roleCurrent": "receiver",
            "marblesSampled": 100,
            "probRed": 0.5,
            "practiceLambda": 5,
            "trialLambda": 21.9,
            "instructedLambda": "dishonest_small",
            "drawnRed": 62,
            "reportedRed": 85,
            "inferredRed": 88,
            "playerTrialScore": -26,
            "oppTrialScore": 26,
            "playerTotalScore": -771,
            "oppTotalScore": 703,
            "waitTime": 5615.412353157137,
            "responseTime": 1680836172577,
            "catchQuestion": "How many <b class=\"r\">red<\/b> marbles did your opponent report drawing? ",
            "catchKey": 85,
            "catchResponse": 85,
            "catchTime": 1680836172577,
            "trialTime": 0
        },
        {
            "exptPart": "trial",
            "trialNumber": 43,
            "roleCurrent": "receiver",
            "marblesSampled": 100,
            "probRed": 0.5,
            "practiceLambda": 5,
            "trialLambda": 21.9,
            "instructedLambda": "dishonest_small",
            "drawnRed": 77,
            "reportedRed": 100,
            "inferredRed": 100,
            "playerTrialScore": -23,
            "oppTrialScore": 23,
            "playerTotalScore": -794,
            "oppTotalScore": 726,
            "waitTime": 5592.755218274468,
            "responseTime": 1680836189004,
            "catchQuestion": "How many <b class=\"r\">red<\/b> marbles did your opponent report drawing? ",
            "catchKey": 100,
            "catchResponse": 100,
            "catchTime": 1680836189004,
            "trialTime": 0
        },
        {
            "exptPart": "trial",
            "trialNumber": 44,
            "roleCurrent": "receiver",
            "marblesSampled": 100,
            "probRed": 0.5,
            "practiceLambda": 5,
            "trialLambda": 21.9,
            "instructedLambda": "dishonest_small",
            "drawnRed": 77,
            "reportedRed": 99,
            "inferredRed": 99,
            "playerTrialScore": -22,
            "oppTrialScore": 22,
            "playerTotalScore": -816,
            "oppTotalScore": 748,
            "waitTime": 7045.718626227566,
            "responseTime": 1680836204769,
            "catchQuestion": "How many <b class=\"r\">red<\/b> marbles did your opponent report drawing? ",
            "catchKey": -1,
            "catchResponse": -1,
            "catchTime": 1680836189004,
            "trialTime": 0
        },
        {
            "exptPart": "trial",
            "trialNumber": 45,
            "roleCurrent": "receiver",
            "marblesSampled": 100,
            "probRed": 0.5,
            "practiceLambda": 5,
            "trialLambda": 21.9,
            "instructedLambda": "dishonest_small",
            "drawnRed": 39,
            "reportedRed": 62,
            "inferredRed": 62,
            "playerTrialScore": -23,
            "oppTrialScore": 23,
            "playerTotalScore": -839,
            "oppTotalScore": 771,
            "waitTime": 5369.398461121435,
            "responseTime": 1680836220105,
            "catchQuestion": "How many <b class=\"r\">red<\/b> marbles did your opponent report drawing? ",
            "catchKey": -1,
            "catchResponse": -1,
            "catchTime": 1680836189004,
            "trialTime": 0
        },
        {
            "exptPart": "trial",
            "trialNumber": 46,
            "roleCurrent": "receiver",
            "marblesSampled": 100,
            "probRed": 0.5,
            "practiceLambda": 5,
            "trialLambda": 21.9,
            "instructedLambda": "dishonest_small",
            "drawnRed": 44,
            "reportedRed": 71,
            "inferredRed": 72,
            "playerTrialScore": -28,
            "oppTrialScore": 28,
            "playerTotalScore": -867,
            "oppTotalScore": 799,
            "waitTime": 7129.102164026749,
            "responseTime": 1680836233587,
            "catchQuestion": "How many <b class=\"r\">red<\/b> marbles did your opponent report drawing? ",
            "catchKey": -1,
            "catchResponse": -1,
            "catchTime": 1680836189004,
            "trialTime": 0
        },
        {
            "exptPart": "trial",
            "trialNumber": 47,
            "roleCurrent": "receiver",
            "marblesSampled": 100,
            "probRed": 0.5,
            "practiceLambda": 5,
            "trialLambda": 21.9,
            "instructedLambda": "dishonest_small",
            "drawnRed": 89,
            "reportedRed": 100,
            "inferredRed": 100,
            "playerTrialScore": -11,
            "oppTrialScore": 11,
            "playerTotalScore": -878,
            "oppTotalScore": 810,
            "waitTime": 6757.766327798069,
            "responseTime": 1680836244384,
            "catchQuestion": "How many <b class=\"r\">red<\/b> marbles did your opponent report drawing? ",
            "catchKey": -1,
            "catchResponse": -1,
            "catchTime": 1680836189004,
            "trialTime": 0
        },
        {
            "exptPart": "trial",
            "trialNumber": 48,
            "roleCurrent": "receiver",
            "marblesSampled": 100,
            "probRed": 0.5,
            "practiceLambda": 5,
            "trialLambda": 21.9,
            "instructedLambda": "dishonest_small",
            "drawnRed": 39,
            "reportedRed": 55,
            "inferredRed": 55,
            "playerTrialScore": -16,
            "oppTrialScore": 16,
            "playerTotalScore": -894,
            "oppTotalScore": 826,
            "waitTime": 6015.257720125295,
            "responseTime": 1680836258201,
            "catchQuestion": "How many <b class=\"r\">red<\/b> marbles did your opponent report drawing? ",
            "catchKey": -1,
            "catchResponse": -1,
            "catchTime": 1680836189004,
            "trialTime": 0
        },
        {
            "exptPart": "trial",
            "trialNumber": 49,
            "roleCurrent": "receiver",
            "marblesSampled": 100,
            "probRed": 0.5,
            "practiceLambda": 5,
            "trialLambda": 21.9,
            "instructedLambda": "dishonest_small",
            "drawnRed": 58,
            "reportedRed": 82,
            "inferredRed": 80,
            "playerTrialScore": -22,
            "oppTrialScore": 22,
            "playerTotalScore": -916,
            "oppTotalScore": 848,
            "waitTime": 5247.092430532795,
            "responseTime": 1680836267058,
            "catchQuestion": "How many <b class=\"r\">red<\/b> marbles did your opponent report drawing? ",
            "catchKey": -1,
            "catchResponse": -1,
            "catchTime": 1680836189004,
            "trialTime": 0
        },
        {
            "exptPart": "trial",
            "trialNumber": 50,
            "roleCurrent": "receiver",
            "marblesSampled": 100,
            "probRed": 0.5,
            "practiceLambda": 5,
            "trialLambda": 21.9,
            "instructedLambda": "dishonest_small",
            "drawnRed": 64,
            "reportedRed": 96,
            "inferredRed": 96,
            "playerTrialScore": -32,
            "oppTrialScore": 32,
            "playerTotalScore": -948,
            "oppTotalScore": 880,
            "waitTime": 6158.45604861245,
            "responseTime": 1680836276974,
            "catchQuestion": "How many <b class=\"r\">red<\/b> marbles did your opponent report drawing? ",
            "catchKey": -1,
            "catchResponse": -1,
            "catchTime": 1680836276974,
            "trialTime": 0
        },
        {
            "exptPart": "trial",
            "trialNumber": 51,
            "roleCurrent": "receiver",
            "marblesSampled": 100,
            "probRed": 0.5,
            "practiceLambda": 5,
            "trialLambda": 21.9,
            "instructedLambda": "dishonest_small",
            "drawnRed": 62,
            "reportedRed": 83,
            "inferredRed": 83,
            "playerTrialScore": -21,
            "oppTrialScore": 21,
            "playerTotalScore": -969,
            "oppTotalScore": 901,
            "waitTime": 6905.707537085582,
            "responseTime": 1680836291386,
            "catchQuestion": "How many <b class=\"r\">red<\/b> marbles did your opponent report drawing? ",
            "catchKey": -1,
            "catchResponse": -1,
            "catchTime": 1680836276974,
            "trialTime": 0
        },
        {
            "exptPart": "trial",
            "trialNumber": 52,
            "roleCurrent": "receiver",
            "marblesSampled": 100,
            "probRed": 0.5,
            "practiceLambda": 5,
            "trialLambda": 21.9,
            "instructedLambda": "dishonest_small",
            "drawnRed": 49,
            "reportedRed": 67,
            "inferredRed": 67,
            "playerTrialScore": -18,
            "oppTrialScore": 18,
            "playerTotalScore": -987,
            "oppTotalScore": 919,
            "waitTime": 5200.119698147961,
            "responseTime": 1680836300302,
            "catchQuestion": "How many <b class=\"r\">red<\/b> marbles did your opponent report drawing? ",
            "catchKey": -1,
            "catchResponse": -1,
            "catchTime": 1680836276974,
            "trialTime": 0
        },
        {
            "exptPart": "trial",
            "trialNumber": 53,
            "roleCurrent": "receiver",
            "marblesSampled": 100,
            "probRed": 0.5,
            "practiceLambda": 5,
            "trialLambda": 21.9,
            "instructedLambda": "dishonest_small",
            "drawnRed": 37,
            "reportedRed": 60,
            "inferredRed": 60,
            "playerTrialScore": -23,
            "oppTrialScore": 23,
            "playerTotalScore": -1010,
            "oppTotalScore": 942,
            "waitTime": 6697.928350767521,
            "responseTime": 1680836315421,
            "catchQuestion": "How many <b class=\"r\">red<\/b> marbles did your opponent report drawing? ",
            "catchKey": -1,
            "catchResponse": -1,
            "catchTime": 1680836276974,
            "trialTime": 0
        },
        {
            "exptPart": "trial",
            "trialNumber": 54,
            "roleCurrent": "receiver",
            "marblesSampled": 100,
            "probRed": 0.5,
            "practiceLambda": 5,
            "trialLambda": 21.9,
            "instructedLambda": "dishonest_small",
            "drawnRed": 47,
            "reportedRed": 63,
            "inferredRed": 63,
            "playerTrialScore": -16,
            "oppTrialScore": 16,
            "playerTotalScore": -1026,
            "oppTotalScore": 958,
            "waitTime": 5976.458725539809,
            "responseTime": 1680836325869,
            "catchQuestion": "How many <b class=\"r\">red<\/b> marbles did your opponent report drawing? ",
            "catchKey": -1,
            "catchResponse": -1,
            "catchTime": 1680836276974,
            "trialTime": 0
        },
        {
            "exptPart": "trial",
            "trialNumber": 55,
            "roleCurrent": "receiver",
            "marblesSampled": 100,
            "probRed": 0.5,
            "practiceLambda": 5,
            "trialLambda": 21.9,
            "instructedLambda": "dishonest_small",
            "drawnRed": 59,
            "reportedRed": 80,
            "inferredRed": 80,
            "playerTrialScore": -21,
            "oppTrialScore": 21,
            "playerTotalScore": -1047,
            "oppTotalScore": 979,
            "waitTime": 5675.924641692505,
            "responseTime": 1680836335747,
            "catchQuestion": "How many <b class=\"r\">red<\/b> marbles did your opponent report drawing? ",
            "catchKey": -1,
            "catchResponse": -1,
            "catchTime": 1680836276974,
            "trialTime": 0
        },
        {
            "exptPart": "trial",
            "trialNumber": 56,
            "roleCurrent": "receiver",
            "marblesSampled": 100,
            "probRed": 0.5,
            "practiceLambda": 5,
            "trialLambda": 21.9,
            "instructedLambda": "dishonest_small",
            "drawnRed": 55,
            "reportedRed": 71,
            "inferredRed": 71,
            "playerTrialScore": -16,
            "oppTrialScore": 16,
            "playerTotalScore": -1063,
            "oppTotalScore": 995,
            "waitTime": 7383.387402269955,
            "responseTime": 1680836346624,
            "catchQuestion": "How many <b class=\"r\">red<\/b> marbles did your opponent report drawing? ",
            "catchKey": -1,
            "catchResponse": -1,
            "catchTime": 1680836276974,
            "trialTime": 0
        },
        {
            "exptPart": "trial",
            "trialNumber": 57,
            "roleCurrent": "receiver",
            "marblesSampled": 100,
            "probRed": 0.5,
            "practiceLambda": 5,
            "trialLambda": 21.9,
            "instructedLambda": "dishonest_small",
            "drawnRed": 42,
            "reportedRed": 59,
            "inferredRed": 50,
            "playerTrialScore": -8,
            "oppTrialScore": 8,
            "playerTotalScore": -1071,
            "oppTotalScore": 1003,
            "waitTime": 5623.0101046244945,
            "responseTime": 1680836360175,
            "catchQuestion": "How many <b class=\"r\">red<\/b> marbles did your opponent report drawing? ",
            "catchKey": -1,
            "catchResponse": -1,
            "catchTime": 1680836276974,
            "trialTime": 0
        },
        {
            "exptPart": "trial",
            "trialNumber": 58,
            "roleCurrent": "receiver",
            "marblesSampled": 100,
            "probRed": 0.5,
            "practiceLambda": 5,
            "trialLambda": 21.9,
            "instructedLambda": "dishonest_small",
            "drawnRed": 42,
            "reportedRed": 55,
            "inferredRed": 55,
            "playerTrialScore": -13,
            "oppTrialScore": 13,
            "playerTotalScore": -1084,
            "oppTotalScore": 1016,
            "waitTime": 5258.255798427695,
            "responseTime": 1680836374524,
            "catchQuestion": "How many <b class=\"r\">red<\/b> marbles did your opponent report drawing? ",
            "catchKey": -1,
            "catchResponse": -1,
            "catchTime": 1680836276974,
            "trialTime": 0
        },
        {
            "exptPart": "trial",
            "trialNumber": 59,
            "roleCurrent": "receiver",
            "marblesSampled": 100,
            "probRed": 0.5,
            "practiceLambda": 5,
            "trialLambda": 21.9,
            "instructedLambda": "dishonest_small",
            "drawnRed": 44,
            "reportedRed": 66,
            "inferredRed": 66,
            "playerTrialScore": -22,
            "oppTrialScore": 22,
            "playerTotalScore": -1106,
            "oppTotalScore": 1038,
            "waitTime": 6315.444602077789,
            "responseTime": 1680836384426,
            "catchQuestion": "How many <b class=\"r\">red<\/b> marbles did your opponent report drawing? ",
            "catchKey": 66,
            "catchResponse": 66,
            "catchTime": 1680836384426,
            "trialTime": 0
        },
        {
            "exptPart": "trial",
            "trialNumber": 60,
            "roleCurrent": "receiver",
            "marblesSampled": 100,
            "probRed": 0.5,
            "practiceLambda": 5,
            "trialLambda": 21.9,
            "instructedLambda": "dishonest_small",
            "drawnRed": 72,
            "reportedRed": 98,
            "inferredRed": 90,
            "playerTrialScore": -18,
            "oppTrialScore": 18,
            "playerTotalScore": -1124,
            "oppTotalScore": 1056,
            "waitTime": 5937.172513292126,
            "responseTime": 1680836405124,
            "catchQuestion": "How many <b class=\"r\">red<\/b> marbles did your opponent report drawing? ",
            "catchKey": -1,
            "catchResponse": -1,
            "catchTime": 1680836405124,
            "trialTime": 0
        },
        {
            "exptPart": "trial",
            "trialNumber": 61,
            "roleCurrent": "receiver",
            "marblesSampled": 100,
            "probRed": 0.5,
            "practiceLambda": 5,
            "trialLambda": 21.9,
            "instructedLambda": "dishonest_small",
            "drawnRed": 39,
            "reportedRed": 57,
            "inferredRed": 50,
            "playerTrialScore": -11,
            "oppTrialScore": 11,
            "playerTotalScore": -1135,
            "oppTotalScore": 1067,
            "waitTime": 6699.163275446741,
            "responseTime": 1680836470891,
            "catchQuestion": "How many <b class=\"r\">red<\/b> marbles did your opponent report drawing? ",
            "catchKey": 57,
            "catchResponse": 57,
            "catchTime": 1680836470891,
            "trialTime": 0
        },
        {
            "exptPart": "trial",
            "trialNumber": 62,
            "roleCurrent": "receiver",
            "marblesSampled": 100,
            "probRed": 0.5,
            "practiceLambda": 5,
            "trialLambda": 21.9,
            "instructedLambda": "dishonest_small",
            "drawnRed": 48,
            "reportedRed": 72,
            "inferredRed": 70,
            "playerTrialScore": -22,
            "oppTrialScore": 22,
            "playerTotalScore": -1157,
            "oppTotalScore": 1089,
            "waitTime": 6418.518083420058,
            "responseTime": 1680836493148,
            "catchQuestion": "How many <b class=\"r\">red<\/b> marbles did your opponent report drawing? ",
            "catchKey": -1,
            "catchResponse": -1,
            "catchTime": 1680836470891,
            "trialTime": 0
        },
        {
            "exptPart": "trial",
            "trialNumber": 63,
            "roleCurrent": "receiver",
            "marblesSampled": 100,
            "probRed": 0.5,
            "practiceLambda": 5,
            "trialLambda": 21.9,
            "instructedLambda": "dishonest_small",
            "drawnRed": 46,
            "reportedRed": 71,
            "inferredRed": 71,
            "playerTrialScore": -25,
            "oppTrialScore": 25,
            "playerTotalScore": -1182,
            "oppTotalScore": 1114,
            "waitTime": 5785.019907223463,
            "responseTime": 1680836502762,
            "catchQuestion": "How many <b class=\"r\">red<\/b> marbles did your opponent report drawing? ",
            "catchKey": -1,
            "catchResponse": -1,
            "catchTime": 1680836470891,
            "trialTime": 0
        },
        {
            "exptPart": "trial",
            "trialNumber": 64,
            "roleCurrent": "receiver",
            "marblesSampled": 100,
            "probRed": 0.5,
            "practiceLambda": 5,
            "trialLambda": 21.9,
            "instructedLambda": "dishonest_small",
            "drawnRed": 36,
            "reportedRed": 55,
            "inferredRed": 55,
            "playerTrialScore": -19,
            "oppTrialScore": 19,
            "playerTotalScore": -1201,
            "oppTotalScore": 1133,
            "waitTime": 6031.281485889176,
            "responseTime": 1680836515291,
            "catchQuestion": "How many <b class=\"r\">red<\/b> marbles did your opponent report drawing? ",
            "catchKey": -1,
            "catchResponse": -1,
            "catchTime": 1680836470891,
            "trialTime": 0
        },
        {
            "exptPart": "trial",
            "trialNumber": 65,
            "roleCurrent": "receiver",
            "marblesSampled": 100,
            "probRed": 0.5,
            "practiceLambda": 5,
            "trialLambda": 21.9,
            "instructedLambda": "dishonest_small",
            "drawnRed": 74,
            "reportedRed": 97,
            "inferredRed": 97,
            "playerTrialScore": -23,
            "oppTrialScore": 23,
            "playerTotalScore": -1224,
            "oppTotalScore": 1156,
            "waitTime": 5318.230735821656,
            "responseTime": 1680836527328,
            "catchQuestion": "How many <b class=\"r\">red<\/b> marbles did your opponent report drawing? ",
            "catchKey": -1,
            "catchResponse": -1,
            "catchTime": 1680836470891,
            "trialTime": 0
        },
        {
            "exptPart": "trial",
            "trialNumber": 66,
            "roleCurrent": "receiver",
            "marblesSampled": 100,
            "probRed": 0.5,
            "practiceLambda": 5,
            "trialLambda": 21.9,
            "instructedLambda": "dishonest_small",
            "drawnRed": 64,
            "reportedRed": 84,
            "inferredRed": 84,
            "playerTrialScore": -20,
            "oppTrialScore": 20,
            "playerTotalScore": -1244,
            "oppTotalScore": 1176,
            "waitTime": 6159.261381293241,
            "responseTime": 1680836540291,
            "catchQuestion": "How many <b class=\"r\">red<\/b> marbles did your opponent report drawing? ",
            "catchKey": -1,
            "catchResponse": -1,
            "catchTime": 1680836470891,
            "trialTime": 0
        },
        {
            "exptPart": "trial",
            "trialNumber": 67,
            "roleCurrent": "receiver",
            "marblesSampled": 100,
            "probRed": 0.5,
            "practiceLambda": 5,
            "trialLambda": 21.9,
            "instructedLambda": "dishonest_small",
            "drawnRed": 64,
            "reportedRed": 82,
            "inferredRed": 82,
            "playerTrialScore": -18,
            "oppTrialScore": 18,
            "playerTotalScore": -1262,
            "oppTotalScore": 1194,
            "waitTime": 5752.407545081083,
            "responseTime": 1680836570479,
            "catchQuestion": "How many <b class=\"r\">red<\/b> marbles did your opponent report drawing? ",
            "catchKey": -1,
            "catchResponse": -1,
            "catchTime": 1680836470891,
            "trialTime": 0
        },
        {
            "exptPart": "trial",
            "trialNumber": 68,
            "roleCurrent": "receiver",
            "marblesSampled": 100,
            "probRed": 0.5,
            "practiceLambda": 5,
            "trialLambda": 21.9,
            "instructedLambda": "dishonest_small",
            "drawnRed": 54,
            "reportedRed": 70,
            "inferredRed": 70,
            "playerTrialScore": -16,
            "oppTrialScore": 16,
            "playerTotalScore": -1278,
            "oppTotalScore": 1210,
            "waitTime": 5514.559039872558,
            "responseTime": 1680836579466,
            "catchQuestion": "How many <b class=\"r\">red<\/b> marbles did your opponent report drawing? ",
            "catchKey": -1,
            "catchResponse": -1,
            "catchTime": 1680836470891,
            "trialTime": 0
        },
        {
            "exptPart": "trial",
            "trialNumber": 69,
            "roleCurrent": "receiver",
            "marblesSampled": 100,
            "probRed": 0.5,
            "practiceLambda": 5,
            "trialLambda": 21.9,
            "instructedLambda": "dishonest_small",
            "drawnRed": 43,
            "reportedRed": 65,
            "inferredRed": 65,
            "playerTrialScore": -22,
            "oppTrialScore": 22,
            "playerTotalScore": -1300,
            "oppTotalScore": 1232,
            "waitTime": 6312.518212291052,
            "responseTime": 1680836589183,
            "catchQuestion": "How many <b class=\"r\">red<\/b> marbles did your opponent report drawing? ",
            "catchKey": -1,
            "catchResponse": -1,
            "catchTime": 1680836470891,
            "trialTime": 0
        },
        {
            "exptPart": "trial",
            "trialNumber": 70,
            "roleCurrent": "receiver",
            "marblesSampled": 100,
            "probRed": 0.5,
            "practiceLambda": 5,
            "trialLambda": 21.9,
            "instructedLambda": "dishonest_small",
            "drawnRed": 24,
            "reportedRed": 36,
            "inferredRed": 38,
            "playerTrialScore": -14,
            "oppTrialScore": 14,
            "playerTotalScore": -1314,
            "oppTotalScore": 1246,
            "waitTime": 6560.041606317507,
            "responseTime": 1680836600596,
            "catchQuestion": "How many <b class=\"r\">red<\/b> marbles did your opponent report drawing? ",
            "catchKey": -1,
            "catchResponse": -1,
            "catchTime": 1680836600596,
            "trialTime": 0
        },
        {
            "exptPart": "trial",
            "trialNumber": 71,
            "roleCurrent": "receiver",
            "marblesSampled": 100,
            "probRed": 0.5,
            "practiceLambda": 5,
            "trialLambda": 21.9,
            "instructedLambda": "dishonest_small",
            "drawnRed": 29,
            "reportedRed": 52,
            "inferredRed": 50,
            "playerTrialScore": -21,
            "oppTrialScore": 21,
            "playerTotalScore": -1335,
            "oppTotalScore": 1267,
            "waitTime": 5251.31085889344,
            "responseTime": 1680836611997,
            "catchQuestion": "How many <b class=\"r\">red<\/b> marbles did your opponent report drawing? ",
            "catchKey": -1,
            "catchResponse": -1,
            "catchTime": 1680836600596,
            "trialTime": 0
        },
        {
            "exptPart": "trial",
            "trialNumber": 72,
            "roleCurrent": "receiver",
            "marblesSampled": 100,
            "probRed": 0.5,
            "practiceLambda": 5,
            "trialLambda": 21.9,
            "instructedLambda": "dishonest_small",
            "drawnRed": 53,
            "reportedRed": 81,
            "inferredRed": 80,
            "playerTrialScore": -27,
            "oppTrialScore": 27,
            "playerTotalScore": -1362,
            "oppTotalScore": 1294,
            "waitTime": 6617.4264868766495,
            "responseTime": 1680836622512,
            "catchQuestion": "How many <b class=\"r\">red<\/b> marbles did your opponent report drawing? ",
            "catchKey": -1,
            "catchResponse": -1,
            "catchTime": 1680836600596,
            "trialTime": 0
        },
        {
            "exptPart": "trial",
            "trialNumber": 73,
            "roleCurrent": "receiver",
            "marblesSampled": 100,
            "probRed": 0.5,
            "practiceLambda": 5,
            "trialLambda": 21.9,
            "instructedLambda": "dishonest_small",
            "drawnRed": 39,
            "reportedRed": 52,
            "inferredRed": 50,
            "playerTrialScore": -11,
            "oppTrialScore": 11,
            "playerTotalScore": -1373,
            "oppTotalScore": 1305,
            "waitTime": 6816.612033440049,
            "responseTime": 1680836632282,
            "catchQuestion": "How many <b class=\"r\">red<\/b> marbles did your opponent report drawing? ",
            "catchKey": -1,
            "catchResponse": -1,
            "catchTime": 1680836600596,
            "trialTime": 0
        },
        {
            "exptPart": "trial",
            "trialNumber": 74,
            "roleCurrent": "receiver",
            "marblesSampled": 100,
            "probRed": 0.5,
            "practiceLambda": 5,
            "trialLambda": 21.9,
            "instructedLambda": "dishonest_small",
            "drawnRed": 86,
            "reportedRed": 100,
            "inferredRed": 99,
            "playerTrialScore": -13,
            "oppTrialScore": 13,
            "playerTotalScore": -1386,
            "oppTotalScore": 1318,
            "waitTime": 5658.804093098997,
            "responseTime": 1680836640744,
            "catchQuestion": "How many <b class=\"r\">red<\/b> marbles did your opponent report drawing? ",
            "catchKey": -1,
            "catchResponse": -1,
            "catchTime": 1680836600596,
            "trialTime": 0
        },
        {
            "exptPart": "trial",
            "trialNumber": 75,
            "roleCurrent": "receiver",
            "marblesSampled": 100,
            "probRed": 0.5,
            "practiceLambda": 5,
            "trialLambda": 21.9,
            "instructedLambda": "dishonest_small",
            "drawnRed": 25,
            "reportedRed": 43,
            "inferredRed": 49,
            "playerTrialScore": -24,
            "oppTrialScore": 24,
            "playerTotalScore": -1410,
            "oppTotalScore": 1342,
            "waitTime": 5916.505137375154,
            "responseTime": 1680836650465,
            "catchQuestion": "How many <b class=\"r\">red<\/b> marbles did your opponent report drawing? ",
            "catchKey": -1,
            "catchResponse": -1,
            "catchTime": 1680836600596,
            "trialTime": 0
        },
        {
            "exptPart": "trial",
            "trialNumber": 76,
            "roleCurrent": "receiver",
            "marblesSampled": 100,
            "probRed": 0.5,
            "practiceLambda": 5,
            "trialLambda": 21.9,
            "instructedLambda": "dishonest_small",
            "drawnRed": 83,
            "reportedRed": 100,
            "inferredRed": 99,
            "playerTrialScore": -16,
            "oppTrialScore": 16,
            "playerTotalScore": -1426,
            "oppTotalScore": 1358,
            "waitTime": 6027.236808729975,
            "responseTime": 1680836660028,
            "catchQuestion": "How many <b class=\"r\">red<\/b> marbles did your opponent report drawing? ",
            "catchKey": -1,
            "catchResponse": -1,
            "catchTime": 1680836600596,
            "trialTime": 0
        },
        {
            "exptPart": "trial",
            "trialNumber": 77,
            "roleCurrent": "receiver",
            "marblesSampled": 100,
            "probRed": 0.5,
            "practiceLambda": 5,
            "trialLambda": 21.9,
            "instructedLambda": "dishonest_small",
            "drawnRed": 66,
            "reportedRed": 87,
            "inferredRed": 85,
            "playerTrialScore": -19,
            "oppTrialScore": 19,
            "playerTotalScore": -1445,
            "oppTotalScore": 1377,
            "waitTime": 5416.211634130224,
            "responseTime": 1680836674302,
            "catchQuestion": "How many <b class=\"r\">red<\/b> marbles did your opponent report drawing? ",
            "catchKey": -1,
            "catchResponse": -1,
            "catchTime": 1680836600596,
            "trialTime": 0
        },
        {
            "exptPart": "trial",
            "trialNumber": 78,
            "roleCurrent": "receiver",
            "marblesSampled": 100,
            "probRed": 0.5,
            "practiceLambda": 5,
            "trialLambda": 21.9,
            "instructedLambda": "dishonest_small",
            "drawnRed": 54,
            "reportedRed": 78,
            "inferredRed": 77,
            "playerTrialScore": -23,
            "oppTrialScore": 23,
            "playerTotalScore": -1468,
            "oppTotalScore": 1400,
            "waitTime": 7329.229691849321,
            "responseTime": 1680836699348,
            "catchQuestion": "How many <b class=\"r\">red<\/b> marbles did your opponent report drawing? ",
            "catchKey": -1,
            "catchResponse": -1,
            "catchTime": 1680836600596,
            "trialTime": 0
        },
        {
            "exptPart": "trial",
            "trialNumber": 79,
            "roleCurrent": "receiver",
            "marblesSampled": 100,
            "probRed": 0.5,
            "practiceLambda": 5,
            "trialLambda": 21.9,
            "instructedLambda": "dishonest_small",
            "drawnRed": 32,
            "reportedRed": 60,
            "inferredRed": 58,
            "playerTrialScore": -26,
            "oppTrialScore": 26,
            "playerTotalScore": -1494,
            "oppTotalScore": 1426,
            "waitTime": 5667.885953039198,
            "responseTime": 1680836726151,
            "catchQuestion": "How many <b class=\"r\">red<\/b> marbles did your opponent report drawing? ",
            "catchKey": -1,
            "catchResponse": -1,
            "catchTime": 1680836600596,
            "trialTime": 0
        },
        {
            "exptPart": "trial",
            "trialNumber": 80,
            "roleCurrent": "receiver",
            "marblesSampled": 100,
            "probRed": 0.5,
            "practiceLambda": 5,
            "trialLambda": 21.9,
            "instructedLambda": "dishonest_small",
            "drawnRed": 61,
            "reportedRed": 81,
            "inferredRed": 79,
            "playerTrialScore": -18,
            "oppTrialScore": 18,
            "playerTotalScore": -1512,
            "oppTotalScore": 1444,
            "waitTime": 5284.690530887587,
            "responseTime": 1680836739714,
            "catchQuestion": "How many <b class=\"r\">red<\/b> marbles did your opponent report drawing? ",
            "catchKey": -1,
            "catchResponse": -1,
            "catchTime": 1680836739714,
            "trialTime": 0
        },
        {
            "exptPart": "trial",
            "trialNumber": 81,
            "roleCurrent": "receiver",
            "marblesSampled": 100,
            "probRed": 0.5,
            "practiceLambda": 5,
            "trialLambda": 21.9,
            "instructedLambda": "dishonest_small",
            "drawnRed": 31,
            "reportedRed": 56,
            "inferredRed": 52,
            "playerTrialScore": -21,
            "oppTrialScore": 21,
            "playerTotalScore": -1533,
            "oppTotalScore": 1465,
            "waitTime": 6586.924959357644,
            "responseTime": 1680836755430,
            "catchQuestion": "How many <b class=\"r\">red<\/b> marbles did your opponent report drawing? ",
            "catchKey": -1,
            "catchResponse": -1,
            "catchTime": 1680836739714,
            "trialTime": 0
        },
        {
            "exptPart": "trial",
            "trialNumber": 82,
            "roleCurrent": "receiver",
            "marblesSampled": 100,
            "probRed": 0.5,
            "practiceLambda": 5,
            "trialLambda": 21.9,
            "instructedLambda": "dishonest_small",
            "drawnRed": 17,
            "reportedRed": 37,
            "inferredRed": 32,
            "playerTrialScore": -15,
            "oppTrialScore": 15,
            "playerTotalScore": -1548,
            "oppTotalScore": 1480,
            "waitTime": 6413.060509277679,
            "responseTime": 1680836770797,
            "catchQuestion": "How many <b class=\"r\">red<\/b> marbles did your opponent report drawing? ",
            "catchKey": -1,
            "catchResponse": -1,
            "catchTime": 1680836739714,
            "trialTime": 0
        },
        {
            "exptPart": "trial",
            "trialNumber": 83,
            "roleCurrent": "receiver",
            "marblesSampled": 100,
            "probRed": 0.5,
            "practiceLambda": 5,
            "trialLambda": 21.9,
            "instructedLambda": "dishonest_small",
            "drawnRed": 77,
            "reportedRed": 100,
            "inferredRed": 100,
            "playerTrialScore": -23,
            "oppTrialScore": 23,
            "playerTotalScore": -1571,
            "oppTotalScore": 1503,
            "waitTime": 7213.735563026456,
            "responseTime": 1680836789252,
            "catchQuestion": "How many <b class=\"r\">red<\/b> marbles did your opponent report drawing? ",
            "catchKey": -1,
            "catchResponse": -1,
            "catchTime": 1680836739714,
            "trialTime": 0
        },
        {
            "exptPart": "trial",
            "trialNumber": 84,
            "roleCurrent": "receiver",
            "marblesSampled": 100,
            "probRed": 0.5,
            "practiceLambda": 5,
            "trialLambda": 21.9,
            "instructedLambda": "dishonest_small",
            "drawnRed": 13,
            "reportedRed": 37,
            "inferredRed": 32,
            "playerTrialScore": -19,
            "oppTrialScore": 19,
            "playerTotalScore": -1590,
            "oppTotalScore": 1522,
            "waitTime": 6369.284054040978,
            "responseTime": 1680836799336,
            "catchQuestion": "How many <b class=\"r\">red<\/b> marbles did your opponent report drawing? ",
            "catchKey": -1,
            "catchResponse": -1,
            "catchTime": 1680836739714,
            "trialTime": 0
        },
        {
            "exptPart": "trial",
            "trialNumber": 85,
            "roleCurrent": "receiver",
            "marblesSampled": 100,
            "probRed": 0.5,
            "practiceLambda": 5,
            "trialLambda": 21.9,
            "instructedLambda": "dishonest_small",
            "drawnRed": 66,
            "reportedRed": 81,
            "inferredRed": 77,
            "playerTrialScore": -11,
            "oppTrialScore": 11,
            "playerTotalScore": -1601,
            "oppTotalScore": 1533,
            "waitTime": 5361.585537430382,
            "responseTime": 1680836807738,
            "catchQuestion": "How many <b class=\"r\">red<\/b> marbles did your opponent report drawing? ",
            "catchKey": -1,
            "catchResponse": -1,
            "catchTime": 1680836739714,
            "trialTime": 0
        },
        {
            "exptPart": "trial",
            "trialNumber": 86,
            "roleCurrent": "receiver",
            "marblesSampled": 100,
            "probRed": 0.5,
            "practiceLambda": 5,
            "trialLambda": 21.9,
            "instructedLambda": "dishonest_small",
            "drawnRed": 49,
            "reportedRed": 65,
            "inferredRed": 66,
            "playerTrialScore": -17,
            "oppTrialScore": 17,
            "playerTotalScore": -1618,
            "oppTotalScore": 1550,
            "waitTime": 5575.406646684822,
            "responseTime": 1680836818852,
            "catchQuestion": "How many <b class=\"r\">red<\/b> marbles did your opponent report drawing? ",
            "catchKey": -1,
            "catchResponse": -1,
            "catchTime": 1680836739714,
            "trialTime": 0
        },
        {
            "exptPart": "trial",
            "trialNumber": 87,
            "roleCurrent": "receiver",
            "marblesSampled": 100,
            "probRed": 0.5,
            "practiceLambda": 5,
            "trialLambda": 21.9,
            "instructedLambda": "dishonest_small",
            "drawnRed": 51,
            "reportedRed": 73,
            "inferredRed": 70,
            "playerTrialScore": -19,
            "oppTrialScore": 19,
            "playerTotalScore": -1637,
            "oppTotalScore": 1569,
            "waitTime": 6789.643839314267,
            "responseTime": 1680836835951,
            "catchQuestion": "How many <b class=\"r\">red<\/b> marbles did your opponent report drawing? ",
            "catchKey": -1,
            "catchResponse": -1,
            "catchTime": 1680836739714,
            "trialTime": 0
        },
        {
            "exptPart": "trial",
            "trialNumber": 88,
            "roleCurrent": "receiver",
            "marblesSampled": 100,
            "probRed": 0.5,
            "practiceLambda": 5,
            "trialLambda": 21.9,
            "instructedLambda": "dishonest_small",
            "drawnRed": 64,
            "reportedRed": 83,
            "inferredRed": 82,
            "playerTrialScore": -18,
            "oppTrialScore": 18,
            "playerTotalScore": -1655,
            "oppTotalScore": 1587,
            "waitTime": 5513.302788424988,
            "responseTime": 1680836851649,
            "catchQuestion": "How many <b class=\"r\">red<\/b> marbles did your opponent report drawing? ",
            "catchKey": -1,
            "catchResponse": -1,
            "catchTime": 1680836739714,
            "trialTime": 0
        },
        {
            "exptPart": "trial",
            "trialNumber": 89,
            "roleCurrent": "receiver",
            "marblesSampled": 100,
            "probRed": 0.5,
            "practiceLambda": 5,
            "trialLambda": 21.9,
            "instructedLambda": "dishonest_small",
            "drawnRed": 62,
            "reportedRed": 86,
            "inferredRed": 86,
            "playerTrialScore": -24,
            "oppTrialScore": 24,
            "playerTotalScore": -1679,
            "oppTotalScore": 1611,
            "waitTime": 7135.672463520693,
            "responseTime": 1680836862766,
            "catchQuestion": "How many <b class=\"r\">red<\/b> marbles did your opponent report drawing? ",
            "catchKey": -1,
            "catchResponse": -1,
            "catchTime": 1680836739714,
            "trialTime": 0
        },
        {
            "exptPart": "trial",
            "trialNumber": 90,
            "roleCurrent": "receiver",
            "marblesSampled": 100,
            "probRed": 0.5,
            "practiceLambda": 5,
            "trialLambda": 21.9,
            "instructedLambda": "dishonest_small",
            "drawnRed": 46,
            "reportedRed": 67,
            "inferredRed": 64,
            "playerTrialScore": -18,
            "oppTrialScore": 18,
            "playerTotalScore": -1697,
            "oppTotalScore": 1629,
            "waitTime": 6837.631991653673,
            "responseTime": 1680836872570,
            "catchQuestion": "How many <b class=\"r\">red<\/b> marbles did your opponent report drawing? ",
            "catchKey": -1,
            "catchResponse": -1,
            "catchTime": 1680836872571,
            "trialTime": 0
        },
        {
            "exptPart": "trial",
            "trialNumber": 91,
            "roleCurrent": "receiver",
            "marblesSampled": 100,
            "probRed": 0.5,
            "practiceLambda": 5,
            "trialLambda": 21.9,
            "instructedLambda": "dishonest_small",
            "drawnRed": 55,
            "reportedRed": 71,
            "inferredRed": 67,
            "playerTrialScore": -12,
            "oppTrialScore": 12,
            "playerTotalScore": -1709,
            "oppTotalScore": 1641,
            "waitTime": 6735.888751202917,
            "responseTime": 1680836884901,
            "catchQuestion": "How many <b class=\"r\">red<\/b> marbles did your opponent report drawing? ",
            "catchKey": 71,
            "catchResponse": 61,
            "catchTime": 1680836884901,
            "trialTime": 0
        },
        {
            "exptPart": "trial",
            "trialNumber": 92,
            "roleCurrent": "receiver",
            "marblesSampled": 100,
            "probRed": 0.5,
            "practiceLambda": 5,
            "trialLambda": 21.9,
            "instructedLambda": "dishonest_small",
            "drawnRed": 65,
            "reportedRed": 84,
            "inferredRed": 80,
            "playerTrialScore": -15,
            "oppTrialScore": 15,
            "playerTotalScore": -1724,
            "oppTotalScore": 1656,
            "waitTime": 5411.017926592999,
            "responseTime": 1680836902634,
            "catchQuestion": "How many <b class=\"r\">red<\/b> marbles did your opponent report drawing? ",
            "catchKey": -1,
            "catchResponse": -1,
            "catchTime": 1680836884901,
            "trialTime": 0
        },
        {
            "exptPart": "trial",
            "trialNumber": 93,
            "roleCurrent": "receiver",
            "marblesSampled": 100,
            "probRed": 0.5,
            "practiceLambda": 5,
            "trialLambda": 21.9,
            "instructedLambda": "dishonest_small",
            "drawnRed": 72,
            "reportedRed": 94,
            "inferredRed": 94,
            "playerTrialScore": -22,
            "oppTrialScore": 22,
            "playerTotalScore": -1746,
            "oppTotalScore": 1678,
            "waitTime": 6214.346238178607,
            "responseTime": 1680836911751,
            "catchQuestion": "How many <b class=\"r\">red<\/b> marbles did your opponent report drawing? ",
            "catchKey": -1,
            "catchResponse": -1,
            "catchTime": 1680836884901,
            "trialTime": 0
        },
        {
            "exptPart": "trial",
            "trialNumber": 94,
            "roleCurrent": "receiver",
            "marblesSampled": 100,
            "probRed": 0.5,
            "practiceLambda": 5,
            "trialLambda": 21.9,
            "instructedLambda": "dishonest_small",
            "drawnRed": 93,
            "reportedRed": 100,
            "inferredRed": 100,
            "playerTrialScore": -7,
            "oppTrialScore": 7,
            "playerTotalScore": -1753,
            "oppTotalScore": 1685,
            "waitTime": 5767.475290795371,
            "responseTime": 1680836920934,
            "catchQuestion": "How many <b class=\"r\">red<\/b> marbles did your opponent report drawing? ",
            "catchKey": -1,
            "catchResponse": -1,
            "catchTime": 1680836884901,
            "trialTime": 0
        },
        {
            "exptPart": "trial",
            "trialNumber": 95,
            "roleCurrent": "receiver",
            "marblesSampled": 100,
            "probRed": 0.5,
            "practiceLambda": 5,
            "trialLambda": 21.9,
            "instructedLambda": "dishonest_small",
            "drawnRed": 34,
            "reportedRed": 73,
            "inferredRed": 73,
            "playerTrialScore": -39,
            "oppTrialScore": 39,
            "playerTotalScore": -1792,
            "oppTotalScore": 1724,
            "waitTime": 6672.577482627639,
            "responseTime": 1680836930722,
            "catchQuestion": "How many <b class=\"r\">red<\/b> marbles did your opponent report drawing? ",
            "catchKey": -1,
            "catchResponse": -1,
            "catchTime": 1680836884901,
            "trialTime": 0
        },
        {
            "exptPart": "trial",
            "trialNumber": 96,
            "roleCurrent": "receiver",
            "marblesSampled": 100,
            "probRed": 0.5,
            "practiceLambda": 5,
            "trialLambda": 21.9,
            "instructedLambda": "dishonest_small",
            "drawnRed": 53,
            "reportedRed": 74,
            "inferredRed": 72,
            "playerTrialScore": -19,
            "oppTrialScore": 19,
            "playerTotalScore": -1811,
            "oppTotalScore": 1743,
            "waitTime": 7351.995975578413,
            "responseTime": 1680836941373,
            "catchQuestion": "How many <b class=\"r\">red<\/b> marbles did your opponent report drawing? ",
            "catchKey": -1,
            "catchResponse": -1,
            "catchTime": 1680836884901,
            "trialTime": 0
        },
        {
            "exptPart": "trial",
            "trialNumber": 97,
            "roleCurrent": "receiver",
            "marblesSampled": 100,
            "probRed": 0.5,
            "practiceLambda": 5,
            "trialLambda": 21.9,
            "instructedLambda": "dishonest_small",
            "drawnRed": 54,
            "reportedRed": 75,
            "inferredRed": 78,
            "playerTrialScore": -24,
            "oppTrialScore": 24,
            "playerTotalScore": -1835,
            "oppTotalScore": 1767,
            "waitTime": 6292.543106112924,
            "responseTime": 1680836950373,
            "catchQuestion": "How many <b class=\"r\">red<\/b> marbles did your opponent report drawing? ",
            "catchKey": 75,
            "catchResponse": 75,
            "catchTime": 1680836950373,
            "trialTime": 0
        },
        {
            "exptPart": "trial",
            "trialNumber": 98,
            "roleCurrent": "receiver",
            "marblesSampled": 100,
            "probRed": 0.5,
            "practiceLambda": 5,
            "trialLambda": 21.9,
            "instructedLambda": "dishonest_small",
            "drawnRed": 59,
            "reportedRed": 83,
            "inferredRed": 81,
            "playerTrialScore": -22,
            "oppTrialScore": 22,
            "playerTotalScore": -1857,
            "oppTotalScore": 1789,
            "waitTime": 6706.552144966221,
            "responseTime": 1680836964090,
            "catchQuestion": "How many <b class=\"r\">red<\/b> marbles did your opponent report drawing? ",
            "catchKey": -1,
            "catchResponse": -1,
            "catchTime": 1680836950373,
            "trialTime": 0
        },
        {
            "exptPart": "trial",
            "trialNumber": 99,
            "roleCurrent": "receiver",
            "marblesSampled": 100,
            "probRed": 0.5,
            "practiceLambda": 5,
            "trialLambda": 21.9,
            "instructedLambda": "dishonest_small",
            "drawnRed": 35,
            "reportedRed": 58,
            "inferredRed": 56,
            "playerTrialScore": -21,
            "oppTrialScore": 21,
            "playerTotalScore": -1878,
            "oppTotalScore": 1810,
            "waitTime": 6798.513697315755,
            "responseTime": 1680836973990,
            "catchQuestion": "How many <b class=\"r\">red<\/b> marbles did your opponent report drawing? ",
            "catchKey": -1,
            "catchResponse": -1,
            "catchTime": 1680836950373,
            "trialTime": 0
        },
        {
            "exptPart": "trial",
            "trialNumber": 100,
            "roleCurrent": "receiver",
            "marblesSampled": 100,
            "probRed": 0.5,
            "practiceLambda": 5,
            "trialLambda": 21.9,
            "instructedLambda": "dishonest_small",
            "drawnRed": 83,
            "reportedRed": 100,
            "inferredRed": 100,
            "playerTrialScore": -17,
            "oppTrialScore": 17,
            "playerTotalScore": -1895,
            "oppTotalScore": 1827,
            "waitTime": 5488.938389473446,
            "responseTime": 1680836982758,
            "catchQuestion": "How many <b class=\"r\">red<\/b> marbles did your opponent report drawing? ",
            "catchKey": -1,
            "catchResponse": -1,
            "catchTime": 1680836982758,
            "trialTime": 0
        }
    ]
}