{
    "client": {
        "type": "sona",
        "experiment_id": 2228,
        "credit_token": "b315147ae43241ea9c65086cb510cfb7",
        "survey_code": "39620",
        "sid": "sona-39620",
        "window": {
            "width": 1280,
            "height": 609
        },
        "screen": {
            "width": 1280,
            "height": 720
        },
        "userAgent": "Mozilla\/5.0 (Windows NT 10.0; Win64; x64) AppleWebKit\/537.36 (KHTML, like Gecko) Chrome\/111.0.0.0 Safari\/537.36",
        "score": 0,
        "bonus": 0
    },
    "expt": {
        "saveURL": "submit.simple.php",
        "trials": 100,
        "practiceTrials": 2,
        "marblesSampled": 100,
        "probRed": 0.5,
        "practiceLambdaAI": 5,
        "lambdaAI": 8.1,
        "roles": [
            "sender",
            "receiver"
        ],
        "cost": "unif",
        "goal": "over",
        "oppDishonesty": "honest",
        "catchTrials": [
            42,
            33,
            90,
            72,
            9,
            53,
            51,
            34,
            36,
            12
        ],
        "scoreTotal": {
            "player": -1494,
            "opp": 1426
        },
        "sona": {
            "experiment_id": 2228,
            "credit_token": "b315147ae43241ea9c65086cb510cfb7"
        },
        "pilot": false,
        "debug": false
    },
    "trials": [
        {
            "exptPart": "practice",
            "trialNumber": 1,
            "roleCurrent": "sender",
            "marblesSampled": 100,
            "probRed": 0.5,
            "practiceLambda": 5,
            "trialLambda": 8.1,
            "instructedLambda": "honest",
            "drawnRed": 62,
            "reportedRed": 61,
            "inferredRed": 54,
            "playerTrialScore": 0,
            "oppTrialScore": -8,
            "playerTotalScore": 0,
            "oppTotalScore": -8,
            "waitTime": 2177.017026704606,
            "responseTime": 1680884425981,
            "catchQuestion": "How many <b class=\"r\">red<\/b> marbles did you actually draw (before any changes)? ",
            "catchKey": 62,
            "catchResponse": 62,
            "catchTime": 1680884425982,
            "trialTime": 0
        },
        {
            "exptPart": "practice",
            "trialNumber": 2,
            "roleCurrent": "receiver",
            "marblesSampled": 100,
            "probRed": 0.5,
            "practiceLambda": 5,
            "trialLambda": 8.1,
            "instructedLambda": "honest",
            "drawnRed": 53,
            "reportedRed": 59,
            "inferredRed": 59,
            "playerTrialScore": -6,
            "oppTrialScore": 6,
            "playerTotalScore": -6,
            "oppTotalScore": -2,
            "waitTime": 7310.9838788463985,
            "responseTime": 1680884472266,
            "catchQuestion": "How many <b class=\"r\">red<\/b> marbles did your opponent report drawing? ",
            "catchKey": 59,
            "catchResponse": 59,
            "catchTime": 1680884472266,
            "trialTime": 0
        },
        {
            "exptPart": "trial",
            "trialNumber": 1,
            "roleCurrent": "receiver",
            "marblesSampled": 100,
            "probRed": 0.5,
            "practiceLambda": 5,
            "trialLambda": 8.1,
            "instructedLambda": "honest",
            "drawnRed": 56,
            "reportedRed": 62,
            "inferredRed": 60,
            "playerTrialScore": -4,
            "oppTrialScore": 4,
            "playerTotalScore": -4,
            "oppTotalScore": 4,
            "waitTime": 6139.58559448967,
            "responseTime": 1680884585617,
            "catchQuestion": "How many <b class=\"r\">red<\/b> marbles did your opponent report drawing? ",
            "catchKey": -1,
            "catchResponse": -1,
            "catchTime": 1680884472266,
            "trialTime": 0
        },
        {
            "exptPart": "trial",
            "trialNumber": 2,
            "roleCurrent": "receiver",
            "marblesSampled": 100,
            "probRed": 0.5,
            "practiceLambda": 5,
            "trialLambda": 8.1,
            "instructedLambda": "honest",
            "drawnRed": 32,
            "reportedRed": 42,
            "inferredRed": 40,
            "playerTrialScore": -8,
            "oppTrialScore": 8,
            "playerTotalScore": -12,
            "oppTotalScore": 12,
            "waitTime": 6030.760122721658,
            "responseTime": 1680884608145,
            "catchQuestion": "How many <b class=\"r\">red<\/b> marbles did your opponent report drawing? ",
            "catchKey": -1,
            "catchResponse": -1,
            "catchTime": 1680884472266,
            "trialTime": 0
        },
        {
            "exptPart": "trial",
            "trialNumber": 3,
            "roleCurrent": "receiver",
            "marblesSampled": 100,
            "probRed": 0.5,
            "practiceLambda": 5,
            "trialLambda": 8.1,
            "instructedLambda": "honest",
            "drawnRed": 54,
            "reportedRed": 65,
            "inferredRed": 63,
            "playerTrialScore": -9,
            "oppTrialScore": 9,
            "playerTotalScore": -21,
            "oppTotalScore": 21,
            "waitTime": 5915.500917713856,
            "responseTime": 1680884622843,
            "catchQuestion": "How many <b class=\"r\">red<\/b> marbles did your opponent report drawing? ",
            "catchKey": -1,
            "catchResponse": -1,
            "catchTime": 1680884472266,
            "trialTime": 0
        },
        {
            "exptPart": "trial",
            "trialNumber": 4,
            "roleCurrent": "receiver",
            "marblesSampled": 100,
            "probRed": 0.5,
            "practiceLambda": 5,
            "trialLambda": 8.1,
            "instructedLambda": "honest",
            "drawnRed": 74,
            "reportedRed": 83,
            "inferredRed": 80,
            "playerTrialScore": -6,
            "oppTrialScore": 6,
            "playerTotalScore": -27,
            "oppTotalScore": 27,
            "waitTime": 6299.335612272666,
            "responseTime": 1680884633013,
            "catchQuestion": "How many <b class=\"r\">red<\/b> marbles did your opponent report drawing? ",
            "catchKey": -1,
            "catchResponse": -1,
            "catchTime": 1680884472266,
            "trialTime": 0
        },
        {
            "exptPart": "trial",
            "trialNumber": 5,
            "roleCurrent": "receiver",
            "marblesSampled": 100,
            "probRed": 0.5,
            "practiceLambda": 5,
            "trialLambda": 8.1,
            "instructedLambda": "honest",
            "drawnRed": 60,
            "reportedRed": 68,
            "inferredRed": 66,
            "playerTrialScore": -6,
            "oppTrialScore": 6,
            "playerTotalScore": -33,
            "oppTotalScore": 33,
            "waitTime": 5713.524603155312,
            "responseTime": 1680884649567,
            "catchQuestion": "How many <b class=\"r\">red<\/b> marbles did your opponent report drawing? ",
            "catchKey": -1,
            "catchResponse": -1,
            "catchTime": 1680884472266,
            "trialTime": 0
        },
        {
            "exptPart": "trial",
            "trialNumber": 6,
            "roleCurrent": "receiver",
            "marblesSampled": 100,
            "probRed": 0.5,
            "practiceLambda": 5,
            "trialLambda": 8.1,
            "instructedLambda": "honest",
            "drawnRed": 35,
            "reportedRed": 40,
            "inferredRed": 42,
            "playerTrialScore": -7,
            "oppTrialScore": 7,
            "playerTotalScore": -40,
            "oppTotalScore": 40,
            "waitTime": 6831.300197980972,
            "responseTime": 1680884659293,
            "catchQuestion": "How many <b class=\"r\">red<\/b> marbles did your opponent report drawing? ",
            "catchKey": -1,
            "catchResponse": -1,
            "catchTime": 1680884472266,
            "trialTime": 0
        },
        {
            "exptPart": "trial",
            "trialNumber": 7,
            "roleCurrent": "receiver",
            "marblesSampled": 100,
            "probRed": 0.5,
            "practiceLambda": 5,
            "trialLambda": 8.1,
            "instructedLambda": "honest",
            "drawnRed": 37,
            "reportedRed": 42,
            "inferredRed": 44,
            "playerTrialScore": -7,
            "oppTrialScore": 7,
            "playerTotalScore": -47,
            "oppTotalScore": 47,
            "waitTime": 6242.826002178554,
            "responseTime": 1680884671257,
            "catchQuestion": "How many <b class=\"r\">red<\/b> marbles did your opponent report drawing? ",
            "catchKey": -1,
            "catchResponse": -1,
            "catchTime": 1680884472266,
            "trialTime": 0
        },
        {
            "exptPart": "trial",
            "trialNumber": 8,
            "roleCurrent": "receiver",
            "marblesSampled": 100,
            "probRed": 0.5,
            "practiceLambda": 5,
            "trialLambda": 8.1,
            "instructedLambda": "honest",
            "drawnRed": 31,
            "reportedRed": 40,
            "inferredRed": 40,
            "playerTrialScore": -9,
            "oppTrialScore": 9,
            "playerTotalScore": -56,
            "oppTotalScore": 56,
            "waitTime": 6570.094951025041,
            "responseTime": 1680884680163,
            "catchQuestion": "How many <b class=\"r\">red<\/b> marbles did your opponent report drawing? ",
            "catchKey": -1,
            "catchResponse": -1,
            "catchTime": 1680884472266,
            "trialTime": 0
        },
        {
            "exptPart": "trial",
            "trialNumber": 9,
            "roleCurrent": "receiver",
            "marblesSampled": 100,
            "probRed": 0.5,
            "practiceLambda": 5,
            "trialLambda": 8.1,
            "instructedLambda": "honest",
            "drawnRed": 52,
            "reportedRed": 66,
            "inferredRed": 66,
            "playerTrialScore": -14,
            "oppTrialScore": 14,
            "playerTotalScore": -70,
            "oppTotalScore": 70,
            "waitTime": 5226.0581087030405,
            "responseTime": 1680884688231,
            "catchQuestion": "How many <b class=\"r\">red<\/b> marbles did your opponent report drawing? ",
            "catchKey": -1,
            "catchResponse": -1,
            "catchTime": 1680884472266,
            "trialTime": 0
        },
        {
            "exptPart": "trial",
            "trialNumber": 10,
            "roleCurrent": "receiver",
            "marblesSampled": 100,
            "probRed": 0.5,
            "practiceLambda": 5,
            "trialLambda": 8.1,
            "instructedLambda": "honest",
            "drawnRed": 66,
            "reportedRed": 72,
            "inferredRed": 72,
            "playerTrialScore": -6,
            "oppTrialScore": 6,
            "playerTotalScore": -76,
            "oppTotalScore": 76,
            "waitTime": 6581.58418971551,
            "responseTime": 1680884698944,
            "catchQuestion": "How many <b class=\"r\">red<\/b> marbles did your opponent report drawing? ",
            "catchKey": 72,
            "catchResponse": 40,
            "catchTime": 1680884698944,
            "trialTime": 0
        },
        {
            "exptPart": "trial",
            "trialNumber": 11,
            "roleCurrent": "receiver",
            "marblesSampled": 100,
            "probRed": 0.5,
            "practiceLambda": 5,
            "trialLambda": 8.1,
            "instructedLambda": "honest",
            "drawnRed": 35,
            "reportedRed": 41,
            "inferredRed": 35,
            "playerTrialScore": 0,
            "oppTrialScore": 0,
            "playerTotalScore": -76,
            "oppTotalScore": 76,
            "waitTime": 6073.212267059773,
            "responseTime": 1680884776186,
            "catchQuestion": "How many <b class=\"r\">red<\/b> marbles did your opponent report drawing? ",
            "catchKey": -1,
            "catchResponse": -1,
            "catchTime": 1680884698944,
            "trialTime": 0
        },
        {
            "exptPart": "trial",
            "trialNumber": 12,
            "roleCurrent": "receiver",
            "marblesSampled": 100,
            "probRed": 0.5,
            "practiceLambda": 5,
            "trialLambda": 8.1,
            "instructedLambda": "honest",
            "drawnRed": 27,
            "reportedRed": 34,
            "inferredRed": 30,
            "playerTrialScore": -3,
            "oppTrialScore": 3,
            "playerTotalScore": -79,
            "oppTotalScore": 79,
            "waitTime": 6206.086668805676,
            "responseTime": 1680884786658,
            "catchQuestion": "How many <b class=\"r\">red<\/b> marbles did your opponent report drawing? ",
            "catchKey": -1,
            "catchResponse": -1,
            "catchTime": 1680884698944,
            "trialTime": 0
        },
        {
            "exptPart": "trial",
            "trialNumber": 13,
            "roleCurrent": "receiver",
            "marblesSampled": 100,
            "probRed": 0.5,
            "practiceLambda": 5,
            "trialLambda": 8.1,
            "instructedLambda": "honest",
            "drawnRed": 43,
            "reportedRed": 55,
            "inferredRed": 10,
            "playerTrialScore": -33,
            "oppTrialScore": 0,
            "playerTotalScore": -112,
            "oppTotalScore": 79,
            "waitTime": 7020.1491409324035,
            "responseTime": 1680884800344,
            "catchQuestion": "How many <b class=\"r\">red<\/b> marbles did your opponent report drawing? ",
            "catchKey": 55,
            "catchResponse": 55,
            "catchTime": 1680884800345,
            "trialTime": 0
        },
        {
            "exptPart": "trial",
            "trialNumber": 14,
            "roleCurrent": "receiver",
            "marblesSampled": 100,
            "probRed": 0.5,
            "practiceLambda": 5,
            "trialLambda": 8.1,
            "instructedLambda": "honest",
            "drawnRed": 24,
            "reportedRed": 33,
            "inferredRed": 30,
            "playerTrialScore": -6,
            "oppTrialScore": 6,
            "playerTotalScore": -118,
            "oppTotalScore": 85,
            "waitTime": 6156.028310952339,
            "responseTime": 1680884917161,
            "catchQuestion": "How many <b class=\"r\">red<\/b> marbles did your opponent report drawing? ",
            "catchKey": -1,
            "catchResponse": -1,
            "catchTime": 1680884800345,
            "trialTime": 0
        },
        {
            "exptPart": "trial",
            "trialNumber": 15,
            "roleCurrent": "receiver",
            "marblesSampled": 100,
            "probRed": 0.5,
            "practiceLambda": 5,
            "trialLambda": 8.1,
            "instructedLambda": "honest",
            "drawnRed": 65,
            "reportedRed": 75,
            "inferredRed": 30,
            "playerTrialScore": -35,
            "oppTrialScore": 0,
            "playerTotalScore": -153,
            "oppTotalScore": 85,
            "waitTime": 6303.350795064639,
            "responseTime": 1680884930038,
            "catchQuestion": "How many <b class=\"r\">red<\/b> marbles did your opponent report drawing? ",
            "catchKey": -1,
            "catchResponse": -1,
            "catchTime": 1680884800345,
            "trialTime": 0
        },
        {
            "exptPart": "trial",
            "trialNumber": 16,
            "roleCurrent": "receiver",
            "marblesSampled": 100,
            "probRed": 0.5,
            "practiceLambda": 5,
            "trialLambda": 8.1,
            "instructedLambda": "honest",
            "drawnRed": 56,
            "reportedRed": 63,
            "inferredRed": 60,
            "playerTrialScore": -4,
            "oppTrialScore": 4,
            "playerTotalScore": -157,
            "oppTotalScore": 89,
            "waitTime": 7177.361410866389,
            "responseTime": 1680884941889,
            "catchQuestion": "How many <b class=\"r\">red<\/b> marbles did your opponent report drawing? ",
            "catchKey": -1,
            "catchResponse": -1,
            "catchTime": 1680884800345,
            "trialTime": 0
        },
        {
            "exptPart": "trial",
            "trialNumber": 17,
            "roleCurrent": "receiver",
            "marblesSampled": 100,
            "probRed": 0.5,
            "practiceLambda": 5,
            "trialLambda": 8.1,
            "instructedLambda": "honest",
            "drawnRed": 30,
            "reportedRed": 40,
            "inferredRed": 40,
            "playerTrialScore": -10,
            "oppTrialScore": 10,
            "playerTotalScore": -167,
            "oppTotalScore": 99,
            "waitTime": 6024.127810153338,
            "responseTime": 1680884955523,
            "catchQuestion": "How many <b class=\"r\">red<\/b> marbles did your opponent report drawing? ",
            "catchKey": -1,
            "catchResponse": -1,
            "catchTime": 1680884800345,
            "trialTime": 0
        },
        {
            "exptPart": "trial",
            "trialNumber": 18,
            "roleCurrent": "receiver",
            "marblesSampled": 100,
            "probRed": 0.5,
            "practiceLambda": 5,
            "trialLambda": 8.1,
            "instructedLambda": "honest",
            "drawnRed": 30,
            "reportedRed": 40,
            "inferredRed": 40,
            "playerTrialScore": -10,
            "oppTrialScore": 10,
            "playerTotalScore": -177,
            "oppTotalScore": 109,
            "waitTime": 5966.358189398451,
            "responseTime": 1680884967095,
            "catchQuestion": "How many <b class=\"r\">red<\/b> marbles did your opponent report drawing? ",
            "catchKey": -1,
            "catchResponse": -1,
            "catchTime": 1680884800345,
            "trialTime": 0
        },
        {
            "exptPart": "trial",
            "trialNumber": 19,
            "roleCurrent": "receiver",
            "marblesSampled": 100,
            "probRed": 0.5,
            "practiceLambda": 5,
            "trialLambda": 8.1,
            "instructedLambda": "honest",
            "drawnRed": 29,
            "reportedRed": 37,
            "inferredRed": 35,
            "playerTrialScore": -6,
            "oppTrialScore": 6,
            "playerTotalScore": -183,
            "oppTotalScore": 115,
            "waitTime": 5483.3078767501565,
            "responseTime": 1680884978149,
            "catchQuestion": "How many <b class=\"r\">red<\/b> marbles did your opponent report drawing? ",
            "catchKey": -1,
            "catchResponse": -1,
            "catchTime": 1680884800345,
            "trialTime": 0
        },
        {
            "exptPart": "trial",
            "trialNumber": 20,
            "roleCurrent": "receiver",
            "marblesSampled": 100,
            "probRed": 0.5,
            "practiceLambda": 5,
            "trialLambda": 8.1,
            "instructedLambda": "honest",
            "drawnRed": 81,
            "reportedRed": 87,
            "inferredRed": 83,
            "playerTrialScore": -2,
            "oppTrialScore": 2,
            "playerTotalScore": -185,
            "oppTotalScore": 117,
            "waitTime": 6695.1365142242685,
            "responseTime": 1680884991543,
            "catchQuestion": "How many <b class=\"r\">red<\/b> marbles did your opponent report drawing? ",
            "catchKey": -1,
            "catchResponse": -1,
            "catchTime": 1680884991543,
            "trialTime": 0
        },
        {
            "exptPart": "trial",
            "trialNumber": 21,
            "roleCurrent": "receiver",
            "marblesSampled": 100,
            "probRed": 0.5,
            "practiceLambda": 5,
            "trialLambda": 8.1,
            "instructedLambda": "honest",
            "drawnRed": 88,
            "reportedRed": 98,
            "inferredRed": 90,
            "playerTrialScore": -2,
            "oppTrialScore": 2,
            "playerTotalScore": -187,
            "oppTotalScore": 119,
            "waitTime": 5511.8447884969555,
            "responseTime": 1680885010671,
            "catchQuestion": "How many <b class=\"r\">red<\/b> marbles did your opponent report drawing? ",
            "catchKey": -1,
            "catchResponse": -1,
            "catchTime": 1680884991543,
            "trialTime": 0
        },
        {
            "exptPart": "trial",
            "trialNumber": 22,
            "roleCurrent": "receiver",
            "marblesSampled": 100,
            "probRed": 0.5,
            "practiceLambda": 5,
            "trialLambda": 8.1,
            "instructedLambda": "honest",
            "drawnRed": 46,
            "reportedRed": 53,
            "inferredRed": 53,
            "playerTrialScore": -7,
            "oppTrialScore": 7,
            "playerTotalScore": -194,
            "oppTotalScore": 126,
            "waitTime": 6885.50192371392,
            "responseTime": 1680885020818,
            "catchQuestion": "How many <b class=\"r\">red<\/b> marbles did your opponent report drawing? ",
            "catchKey": -1,
            "catchResponse": -1,
            "catchTime": 1680884991543,
            "trialTime": 0
        },
        {
            "exptPart": "trial",
            "trialNumber": 23,
            "roleCurrent": "receiver",
            "marblesSampled": 100,
            "probRed": 0.5,
            "practiceLambda": 5,
            "trialLambda": 8.1,
            "instructedLambda": "honest",
            "drawnRed": 40,
            "reportedRed": 52,
            "inferredRed": 50,
            "playerTrialScore": -10,
            "oppTrialScore": 10,
            "playerTotalScore": -204,
            "oppTotalScore": 136,
            "waitTime": 5195.1333736255965,
            "responseTime": 1680885029279,
            "catchQuestion": "How many <b class=\"r\">red<\/b> marbles did your opponent report drawing? ",
            "catchKey": -1,
            "catchResponse": -1,
            "catchTime": 1680884991543,
            "trialTime": 0
        },
        {
            "exptPart": "trial",
            "trialNumber": 24,
            "roleCurrent": "receiver",
            "marblesSampled": 100,
            "probRed": 0.5,
            "practiceLambda": 5,
            "trialLambda": 8.1,
            "instructedLambda": "honest",
            "drawnRed": 46,
            "reportedRed": 54,
            "inferredRed": 54,
            "playerTrialScore": -8,
            "oppTrialScore": 8,
            "playerTotalScore": -212,
            "oppTotalScore": 144,
            "waitTime": 7321.512947615524,
            "responseTime": 1680885040739,
            "catchQuestion": "How many <b class=\"r\">red<\/b> marbles did your opponent report drawing? ",
            "catchKey": -1,
            "catchResponse": -1,
            "catchTime": 1680884991543,
            "trialTime": 0
        },
        {
            "exptPart": "trial",
            "trialNumber": 25,
            "roleCurrent": "receiver",
            "marblesSampled": 100,
            "probRed": 0.5,
            "practiceLambda": 5,
            "trialLambda": 8.1,
            "instructedLambda": "honest",
            "drawnRed": 84,
            "reportedRed": 94,
            "inferredRed": 90,
            "playerTrialScore": -6,
            "oppTrialScore": 6,
            "playerTotalScore": -218,
            "oppTotalScore": 150,
            "waitTime": 5876.839171111382,
            "responseTime": 1680885053386,
            "catchQuestion": "How many <b class=\"r\">red<\/b> marbles did your opponent report drawing? ",
            "catchKey": -1,
            "catchResponse": -1,
            "catchTime": 1680884991543,
            "trialTime": 0
        },
        {
            "exptPart": "trial",
            "trialNumber": 26,
            "roleCurrent": "receiver",
            "marblesSampled": 100,
            "probRed": 0.5,
            "practiceLambda": 5,
            "trialLambda": 8.1,
            "instructedLambda": "honest",
            "drawnRed": 67,
            "reportedRed": 74,
            "inferredRed": 70,
            "playerTrialScore": -3,
            "oppTrialScore": 3,
            "playerTotalScore": -221,
            "oppTotalScore": 153,
            "waitTime": 5872.151622667221,
            "responseTime": 1680885072712,
            "catchQuestion": "How many <b class=\"r\">red<\/b> marbles did your opponent report drawing? ",
            "catchKey": -1,
            "catchResponse": -1,
            "catchTime": 1680884991543,
            "trialTime": 0
        },
        {
            "exptPart": "trial",
            "trialNumber": 27,
            "roleCurrent": "receiver",
            "marblesSampled": 100,
            "probRed": 0.5,
            "practiceLambda": 5,
            "trialLambda": 8.1,
            "instructedLambda": "honest",
            "drawnRed": 49,
            "reportedRed": 58,
            "inferredRed": 54,
            "playerTrialScore": -5,
            "oppTrialScore": 5,
            "playerTotalScore": -226,
            "oppTotalScore": 158,
            "waitTime": 6007.362026934685,
            "responseTime": 1680885081934,
            "catchQuestion": "How many <b class=\"r\">red<\/b> marbles did your opponent report drawing? ",
            "catchKey": -1,
            "catchResponse": -1,
            "catchTime": 1680884991543,
            "trialTime": 0
        },
        {
            "exptPart": "trial",
            "trialNumber": 28,
            "roleCurrent": "receiver",
            "marblesSampled": 100,
            "probRed": 0.5,
            "practiceLambda": 5,
            "trialLambda": 8.1,
            "instructedLambda": "honest",
            "drawnRed": 76,
            "reportedRed": 84,
            "inferredRed": 80,
            "playerTrialScore": -4,
            "oppTrialScore": 4,
            "playerTotalScore": -230,
            "oppTotalScore": 162,
            "waitTime": 6916.767157931257,
            "responseTime": 1680885091735,
            "catchQuestion": "How many <b class=\"r\">red<\/b> marbles did your opponent report drawing? ",
            "catchKey": -1,
            "catchResponse": -1,
            "catchTime": 1680884991543,
            "trialTime": 0
        },
        {
            "exptPart": "trial",
            "trialNumber": 29,
            "roleCurrent": "receiver",
            "marblesSampled": 100,
            "probRed": 0.5,
            "practiceLambda": 5,
            "trialLambda": 8.1,
            "instructedLambda": "honest",
            "drawnRed": 54,
            "reportedRed": 59,
            "inferredRed": 57,
            "playerTrialScore": -3,
            "oppTrialScore": 3,
            "playerTotalScore": -233,
            "oppTotalScore": 165,
            "waitTime": 5360.8424711760035,
            "responseTime": 1680885103029,
            "catchQuestion": "How many <b class=\"r\">red<\/b> marbles did your opponent report drawing? ",
            "catchKey": -1,
            "catchResponse": -1,
            "catchTime": 1680884991543,
            "trialTime": 0
        },
        {
            "exptPart": "trial",
            "trialNumber": 30,
            "roleCurrent": "receiver",
            "marblesSampled": 100,
            "probRed": 0.5,
            "practiceLambda": 5,
            "trialLambda": 8.1,
            "instructedLambda": "honest",
            "drawnRed": 47,
            "reportedRed": 54,
            "inferredRed": 52,
            "playerTrialScore": -5,
            "oppTrialScore": 5,
            "playerTotalScore": -238,
            "oppTotalScore": 170,
            "waitTime": 5579.405855481802,
            "responseTime": 1680885112060,
            "catchQuestion": "How many <b class=\"r\">red<\/b> marbles did your opponent report drawing? ",
            "catchKey": -1,
            "catchResponse": -1,
            "catchTime": 1680885112060,
            "trialTime": 0
        },
        {
            "exptPart": "trial",
            "trialNumber": 31,
            "roleCurrent": "receiver",
            "marblesSampled": 100,
            "probRed": 0.5,
            "practiceLambda": 5,
            "trialLambda": 8.1,
            "instructedLambda": "honest",
            "drawnRed": 85,
            "reportedRed": 96,
            "inferredRed": 98,
            "playerTrialScore": -13,
            "oppTrialScore": 13,
            "playerTotalScore": -251,
            "oppTotalScore": 183,
            "waitTime": 6158.617455461808,
            "responseTime": 1680885134566,
            "catchQuestion": "How many <b class=\"r\">red<\/b> marbles did your opponent report drawing? ",
            "catchKey": -1,
            "catchResponse": -1,
            "catchTime": 1680885112060,
            "trialTime": 0
        },
        {
            "exptPart": "trial",
            "trialNumber": 32,
            "roleCurrent": "receiver",
            "marblesSampled": 100,
            "probRed": 0.5,
            "practiceLambda": 5,
            "trialLambda": 8.1,
            "instructedLambda": "honest",
            "drawnRed": 69,
            "reportedRed": 79,
            "inferredRed": 84,
            "playerTrialScore": -15,
            "oppTrialScore": 15,
            "playerTotalScore": -266,
            "oppTotalScore": 198,
            "waitTime": 5560.078317052532,
            "responseTime": 1680885143076,
            "catchQuestion": "How many <b class=\"r\">red<\/b> marbles did your opponent report drawing? ",
            "catchKey": -1,
            "catchResponse": -1,
            "catchTime": 1680885112060,
            "trialTime": 0
        },
        {
            "exptPart": "trial",
            "trialNumber": 33,
            "roleCurrent": "receiver",
            "marblesSampled": 100,
            "probRed": 0.5,
            "practiceLambda": 5,
            "trialLambda": 8.1,
            "instructedLambda": "honest",
            "drawnRed": 44,
            "reportedRed": 48,
            "inferredRed": 53,
            "playerTrialScore": -9,
            "oppTrialScore": 9,
            "playerTotalScore": -275,
            "oppTotalScore": 207,
            "waitTime": 6683.527766614669,
            "responseTime": 1680885155445,
            "catchQuestion": "How many <b class=\"r\">red<\/b> marbles did your opponent report drawing? ",
            "catchKey": -1,
            "catchResponse": -1,
            "catchTime": 1680885112060,
            "trialTime": 0
        },
        {
            "exptPart": "trial",
            "trialNumber": 34,
            "roleCurrent": "receiver",
            "marblesSampled": 100,
            "probRed": 0.5,
            "practiceLambda": 5,
            "trialLambda": 8.1,
            "instructedLambda": "honest",
            "drawnRed": 73,
            "reportedRed": 80,
            "inferredRed": 85,
            "playerTrialScore": -12,
            "oppTrialScore": 12,
            "playerTotalScore": -287,
            "oppTotalScore": 219,
            "waitTime": 5757.756807809779,
            "responseTime": 1680885165779,
            "catchQuestion": "How many <b class=\"r\">red<\/b> marbles did your opponent report drawing? ",
            "catchKey": 80,
            "catchResponse": 80,
            "catchTime": 1680885165779,
            "trialTime": 0
        },
        {
            "exptPart": "trial",
            "trialNumber": 35,
            "roleCurrent": "receiver",
            "marblesSampled": 100,
            "probRed": 0.5,
            "practiceLambda": 5,
            "trialLambda": 8.1,
            "instructedLambda": "honest",
            "drawnRed": 16,
            "reportedRed": 24,
            "inferredRed": 28,
            "playerTrialScore": -12,
            "oppTrialScore": 12,
            "playerTotalScore": -299,
            "oppTotalScore": 231,
            "waitTime": 5537.971164303941,
            "responseTime": 1680885199802,
            "catchQuestion": "How many <b class=\"r\">red<\/b> marbles did your opponent report drawing? ",
            "catchKey": 24,
            "catchResponse": 24,
            "catchTime": 1680885199802,
            "trialTime": 0
        },
        {
            "exptPart": "trial",
            "trialNumber": 36,
            "roleCurrent": "receiver",
            "marblesSampled": 100,
            "probRed": 0.5,
            "practiceLambda": 5,
            "trialLambda": 8.1,
            "instructedLambda": "honest",
            "drawnRed": 44,
            "reportedRed": 51,
            "inferredRed": 58,
            "playerTrialScore": -14,
            "oppTrialScore": 14,
            "playerTotalScore": -313,
            "oppTotalScore": 245,
            "waitTime": 7420.019466182496,
            "responseTime": 1680885222911,
            "catchQuestion": "How many <b class=\"r\">red<\/b> marbles did your opponent report drawing? ",
            "catchKey": -1,
            "catchResponse": -1,
            "catchTime": 1680885199802,
            "trialTime": 0
        },
        {
            "exptPart": "trial",
            "trialNumber": 37,
            "roleCurrent": "receiver",
            "marblesSampled": 100,
            "probRed": 0.5,
            "practiceLambda": 5,
            "trialLambda": 8.1,
            "instructedLambda": "honest",
            "drawnRed": 26,
            "reportedRed": 31,
            "inferredRed": 34,
            "playerTrialScore": -8,
            "oppTrialScore": 8,
            "playerTotalScore": -321,
            "oppTotalScore": 253,
            "waitTime": 6438.330752130253,
            "responseTime": 1680885232702,
            "catchQuestion": "How many <b class=\"r\">red<\/b> marbles did your opponent report drawing? ",
            "catchKey": 31,
            "catchResponse": 31,
            "catchTime": 1680885232702,
            "trialTime": 0
        },
        {
            "exptPart": "trial",
            "trialNumber": 38,
            "roleCurrent": "receiver",
            "marblesSampled": 100,
            "probRed": 0.5,
            "practiceLambda": 5,
            "trialLambda": 8.1,
            "instructedLambda": "honest",
            "drawnRed": 88,
            "reportedRed": 97,
            "inferredRed": 100,
            "playerTrialScore": -12,
            "oppTrialScore": 12,
            "playerTotalScore": -333,
            "oppTotalScore": 265,
            "waitTime": 6274.90206957549,
            "responseTime": 1680885257608,
            "catchQuestion": "How many <b class=\"r\">red<\/b> marbles did your opponent report drawing? ",
            "catchKey": -1,
            "catchResponse": -1,
            "catchTime": 1680885232702,
            "trialTime": 0
        },
        {
            "exptPart": "trial",
            "trialNumber": 39,
            "roleCurrent": "receiver",
            "marblesSampled": 100,
            "probRed": 0.5,
            "practiceLambda": 5,
            "trialLambda": 8.1,
            "instructedLambda": "honest",
            "drawnRed": 40,
            "reportedRed": 50,
            "inferredRed": 56,
            "playerTrialScore": -16,
            "oppTrialScore": 16,
            "playerTotalScore": -349,
            "oppTotalScore": 281,
            "waitTime": 6230.25536795217,
            "responseTime": 1680885275410,
            "catchQuestion": "How many <b class=\"r\">red<\/b> marbles did your opponent report drawing? ",
            "catchKey": -1,
            "catchResponse": -1,
            "catchTime": 1680885232702,
            "trialTime": 0
        },
        {
            "exptPart": "trial",
            "trialNumber": 40,
            "roleCurrent": "receiver",
            "marblesSampled": 100,
            "probRed": 0.5,
            "practiceLambda": 5,
            "trialLambda": 8.1,
            "instructedLambda": "honest",
            "drawnRed": 80,
            "reportedRed": 89,
            "inferredRed": 89,
            "playerTrialScore": -9,
            "oppTrialScore": 9,
            "playerTotalScore": -358,
            "oppTotalScore": 290,
            "waitTime": 7222.256548857844,
            "responseTime": 1680885288425,
            "catchQuestion": "How many <b class=\"r\">red<\/b> marbles did your opponent report drawing? ",
            "catchKey": -1,
            "catchResponse": -1,
            "catchTime": 1680885288425,
            "trialTime": 0
        },
        {
            "exptPart": "trial",
            "trialNumber": 41,
            "roleCurrent": "receiver",
            "marblesSampled": 100,
            "probRed": 0.5,
            "practiceLambda": 5,
            "trialLambda": 8.1,
            "instructedLambda": "honest",
            "drawnRed": 39,
            "reportedRed": 44,
            "inferredRed": 50,
            "playerTrialScore": -11,
            "oppTrialScore": 11,
            "playerTotalScore": -369,
            "oppTotalScore": 301,
            "waitTime": 6414.693011874379,
            "responseTime": 1680885300618,
            "catchQuestion": "How many <b class=\"r\">red<\/b> marbles did your opponent report drawing? ",
            "catchKey": -1,
            "catchResponse": -1,
            "catchTime": 1680885288425,
            "trialTime": 0
        },
        {
            "exptPart": "trial",
            "trialNumber": 42,
            "roleCurrent": "receiver",
            "marblesSampled": 100,
            "probRed": 0.5,
            "practiceLambda": 5,
            "trialLambda": 8.1,
            "instructedLambda": "honest",
            "drawnRed": 68,
            "reportedRed": 81,
            "inferredRed": 84,
            "playerTrialScore": -16,
            "oppTrialScore": 16,
            "playerTotalScore": -385,
            "oppTotalScore": 317,
            "waitTime": 5589.612270542197,
            "responseTime": 1680885321161,
            "catchQuestion": "How many <b class=\"r\">red<\/b> marbles did your opponent report drawing? ",
            "catchKey": -1,
            "catchResponse": -1,
            "catchTime": 1680885288425,
            "trialTime": 0
        },
        {
            "exptPart": "trial",
            "trialNumber": 43,
            "roleCurrent": "receiver",
            "marblesSampled": 100,
            "probRed": 0.5,
            "practiceLambda": 5,
            "trialLambda": 8.1,
            "instructedLambda": "honest",
            "drawnRed": 55,
            "reportedRed": 66,
            "inferredRed": 68,
            "playerTrialScore": -13,
            "oppTrialScore": 13,
            "playerTotalScore": -398,
            "oppTotalScore": 330,
            "waitTime": 5613.039276645131,
            "responseTime": 1680885391056,
            "catchQuestion": "How many <b class=\"r\">red<\/b> marbles did your opponent report drawing? ",
            "catchKey": 66,
            "catchResponse": 66,
            "catchTime": 1680885391056,
            "trialTime": 0
        },
        {
            "exptPart": "trial",
            "trialNumber": 44,
            "roleCurrent": "receiver",
            "marblesSampled": 100,
            "probRed": 0.5,
            "practiceLambda": 5,
            "trialLambda": 8.1,
            "instructedLambda": "honest",
            "drawnRed": 34,
            "reportedRed": 40,
            "inferredRed": 49,
            "playerTrialScore": -15,
            "oppTrialScore": 15,
            "playerTotalScore": -413,
            "oppTotalScore": 345,
            "waitTime": 5779.62989805127,
            "responseTime": 1680885416329,
            "catchQuestion": "How many <b class=\"r\">red<\/b> marbles did your opponent report drawing? ",
            "catchKey": -1,
            "catchResponse": -1,
            "catchTime": 1680885391056,
            "trialTime": 0
        },
        {
            "exptPart": "trial",
            "trialNumber": 45,
            "roleCurrent": "receiver",
            "marblesSampled": 100,
            "probRed": 0.5,
            "practiceLambda": 5,
            "trialLambda": 8.1,
            "instructedLambda": "honest",
            "drawnRed": 36,
            "reportedRed": 47,
            "inferredRed": 80,
            "playerTrialScore": -44,
            "oppTrialScore": 44,
            "playerTotalScore": -457,
            "oppTotalScore": 389,
            "waitTime": 5391.064397455348,
            "responseTime": 1680885430709,
            "catchQuestion": "How many <b class=\"r\">red<\/b> marbles did your opponent report drawing? ",
            "catchKey": -1,
            "catchResponse": -1,
            "catchTime": 1680885391056,
            "trialTime": 0
        },
        {
            "exptPart": "trial",
            "trialNumber": 46,
            "roleCurrent": "receiver",
            "marblesSampled": 100,
            "probRed": 0.5,
            "practiceLambda": 5,
            "trialLambda": 8.1,
            "instructedLambda": "honest",
            "drawnRed": 54,
            "reportedRed": 61,
            "inferredRed": 70,
            "playerTrialScore": -16,
            "oppTrialScore": 16,
            "playerTotalScore": -473,
            "oppTotalScore": 405,
            "waitTime": 5483.288679693974,
            "responseTime": 1680885440815,
            "catchQuestion": "How many <b class=\"r\">red<\/b> marbles did your opponent report drawing? ",
            "catchKey": -1,
            "catchResponse": -1,
            "catchTime": 1680885391056,
            "trialTime": 0
        },
        {
            "exptPart": "trial",
            "trialNumber": 47,
            "roleCurrent": "receiver",
            "marblesSampled": 100,
            "probRed": 0.5,
            "practiceLambda": 5,
            "trialLambda": 8.1,
            "instructedLambda": "honest",
            "drawnRed": 60,
            "reportedRed": 72,
            "inferredRed": 80,
            "playerTrialScore": -20,
            "oppTrialScore": 20,
            "playerTotalScore": -493,
            "oppTotalScore": 425,
            "waitTime": 5689.985004860195,
            "responseTime": 1680885459179,
            "catchQuestion": "How many <b class=\"r\">red<\/b> marbles did your opponent report drawing? ",
            "catchKey": -1,
            "catchResponse": -1,
            "catchTime": 1680885391056,
            "trialTime": 0
        },
        {
            "exptPart": "trial",
            "trialNumber": 48,
            "roleCurrent": "receiver",
            "marblesSampled": 100,
            "probRed": 0.5,
            "practiceLambda": 5,
            "trialLambda": 8.1,
            "instructedLambda": "honest",
            "drawnRed": 84,
            "reportedRed": 88,
            "inferredRed": 99,
            "playerTrialScore": -15,
            "oppTrialScore": 15,
            "playerTotalScore": -508,
            "oppTotalScore": 440,
            "waitTime": 5197.144784450374,
            "responseTime": 1680885467223,
            "catchQuestion": "How many <b class=\"r\">red<\/b> marbles did your opponent report drawing? ",
            "catchKey": -1,
            "catchResponse": -1,
            "catchTime": 1680885391056,
            "trialTime": 0
        },
        {
            "exptPart": "trial",
            "trialNumber": 49,
            "roleCurrent": "receiver",
            "marblesSampled": 100,
            "probRed": 0.5,
            "practiceLambda": 5,
            "trialLambda": 8.1,
            "instructedLambda": "honest",
            "drawnRed": 61,
            "reportedRed": 69,
            "inferredRed": 72,
            "playerTrialScore": -11,
            "oppTrialScore": 11,
            "playerTotalScore": -519,
            "oppTotalScore": 451,
            "waitTime": 6259.1459337918295,
            "responseTime": 1680885478100,
            "catchQuestion": "How many <b class=\"r\">red<\/b> marbles did your opponent report drawing? ",
            "catchKey": -1,
            "catchResponse": -1,
            "catchTime": 1680885391056,
            "trialTime": 0
        },
        {
            "exptPart": "trial",
            "trialNumber": 50,
            "roleCurrent": "receiver",
            "marblesSampled": 100,
            "probRed": 0.5,
            "practiceLambda": 5,
            "trialLambda": 8.1,
            "instructedLambda": "honest",
            "drawnRed": 47,
            "reportedRed": 56,
            "inferredRed": 59,
            "playerTrialScore": -12,
            "oppTrialScore": 12,
            "playerTotalScore": -531,
            "oppTotalScore": 463,
            "waitTime": 5652.041621780549,
            "responseTime": 1680885492076,
            "catchQuestion": "How many <b class=\"r\">red<\/b> marbles did your opponent report drawing? ",
            "catchKey": -1,
            "catchResponse": -1,
            "catchTime": 1680885492076,
            "trialTime": 0
        },
        {
            "exptPart": "trial",
            "trialNumber": 51,
            "roleCurrent": "receiver",
            "marblesSampled": 100,
            "probRed": 0.5,
            "practiceLambda": 5,
            "trialLambda": 8.1,
            "instructedLambda": "honest",
            "drawnRed": 19,
            "reportedRed": 24,
            "inferredRed": 28,
            "playerTrialScore": -9,
            "oppTrialScore": 9,
            "playerTotalScore": -540,
            "oppTotalScore": 472,
            "waitTime": 6185.126015094,
            "responseTime": 1680885503345,
            "catchQuestion": "How many <b class=\"r\">red<\/b> marbles did your opponent report drawing? ",
            "catchKey": -1,
            "catchResponse": -1,
            "catchTime": 1680885492076,
            "trialTime": 0
        },
        {
            "exptPart": "trial",
            "trialNumber": 52,
            "roleCurrent": "receiver",
            "marblesSampled": 100,
            "probRed": 0.5,
            "practiceLambda": 5,
            "trialLambda": 8.1,
            "instructedLambda": "honest",
            "drawnRed": 8,
            "reportedRed": 18,
            "inferredRed": 20,
            "playerTrialScore": -12,
            "oppTrialScore": 12,
            "playerTotalScore": -552,
            "oppTotalScore": 484,
            "waitTime": 7180.6430946283435,
            "responseTime": 1680885514277,
            "catchQuestion": "How many <b class=\"r\">red<\/b> marbles did your opponent report drawing? ",
            "catchKey": 18,
            "catchResponse": 18,
            "catchTime": 1680885514277,
            "trialTime": 0
        },
        {
            "exptPart": "trial",
            "trialNumber": 53,
            "roleCurrent": "receiver",
            "marblesSampled": 100,
            "probRed": 0.5,
            "practiceLambda": 5,
            "trialLambda": 8.1,
            "instructedLambda": "honest",
            "drawnRed": 90,
            "reportedRed": 99,
            "inferredRed": 99,
            "playerTrialScore": -9,
            "oppTrialScore": 9,
            "playerTotalScore": -561,
            "oppTotalScore": 493,
            "waitTime": 6365.696160065247,
            "responseTime": 1680885540042,
            "catchQuestion": "How many <b class=\"r\">red<\/b> marbles did your opponent report drawing? ",
            "catchKey": -1,
            "catchResponse": -1,
            "catchTime": 1680885514277,
            "trialTime": 0
        },
        {
            "exptPart": "trial",
            "trialNumber": 54,
            "roleCurrent": "receiver",
            "marblesSampled": 100,
            "probRed": 0.5,
            "practiceLambda": 5,
            "trialLambda": 8.1,
            "instructedLambda": "honest",
            "drawnRed": 53,
            "reportedRed": 67,
            "inferredRed": 68,
            "playerTrialScore": -15,
            "oppTrialScore": 15,
            "playerTotalScore": -576,
            "oppTotalScore": 508,
            "waitTime": 5499.467709496894,
            "responseTime": 1680885550412,
            "catchQuestion": "How many <b class=\"r\">red<\/b> marbles did your opponent report drawing? ",
            "catchKey": 67,
            "catchResponse": 67,
            "catchTime": 1680885550413,
            "trialTime": 0
        },
        {
            "exptPart": "trial",
            "trialNumber": 55,
            "roleCurrent": "receiver",
            "marblesSampled": 100,
            "probRed": 0.5,
            "practiceLambda": 5,
            "trialLambda": 8.1,
            "instructedLambda": "honest",
            "drawnRed": 57,
            "reportedRed": 65,
            "inferredRed": 67,
            "playerTrialScore": -10,
            "oppTrialScore": 10,
            "playerTotalScore": -586,
            "oppTotalScore": 518,
            "waitTime": 6077.026060702743,
            "responseTime": 1680885565240,
            "catchQuestion": "How many <b class=\"r\">red<\/b> marbles did your opponent report drawing? ",
            "catchKey": -1,
            "catchResponse": -1,
            "catchTime": 1680885550413,
            "trialTime": 0
        },
        {
            "exptPart": "trial",
            "trialNumber": 56,
            "roleCurrent": "receiver",
            "marblesSampled": 100,
            "probRed": 0.5,
            "practiceLambda": 5,
            "trialLambda": 8.1,
            "instructedLambda": "honest",
            "drawnRed": 67,
            "reportedRed": 74,
            "inferredRed": 74,
            "playerTrialScore": -7,
            "oppTrialScore": 7,
            "playerTotalScore": -593,
            "oppTotalScore": 525,
            "waitTime": 5249.908612040251,
            "responseTime": 1680885573018,
            "catchQuestion": "How many <b class=\"r\">red<\/b> marbles did your opponent report drawing? ",
            "catchKey": -1,
            "catchResponse": -1,
            "catchTime": 1680885550413,
            "trialTime": 0
        },
        {
            "exptPart": "trial",
            "trialNumber": 57,
            "roleCurrent": "receiver",
            "marblesSampled": 100,
            "probRed": 0.5,
            "practiceLambda": 5,
            "trialLambda": 8.1,
            "instructedLambda": "honest",
            "drawnRed": 78,
            "reportedRed": 87,
            "inferredRed": 99,
            "playerTrialScore": -21,
            "oppTrialScore": 21,
            "playerTotalScore": -614,
            "oppTotalScore": 546,
            "waitTime": 6605.831974895214,
            "responseTime": 1680885583365,
            "catchQuestion": "How many <b class=\"r\">red<\/b> marbles did your opponent report drawing? ",
            "catchKey": -1,
            "catchResponse": -1,
            "catchTime": 1680885550413,
            "trialTime": 0
        },
        {
            "exptPart": "trial",
            "trialNumber": 58,
            "roleCurrent": "receiver",
            "marblesSampled": 100,
            "probRed": 0.5,
            "practiceLambda": 5,
            "trialLambda": 8.1,
            "instructedLambda": "honest",
            "drawnRed": 40,
            "reportedRed": 47,
            "inferredRed": 60,
            "playerTrialScore": -20,
            "oppTrialScore": 20,
            "playerTotalScore": -634,
            "oppTotalScore": 566,
            "waitTime": 6696.196393316037,
            "responseTime": 1680885594482,
            "catchQuestion": "How many <b class=\"r\">red<\/b> marbles did your opponent report drawing? ",
            "catchKey": -1,
            "catchResponse": -1,
            "catchTime": 1680885550413,
            "trialTime": 0
        },
        {
            "exptPart": "trial",
            "trialNumber": 59,
            "roleCurrent": "receiver",
            "marblesSampled": 100,
            "probRed": 0.5,
            "practiceLambda": 5,
            "trialLambda": 8.1,
            "instructedLambda": "honest",
            "drawnRed": 41,
            "reportedRed": 52,
            "inferredRed": 70,
            "playerTrialScore": -29,
            "oppTrialScore": 29,
            "playerTotalScore": -663,
            "oppTotalScore": 595,
            "waitTime": 6426.924858193581,
            "responseTime": 1680885606460,
            "catchQuestion": "How many <b class=\"r\">red<\/b> marbles did your opponent report drawing? ",
            "catchKey": -1,
            "catchResponse": -1,
            "catchTime": 1680885550413,
            "trialTime": 0
        },
        {
            "exptPart": "trial",
            "trialNumber": 60,
            "roleCurrent": "receiver",
            "marblesSampled": 100,
            "probRed": 0.5,
            "practiceLambda": 5,
            "trialLambda": 8.1,
            "instructedLambda": "honest",
            "drawnRed": 28,
            "reportedRed": 34,
            "inferredRed": 36,
            "playerTrialScore": -8,
            "oppTrialScore": 8,
            "playerTotalScore": -671,
            "oppTotalScore": 603,
            "waitTime": 5225.371622975684,
            "responseTime": 1680885623660,
            "catchQuestion": "How many <b class=\"r\">red<\/b> marbles did your opponent report drawing? ",
            "catchKey": -1,
            "catchResponse": -1,
            "catchTime": 1680885623660,
            "trialTime": 0
        },
        {
            "exptPart": "trial",
            "trialNumber": 61,
            "roleCurrent": "receiver",
            "marblesSampled": 100,
            "probRed": 0.5,
            "practiceLambda": 5,
            "trialLambda": 8.1,
            "instructedLambda": "honest",
            "drawnRed": 60,
            "reportedRed": 69,
            "inferredRed": 100,
            "playerTrialScore": -40,
            "oppTrialScore": 40,
            "playerTotalScore": -711,
            "oppTotalScore": 643,
            "waitTime": 5892.211231529104,
            "responseTime": 1680885636775,
            "catchQuestion": "How many <b class=\"r\">red<\/b> marbles did your opponent report drawing? ",
            "catchKey": -1,
            "catchResponse": -1,
            "catchTime": 1680885623660,
            "trialTime": 0
        },
        {
            "exptPart": "trial",
            "trialNumber": 62,
            "roleCurrent": "receiver",
            "marblesSampled": 100,
            "probRed": 0.5,
            "practiceLambda": 5,
            "trialLambda": 8.1,
            "instructedLambda": "honest",
            "drawnRed": 58,
            "reportedRed": 62,
            "inferredRed": 100,
            "playerTrialScore": -42,
            "oppTrialScore": 42,
            "playerTotalScore": -753,
            "oppTotalScore": 685,
            "waitTime": 5132.766727348764,
            "responseTime": 1680885644304,
            "catchQuestion": "How many <b class=\"r\">red<\/b> marbles did your opponent report drawing? ",
            "catchKey": -1,
            "catchResponse": -1,
            "catchTime": 1680885623660,
            "trialTime": 0
        },
        {
            "exptPart": "trial",
            "trialNumber": 63,
            "roleCurrent": "receiver",
            "marblesSampled": 100,
            "probRed": 0.5,
            "practiceLambda": 5,
            "trialLambda": 8.1,
            "instructedLambda": "honest",
            "drawnRed": 74,
            "reportedRed": 86,
            "inferredRed": 100,
            "playerTrialScore": -26,
            "oppTrialScore": 26,
            "playerTotalScore": -779,
            "oppTotalScore": 711,
            "waitTime": 6992.00292300726,
            "responseTime": 1680885653423,
            "catchQuestion": "How many <b class=\"r\">red<\/b> marbles did your opponent report drawing? ",
            "catchKey": -1,
            "catchResponse": -1,
            "catchTime": 1680885623660,
            "trialTime": 0
        },
        {
            "exptPart": "trial",
            "trialNumber": 64,
            "roleCurrent": "receiver",
            "marblesSampled": 100,
            "probRed": 0.5,
            "practiceLambda": 5,
            "trialLambda": 8.1,
            "instructedLambda": "honest",
            "drawnRed": 33,
            "reportedRed": 40,
            "inferredRed": 100,
            "playerTrialScore": -67,
            "oppTrialScore": 67,
            "playerTotalScore": -846,
            "oppTotalScore": 778,
            "waitTime": 5719.831498319341,
            "responseTime": 1680885662252,
            "catchQuestion": "How many <b class=\"r\">red<\/b> marbles did your opponent report drawing? ",
            "catchKey": -1,
            "catchResponse": -1,
            "catchTime": 1680885623660,
            "trialTime": 0
        },
        {
            "exptPart": "trial",
            "trialNumber": 65,
            "roleCurrent": "receiver",
            "marblesSampled": 100,
            "probRed": 0.5,
            "practiceLambda": 5,
            "trialLambda": 8.1,
            "instructedLambda": "honest",
            "drawnRed": 57,
            "reportedRed": 63,
            "inferredRed": 100,
            "playerTrialScore": -43,
            "oppTrialScore": 43,
            "playerTotalScore": -889,
            "oppTotalScore": 821,
            "waitTime": 7364.417905811876,
            "responseTime": 1680885672409,
            "catchQuestion": "How many <b class=\"r\">red<\/b> marbles did your opponent report drawing? ",
            "catchKey": -1,
            "catchResponse": -1,
            "catchTime": 1680885623660,
            "trialTime": 0
        },
        {
            "exptPart": "trial",
            "trialNumber": 66,
            "roleCurrent": "receiver",
            "marblesSampled": 100,
            "probRed": 0.5,
            "practiceLambda": 5,
            "trialLambda": 8.1,
            "instructedLambda": "honest",
            "drawnRed": 29,
            "reportedRed": 41,
            "inferredRed": 100,
            "playerTrialScore": -71,
            "oppTrialScore": 71,
            "playerTotalScore": -960,
            "oppTotalScore": 892,
            "waitTime": 6110.8836084633185,
            "responseTime": 1680885686028,
            "catchQuestion": "How many <b class=\"r\">red<\/b> marbles did your opponent report drawing? ",
            "catchKey": -1,
            "catchResponse": -1,
            "catchTime": 1680885623660,
            "trialTime": 0
        },
        {
            "exptPart": "trial",
            "trialNumber": 67,
            "roleCurrent": "receiver",
            "marblesSampled": 100,
            "probRed": 0.5,
            "practiceLambda": 5,
            "trialLambda": 8.1,
            "instructedLambda": "honest",
            "drawnRed": 54,
            "reportedRed": 61,
            "inferredRed": 100,
            "playerTrialScore": -46,
            "oppTrialScore": 46,
            "playerTotalScore": -1006,
            "oppTotalScore": 938,
            "waitTime": 5799.184472496941,
            "responseTime": 1680885734944,
            "catchQuestion": "How many <b class=\"r\">red<\/b> marbles did your opponent report drawing? ",
            "catchKey": -1,
            "catchResponse": -1,
            "catchTime": 1680885623660,
            "trialTime": 0
        },
        {
            "exptPart": "trial",
            "trialNumber": 68,
            "roleCurrent": "receiver",
            "marblesSampled": 100,
            "probRed": 0.5,
            "practiceLambda": 5,
            "trialLambda": 8.1,
            "instructedLambda": "honest",
            "drawnRed": 50,
            "reportedRed": 62,
            "inferredRed": 100,
            "playerTrialScore": -50,
            "oppTrialScore": 50,
            "playerTotalScore": -1056,
            "oppTotalScore": 988,
            "waitTime": 7130.304626237834,
            "responseTime": 1680885745099,
            "catchQuestion": "How many <b class=\"r\">red<\/b> marbles did your opponent report drawing? ",
            "catchKey": -1,
            "catchResponse": -1,
            "catchTime": 1680885623660,
            "trialTime": 0
        },
        {
            "exptPart": "trial",
            "trialNumber": 69,
            "roleCurrent": "receiver",
            "marblesSampled": 100,
            "probRed": 0.5,
            "practiceLambda": 5,
            "trialLambda": 8.1,
            "instructedLambda": "honest",
            "drawnRed": 25,
            "reportedRed": 30,
            "inferredRed": 100,
            "playerTrialScore": -75,
            "oppTrialScore": 75,
            "playerTotalScore": -1131,
            "oppTotalScore": 1063,
            "waitTime": 6497.672607868533,
            "responseTime": 1680885754009,
            "catchQuestion": "How many <b class=\"r\">red<\/b> marbles did your opponent report drawing? ",
            "catchKey": -1,
            "catchResponse": -1,
            "catchTime": 1680885623660,
            "trialTime": 0
        },
        {
            "exptPart": "trial",
            "trialNumber": 70,
            "roleCurrent": "receiver",
            "marblesSampled": 100,
            "probRed": 0.5,
            "practiceLambda": 5,
            "trialLambda": 8.1,
            "instructedLambda": "honest",
            "drawnRed": 18,
            "reportedRed": 23,
            "inferredRed": 100,
            "playerTrialScore": -82,
            "oppTrialScore": 82,
            "playerTotalScore": -1213,
            "oppTotalScore": 1145,
            "waitTime": 5285.976225853853,
            "responseTime": 1680885761750,
            "catchQuestion": "How many <b class=\"r\">red<\/b> marbles did your opponent report drawing? ",
            "catchKey": -1,
            "catchResponse": -1,
            "catchTime": 1680885761750,
            "trialTime": 0
        },
        {
            "exptPart": "trial",
            "trialNumber": 71,
            "roleCurrent": "receiver",
            "marblesSampled": 100,
            "probRed": 0.5,
            "practiceLambda": 5,
            "trialLambda": 8.1,
            "instructedLambda": "honest",
            "drawnRed": 45,
            "reportedRed": 51,
            "inferredRed": 54,
            "playerTrialScore": -9,
            "oppTrialScore": 9,
            "playerTotalScore": -1222,
            "oppTotalScore": 1154,
            "waitTime": 5136.3905432086085,
            "responseTime": 1680885771935,
            "catchQuestion": "How many <b class=\"r\">red<\/b> marbles did your opponent report drawing? ",
            "catchKey": -1,
            "catchResponse": -1,
            "catchTime": 1680885761750,
            "trialTime": 0
        },
        {
            "exptPart": "trial",
            "trialNumber": 72,
            "roleCurrent": "receiver",
            "marblesSampled": 100,
            "probRed": 0.5,
            "practiceLambda": 5,
            "trialLambda": 8.1,
            "instructedLambda": "honest",
            "drawnRed": 19,
            "reportedRed": 26,
            "inferredRed": 28,
            "playerTrialScore": -9,
            "oppTrialScore": 9,
            "playerTotalScore": -1231,
            "oppTotalScore": 1163,
            "waitTime": 6089.368192706923,
            "responseTime": 1680885780169,
            "catchQuestion": "How many <b class=\"r\">red<\/b> marbles did your opponent report drawing? ",
            "catchKey": -1,
            "catchResponse": -1,
            "catchTime": 1680885761750,
            "trialTime": 0
        },
        {
            "exptPart": "trial",
            "trialNumber": 73,
            "roleCurrent": "receiver",
            "marblesSampled": 100,
            "probRed": 0.5,
            "practiceLambda": 5,
            "trialLambda": 8.1,
            "instructedLambda": "honest",
            "drawnRed": 25,
            "reportedRed": 36,
            "inferredRed": 38,
            "playerTrialScore": -13,
            "oppTrialScore": 13,
            "playerTotalScore": -1244,
            "oppTotalScore": 1176,
            "waitTime": 5294.388232434001,
            "responseTime": 1680885788467,
            "catchQuestion": "How many <b class=\"r\">red<\/b> marbles did your opponent report drawing? ",
            "catchKey": 36,
            "catchResponse": 36,
            "catchTime": 1680885788467,
            "trialTime": 0
        },
        {
            "exptPart": "trial",
            "trialNumber": 74,
            "roleCurrent": "receiver",
            "marblesSampled": 100,
            "probRed": 0.5,
            "practiceLambda": 5,
            "trialLambda": 8.1,
            "instructedLambda": "honest",
            "drawnRed": 65,
            "reportedRed": 74,
            "inferredRed": 76,
            "playerTrialScore": -11,
            "oppTrialScore": 11,
            "playerTotalScore": -1255,
            "oppTotalScore": 1187,
            "waitTime": 5323.163300167675,
            "responseTime": 1680885806692,
            "catchQuestion": "How many <b class=\"r\">red<\/b> marbles did your opponent report drawing? ",
            "catchKey": -1,
            "catchResponse": -1,
            "catchTime": 1680885788467,
            "trialTime": 0
        },
        {
            "exptPart": "trial",
            "trialNumber": 75,
            "roleCurrent": "receiver",
            "marblesSampled": 100,
            "probRed": 0.5,
            "practiceLambda": 5,
            "trialLambda": 8.1,
            "instructedLambda": "honest",
            "drawnRed": 61,
            "reportedRed": 69,
            "inferredRed": 69,
            "playerTrialScore": -8,
            "oppTrialScore": 8,
            "playerTotalScore": -1263,
            "oppTotalScore": 1195,
            "waitTime": 5392.525796755495,
            "responseTime": 1680885815951,
            "catchQuestion": "How many <b class=\"r\">red<\/b> marbles did your opponent report drawing? ",
            "catchKey": -1,
            "catchResponse": -1,
            "catchTime": 1680885788467,
            "trialTime": 0
        },
        {
            "exptPart": "trial",
            "trialNumber": 76,
            "roleCurrent": "receiver",
            "marblesSampled": 100,
            "probRed": 0.5,
            "practiceLambda": 5,
            "trialLambda": 8.1,
            "instructedLambda": "honest",
            "drawnRed": 31,
            "reportedRed": 41,
            "inferredRed": 41,
            "playerTrialScore": -10,
            "oppTrialScore": 10,
            "playerTotalScore": -1273,
            "oppTotalScore": 1205,
            "waitTime": 5766.020884718235,
            "responseTime": 1680885826487,
            "catchQuestion": "How many <b class=\"r\">red<\/b> marbles did your opponent report drawing? ",
            "catchKey": -1,
            "catchResponse": -1,
            "catchTime": 1680885788467,
            "trialTime": 0
        },
        {
            "exptPart": "trial",
            "trialNumber": 77,
            "roleCurrent": "receiver",
            "marblesSampled": 100,
            "probRed": 0.5,
            "practiceLambda": 5,
            "trialLambda": 8.1,
            "instructedLambda": "honest",
            "drawnRed": 12,
            "reportedRed": 25,
            "inferredRed": 36,
            "playerTrialScore": -24,
            "oppTrialScore": 24,
            "playerTotalScore": -1297,
            "oppTotalScore": 1229,
            "waitTime": 5652.004189675589,
            "responseTime": 1680885836315,
            "catchQuestion": "How many <b class=\"r\">red<\/b> marbles did your opponent report drawing? ",
            "catchKey": -1,
            "catchResponse": -1,
            "catchTime": 1680885788467,
            "trialTime": 0
        },
        {
            "exptPart": "trial",
            "trialNumber": 78,
            "roleCurrent": "receiver",
            "marblesSampled": 100,
            "probRed": 0.5,
            "practiceLambda": 5,
            "trialLambda": 8.1,
            "instructedLambda": "honest",
            "drawnRed": 40,
            "reportedRed": 48,
            "inferredRed": 49,
            "playerTrialScore": -9,
            "oppTrialScore": 9,
            "playerTotalScore": -1306,
            "oppTotalScore": 1238,
            "waitTime": 6677.664352284315,
            "responseTime": 1680885847305,
            "catchQuestion": "How many <b class=\"r\">red<\/b> marbles did your opponent report drawing? ",
            "catchKey": -1,
            "catchResponse": -1,
            "catchTime": 1680885788467,
            "trialTime": 0
        },
        {
            "exptPart": "trial",
            "trialNumber": 79,
            "roleCurrent": "receiver",
            "marblesSampled": 100,
            "probRed": 0.5,
            "practiceLambda": 5,
            "trialLambda": 8.1,
            "instructedLambda": "honest",
            "drawnRed": 61,
            "reportedRed": 71,
            "inferredRed": 71,
            "playerTrialScore": -10,
            "oppTrialScore": 10,
            "playerTotalScore": -1316,
            "oppTotalScore": 1248,
            "waitTime": 6952.7740424437425,
            "responseTime": 1680885862598,
            "catchQuestion": "How many <b class=\"r\">red<\/b> marbles did your opponent report drawing? ",
            "catchKey": -1,
            "catchResponse": -1,
            "catchTime": 1680885788467,
            "trialTime": 0
        },
        {
            "exptPart": "trial",
            "trialNumber": 80,
            "roleCurrent": "receiver",
            "marblesSampled": 100,
            "probRed": 0.5,
            "practiceLambda": 5,
            "trialLambda": 8.1,
            "instructedLambda": "honest",
            "drawnRed": 38,
            "reportedRed": 43,
            "inferredRed": 44,
            "playerTrialScore": -6,
            "oppTrialScore": 6,
            "playerTotalScore": -1322,
            "oppTotalScore": 1254,
            "waitTime": 7038.208372972312,
            "responseTime": 1680885872055,
            "catchQuestion": "How many <b class=\"r\">red<\/b> marbles did your opponent report drawing? ",
            "catchKey": -1,
            "catchResponse": -1,
            "catchTime": 1680885872055,
            "trialTime": 0
        },
        {
            "exptPart": "trial",
            "trialNumber": 81,
            "roleCurrent": "receiver",
            "marblesSampled": 100,
            "probRed": 0.5,
            "practiceLambda": 5,
            "trialLambda": 8.1,
            "instructedLambda": "honest",
            "drawnRed": 28,
            "reportedRed": 37,
            "inferredRed": 37,
            "playerTrialScore": -9,
            "oppTrialScore": 9,
            "playerTotalScore": -1331,
            "oppTotalScore": 1263,
            "waitTime": 6915.101013951797,
            "responseTime": 1680885886924,
            "catchQuestion": "How many <b class=\"r\">red<\/b> marbles did your opponent report drawing? ",
            "catchKey": -1,
            "catchResponse": -1,
            "catchTime": 1680885872055,
            "trialTime": 0
        },
        {
            "exptPart": "trial",
            "trialNumber": 82,
            "roleCurrent": "receiver",
            "marblesSampled": 100,
            "probRed": 0.5,
            "practiceLambda": 5,
            "trialLambda": 8.1,
            "instructedLambda": "honest",
            "drawnRed": 44,
            "reportedRed": 59,
            "inferredRed": 59,
            "playerTrialScore": -15,
            "oppTrialScore": 15,
            "playerTotalScore": -1346,
            "oppTotalScore": 1278,
            "waitTime": 7299.899237223125,
            "responseTime": 1680885908303,
            "catchQuestion": "How many <b class=\"r\">red<\/b> marbles did your opponent report drawing? ",
            "catchKey": -1,
            "catchResponse": -1,
            "catchTime": 1680885872055,
            "trialTime": 0
        },
        {
            "exptPart": "trial",
            "trialNumber": 83,
            "roleCurrent": "receiver",
            "marblesSampled": 100,
            "probRed": 0.5,
            "practiceLambda": 5,
            "trialLambda": 8.1,
            "instructedLambda": "honest",
            "drawnRed": 64,
            "reportedRed": 74,
            "inferredRed": 74,
            "playerTrialScore": -10,
            "oppTrialScore": 10,
            "playerTotalScore": -1356,
            "oppTotalScore": 1288,
            "waitTime": 5168.38112368091,
            "responseTime": 1680885915867,
            "catchQuestion": "How many <b class=\"r\">red<\/b> marbles did your opponent report drawing? ",
            "catchKey": -1,
            "catchResponse": -1,
            "catchTime": 1680885872055,
            "trialTime": 0
        },
        {
            "exptPart": "trial",
            "trialNumber": 84,
            "roleCurrent": "receiver",
            "marblesSampled": 100,
            "probRed": 0.5,
            "practiceLambda": 5,
            "trialLambda": 8.1,
            "instructedLambda": "honest",
            "drawnRed": 49,
            "reportedRed": 62,
            "inferredRed": 62,
            "playerTrialScore": -13,
            "oppTrialScore": 13,
            "playerTotalScore": -1369,
            "oppTotalScore": 1301,
            "waitTime": 6700.513460180577,
            "responseTime": 1680885926466,
            "catchQuestion": "How many <b class=\"r\">red<\/b> marbles did your opponent report drawing? ",
            "catchKey": -1,
            "catchResponse": -1,
            "catchTime": 1680885872055,
            "trialTime": 0
        },
        {
            "exptPart": "trial",
            "trialNumber": 85,
            "roleCurrent": "receiver",
            "marblesSampled": 100,
            "probRed": 0.5,
            "practiceLambda": 5,
            "trialLambda": 8.1,
            "instructedLambda": "honest",
            "drawnRed": 11,
            "reportedRed": 17,
            "inferredRed": 17,
            "playerTrialScore": -6,
            "oppTrialScore": 6,
            "playerTotalScore": -1375,
            "oppTotalScore": 1307,
            "waitTime": 5147.762914555568,
            "responseTime": 1680885934058,
            "catchQuestion": "How many <b class=\"r\">red<\/b> marbles did your opponent report drawing? ",
            "catchKey": -1,
            "catchResponse": -1,
            "catchTime": 1680885872055,
            "trialTime": 0
        },
        {
            "exptPart": "trial",
            "trialNumber": 86,
            "roleCurrent": "receiver",
            "marblesSampled": 100,
            "probRed": 0.5,
            "practiceLambda": 5,
            "trialLambda": 8.1,
            "instructedLambda": "honest",
            "drawnRed": 21,
            "reportedRed": 29,
            "inferredRed": 29,
            "playerTrialScore": -8,
            "oppTrialScore": 8,
            "playerTotalScore": -1383,
            "oppTotalScore": 1315,
            "waitTime": 6499.873721602874,
            "responseTime": 1680885942911,
            "catchQuestion": "How many <b class=\"r\">red<\/b> marbles did your opponent report drawing? ",
            "catchKey": -1,
            "catchResponse": -1,
            "catchTime": 1680885872055,
            "trialTime": 0
        },
        {
            "exptPart": "trial",
            "trialNumber": 87,
            "roleCurrent": "receiver",
            "marblesSampled": 100,
            "probRed": 0.5,
            "practiceLambda": 5,
            "trialLambda": 8.1,
            "instructedLambda": "honest",
            "drawnRed": 20,
            "reportedRed": 23,
            "inferredRed": 23,
            "playerTrialScore": -3,
            "oppTrialScore": 3,
            "playerTotalScore": -1386,
            "oppTotalScore": 1318,
            "waitTime": 5224.411069276242,
            "responseTime": 1680885955931,
            "catchQuestion": "How many <b class=\"r\">red<\/b> marbles did your opponent report drawing? ",
            "catchKey": -1,
            "catchResponse": -1,
            "catchTime": 1680885872055,
            "trialTime": 0
        },
        {
            "exptPart": "trial",
            "trialNumber": 88,
            "roleCurrent": "receiver",
            "marblesSampled": 100,
            "probRed": 0.5,
            "practiceLambda": 5,
            "trialLambda": 8.1,
            "instructedLambda": "honest",
            "drawnRed": 31,
            "reportedRed": 40,
            "inferredRed": 41,
            "playerTrialScore": -10,
            "oppTrialScore": 10,
            "playerTotalScore": -1396,
            "oppTotalScore": 1328,
            "waitTime": 5970.437109167728,
            "responseTime": 1680885965933,
            "catchQuestion": "How many <b class=\"r\">red<\/b> marbles did your opponent report drawing? ",
            "catchKey": -1,
            "catchResponse": -1,
            "catchTime": 1680885872055,
            "trialTime": 0
        },
        {
            "exptPart": "trial",
            "trialNumber": 89,
            "roleCurrent": "receiver",
            "marblesSampled": 100,
            "probRed": 0.5,
            "practiceLambda": 5,
            "trialLambda": 8.1,
            "instructedLambda": "honest",
            "drawnRed": 66,
            "reportedRed": 77,
            "inferredRed": 77,
            "playerTrialScore": -11,
            "oppTrialScore": 11,
            "playerTotalScore": -1407,
            "oppTotalScore": 1339,
            "waitTime": 6586.395169927946,
            "responseTime": 1680885986851,
            "catchQuestion": "How many <b class=\"r\">red<\/b> marbles did your opponent report drawing? ",
            "catchKey": -1,
            "catchResponse": -1,
            "catchTime": 1680885872055,
            "trialTime": 0
        },
        {
            "exptPart": "trial",
            "trialNumber": 90,
            "roleCurrent": "receiver",
            "marblesSampled": 100,
            "probRed": 0.5,
            "practiceLambda": 5,
            "trialLambda": 8.1,
            "instructedLambda": "honest",
            "drawnRed": 65,
            "reportedRed": 69,
            "inferredRed": 69,
            "playerTrialScore": -4,
            "oppTrialScore": 4,
            "playerTotalScore": -1411,
            "oppTotalScore": 1343,
            "waitTime": 5869.960488558684,
            "responseTime": 1680885996006,
            "catchQuestion": "How many <b class=\"r\">red<\/b> marbles did your opponent report drawing? ",
            "catchKey": -1,
            "catchResponse": -1,
            "catchTime": 1680885996006,
            "trialTime": 0
        },
        {
            "exptPart": "trial",
            "trialNumber": 91,
            "roleCurrent": "receiver",
            "marblesSampled": 100,
            "probRed": 0.5,
            "practiceLambda": 5,
            "trialLambda": 8.1,
            "instructedLambda": "honest",
            "drawnRed": 41,
            "reportedRed": 48,
            "inferredRed": 49,
            "playerTrialScore": -8,
            "oppTrialScore": 8,
            "playerTotalScore": -1419,
            "oppTotalScore": 1351,
            "waitTime": 6458.887473411822,
            "responseTime": 1680886021215,
            "catchQuestion": "How many <b class=\"r\">red<\/b> marbles did your opponent report drawing? ",
            "catchKey": 48,
            "catchResponse": 48,
            "catchTime": 1680886021216,
            "trialTime": 0
        },
        {
            "exptPart": "trial",
            "trialNumber": 92,
            "roleCurrent": "receiver",
            "marblesSampled": 100,
            "probRed": 0.5,
            "practiceLambda": 5,
            "trialLambda": 8.1,
            "instructedLambda": "honest",
            "drawnRed": 40,
            "reportedRed": 49,
            "inferredRed": 49,
            "playerTrialScore": -9,
            "oppTrialScore": 9,
            "playerTotalScore": -1428,
            "oppTotalScore": 1360,
            "waitTime": 5872.969418507124,
            "responseTime": 1680886054849,
            "catchQuestion": "How many <b class=\"r\">red<\/b> marbles did your opponent report drawing? ",
            "catchKey": -1,
            "catchResponse": -1,
            "catchTime": 1680886021216,
            "trialTime": 0
        },
        {
            "exptPart": "trial",
            "trialNumber": 93,
            "roleCurrent": "receiver",
            "marblesSampled": 100,
            "probRed": 0.5,
            "practiceLambda": 5,
            "trialLambda": 8.1,
            "instructedLambda": "honest",
            "drawnRed": 81,
            "reportedRed": 86,
            "inferredRed": 86,
            "playerTrialScore": -5,
            "oppTrialScore": 5,
            "playerTotalScore": -1433,
            "oppTotalScore": 1365,
            "waitTime": 5329.098772550249,
            "responseTime": 1680886064196,
            "catchQuestion": "How many <b class=\"r\">red<\/b> marbles did your opponent report drawing? ",
            "catchKey": -1,
            "catchResponse": -1,
            "catchTime": 1680886021216,
            "trialTime": 0
        },
        {
            "exptPart": "trial",
            "trialNumber": 94,
            "roleCurrent": "receiver",
            "marblesSampled": 100,
            "probRed": 0.5,
            "practiceLambda": 5,
            "trialLambda": 8.1,
            "instructedLambda": "honest",
            "drawnRed": 36,
            "reportedRed": 42,
            "inferredRed": 42,
            "playerTrialScore": -6,
            "oppTrialScore": 6,
            "playerTotalScore": -1439,
            "oppTotalScore": 1371,
            "waitTime": 6556.17291752677,
            "responseTime": 1680886073694,
            "catchQuestion": "How many <b class=\"r\">red<\/b> marbles did your opponent report drawing? ",
            "catchKey": -1,
            "catchResponse": -1,
            "catchTime": 1680886021216,
            "trialTime": 0
        },
        {
            "exptPart": "trial",
            "trialNumber": 95,
            "roleCurrent": "receiver",
            "marblesSampled": 100,
            "probRed": 0.5,
            "practiceLambda": 5,
            "trialLambda": 8.1,
            "instructedLambda": "honest",
            "drawnRed": 71,
            "reportedRed": 83,
            "inferredRed": 84,
            "playerTrialScore": -13,
            "oppTrialScore": 13,
            "playerTotalScore": -1452,
            "oppTotalScore": 1384,
            "waitTime": 6162.496824420811,
            "responseTime": 1680886082661,
            "catchQuestion": "How many <b class=\"r\">red<\/b> marbles did your opponent report drawing? ",
            "catchKey": -1,
            "catchResponse": -1,
            "catchTime": 1680886021216,
            "trialTime": 0
        },
        {
            "exptPart": "trial",
            "trialNumber": 96,
            "roleCurrent": "receiver",
            "marblesSampled": 100,
            "probRed": 0.5,
            "practiceLambda": 5,
            "trialLambda": 8.1,
            "instructedLambda": "honest",
            "drawnRed": 34,
            "reportedRed": 41,
            "inferredRed": 42,
            "playerTrialScore": -8,
            "oppTrialScore": 8,
            "playerTotalScore": -1460,
            "oppTotalScore": 1392,
            "waitTime": 5984.071544588947,
            "responseTime": 1680886095627,
            "catchQuestion": "How many <b class=\"r\">red<\/b> marbles did your opponent report drawing? ",
            "catchKey": -1,
            "catchResponse": -1,
            "catchTime": 1680886021216,
            "trialTime": 0
        },
        {
            "exptPart": "trial",
            "trialNumber": 97,
            "roleCurrent": "receiver",
            "marblesSampled": 100,
            "probRed": 0.5,
            "practiceLambda": 5,
            "trialLambda": 8.1,
            "instructedLambda": "honest",
            "drawnRed": 74,
            "reportedRed": 80,
            "inferredRed": 85,
            "playerTrialScore": -11,
            "oppTrialScore": 11,
            "playerTotalScore": -1471,
            "oppTotalScore": 1403,
            "waitTime": 5915.387912857767,
            "responseTime": 1680886109100,
            "catchQuestion": "How many <b class=\"r\">red<\/b> marbles did your opponent report drawing? ",
            "catchKey": -1,
            "catchResponse": -1,
            "catchTime": 1680886021216,
            "trialTime": 0
        },
        {
            "exptPart": "trial",
            "trialNumber": 98,
            "roleCurrent": "receiver",
            "marblesSampled": 100,
            "probRed": 0.5,
            "practiceLambda": 5,
            "trialLambda": 8.1,
            "instructedLambda": "honest",
            "drawnRed": 61,
            "reportedRed": 65,
            "inferredRed": 66,
            "playerTrialScore": -5,
            "oppTrialScore": 5,
            "playerTotalScore": -1476,
            "oppTotalScore": 1408,
            "waitTime": 7362.425777337936,
            "responseTime": 1680886120973,
            "catchQuestion": "How many <b class=\"r\">red<\/b> marbles did your opponent report drawing? ",
            "catchKey": -1,
            "catchResponse": -1,
            "catchTime": 1680886021216,
            "trialTime": 0
        },
        {
            "exptPart": "trial",
            "trialNumber": 99,
            "roleCurrent": "receiver",
            "marblesSampled": 100,
            "probRed": 0.5,
            "practiceLambda": 5,
            "trialLambda": 8.1,
            "instructedLambda": "honest",
            "drawnRed": 34,
            "reportedRed": 39,
            "inferredRed": 40,
            "playerTrialScore": -6,
            "oppTrialScore": 6,
            "playerTotalScore": -1482,
            "oppTotalScore": 1414,
            "waitTime": 5138.549957852249,
            "responseTime": 1680886133266,
            "catchQuestion": "How many <b class=\"r\">red<\/b> marbles did your opponent report drawing? ",
            "catchKey": -1,
            "catchResponse": -1,
            "catchTime": 1680886021216,
            "trialTime": 0
        },
        {
            "exptPart": "trial",
            "trialNumber": 100,
            "roleCurrent": "receiver",
            "marblesSampled": 100,
            "probRed": 0.5,
            "practiceLambda": 5,
            "trialLambda": 8.1,
            "instructedLambda": "honest",
            "drawnRed": 52,
            "reportedRed": 61,
            "inferredRed": 64,
            "playerTrialScore": -12,
            "oppTrialScore": 12,
            "playerTotalScore": -1494,
            "oppTotalScore": 1426,
            "waitTime": 5160.3006370242165,
            "responseTime": 1680886142942,
            "catchQuestion": "How many <b class=\"r\">red<\/b> marbles did your opponent report drawing? ",
            "catchKey": -1,
            "catchResponse": -1,
            "catchTime": 1680886142942,
            "trialTime": 0
        }
    ]
}