{
    "client": {
        "type": "sona",
        "experiment_id": 2228,
        "credit_token": "b315147ae43241ea9c65086cb510cfb7",
        "survey_code": "43437",
        "sid": "sona-43437",
        "window": {
            "width": 2328,
            "height": 1180
        },
        "screen": {
            "width": 1920,
            "height": 1080
        },
        "userAgent": "Mozilla\/5.0 (Macintosh; Intel Mac OS X 10_15_7) AppleWebKit\/537.36 (KHTML, like Gecko) Chrome\/111.0.0.0 Safari\/537.36 Edg\/111.0.1661.62",
        "score": 0,
        "bonus": 0
    },
    "expt": {
        "saveURL": "submit.simple.php",
        "trials": 100,
        "practiceTrials": 2,
        "marblesSampled": 100,
        "probRed": 0.5,
        "practiceLambdaAI": 5,
        "lambdaAI": 21.9,
        "roles": [
            "sender",
            "receiver"
        ],
        "cost": "unif",
        "goal": "over",
        "oppDishonesty": "honest",
        "catchTrials": [
            1,
            27,
            65,
            54,
            98,
            33,
            16,
            12,
            40,
            55
        ],
        "scoreTotal": {
            "player": -1961,
            "opp": 1961
        },
        "sona": {
            "experiment_id": 2228,
            "credit_token": "b315147ae43241ea9c65086cb510cfb7"
        },
        "pilot": false,
        "debug": false
    },
    "trials": [
        {
            "exptPart": "practice",
            "trialNumber": 1,
            "roleCurrent": "sender",
            "marblesSampled": 100,
            "probRed": 0.5,
            "practiceLambda": 5,
            "trialLambda": 21.9,
            "instructedLambda": "honest",
            "drawnRed": 44,
            "reportedRed": 44,
            "inferredRed": 35,
            "playerTrialScore": 0,
            "oppTrialScore": -9,
            "playerTotalScore": 0,
            "oppTotalScore": -9,
            "waitTime": 2275.256648164793,
            "responseTime": 1680760583545,
            "catchQuestion": "How many <b class=\"r\">red<\/b> marbles did you actually draw (before any changes)? ",
            "catchKey": 44,
            "catchResponse": 48,
            "catchTime": 1680760583546,
            "trialTime": 0
        },
        {
            "exptPart": "practice",
            "trialNumber": 2,
            "roleCurrent": "receiver",
            "marblesSampled": 100,
            "probRed": 0.5,
            "practiceLambda": 5,
            "trialLambda": 21.9,
            "instructedLambda": "honest",
            "drawnRed": 49,
            "reportedRed": 52,
            "inferredRed": 59,
            "playerTrialScore": -10,
            "oppTrialScore": 10,
            "playerTotalScore": -10,
            "oppTotalScore": 1,
            "waitTime": 6734.687444619456,
            "responseTime": 1680760617306,
            "catchQuestion": "How many <b class=\"r\">red<\/b> marbles did your opponent report drawing? ",
            "catchKey": 52,
            "catchResponse": 52,
            "catchTime": 1680760617306,
            "trialTime": 0
        },
        {
            "exptPart": "trial",
            "trialNumber": 1,
            "roleCurrent": "receiver",
            "marblesSampled": 100,
            "probRed": 0.5,
            "practiceLambda": 5,
            "trialLambda": 21.9,
            "instructedLambda": "honest",
            "drawnRed": 34,
            "reportedRed": 61,
            "inferredRed": 64,
            "playerTrialScore": -30,
            "oppTrialScore": 30,
            "playerTotalScore": -30,
            "oppTotalScore": 30,
            "waitTime": 5368.489673682588,
            "responseTime": 1680760646504,
            "catchQuestion": "How many <b class=\"r\">red<\/b> marbles did your opponent report drawing? ",
            "catchKey": -1,
            "catchResponse": -1,
            "catchTime": 1680760617306,
            "trialTime": 0
        },
        {
            "exptPart": "trial",
            "trialNumber": 2,
            "roleCurrent": "receiver",
            "marblesSampled": 100,
            "probRed": 0.5,
            "practiceLambda": 5,
            "trialLambda": 21.9,
            "instructedLambda": "honest",
            "drawnRed": 67,
            "reportedRed": 80,
            "inferredRed": 75,
            "playerTrialScore": -8,
            "oppTrialScore": 8,
            "playerTotalScore": -38,
            "oppTotalScore": 38,
            "waitTime": 5148.687104472419,
            "responseTime": 1680760658245,
            "catchQuestion": "How many <b class=\"r\">red<\/b> marbles did your opponent report drawing? ",
            "catchKey": 80,
            "catchResponse": 80,
            "catchTime": 1680760658245,
            "trialTime": 0
        },
        {
            "exptPart": "trial",
            "trialNumber": 3,
            "roleCurrent": "receiver",
            "marblesSampled": 100,
            "probRed": 0.5,
            "practiceLambda": 5,
            "trialLambda": 21.9,
            "instructedLambda": "honest",
            "drawnRed": 78,
            "reportedRed": 93,
            "inferredRed": 89,
            "playerTrialScore": -11,
            "oppTrialScore": 11,
            "playerTotalScore": -49,
            "oppTotalScore": 49,
            "waitTime": 5198.616004695603,
            "responseTime": 1680760675669,
            "catchQuestion": "How many <b class=\"r\">red<\/b> marbles did your opponent report drawing? ",
            "catchKey": -1,
            "catchResponse": -1,
            "catchTime": 1680760658245,
            "trialTime": 0
        },
        {
            "exptPart": "trial",
            "trialNumber": 4,
            "roleCurrent": "receiver",
            "marblesSampled": 100,
            "probRed": 0.5,
            "practiceLambda": 5,
            "trialLambda": 21.9,
            "instructedLambda": "honest",
            "drawnRed": 70,
            "reportedRed": 100,
            "inferredRed": 96,
            "playerTrialScore": -26,
            "oppTrialScore": 26,
            "playerTotalScore": -75,
            "oppTotalScore": 75,
            "waitTime": 5207.006255407437,
            "responseTime": 1680760685759,
            "catchQuestion": "How many <b class=\"r\">red<\/b> marbles did your opponent report drawing? ",
            "catchKey": -1,
            "catchResponse": -1,
            "catchTime": 1680760658245,
            "trialTime": 0
        },
        {
            "exptPart": "trial",
            "trialNumber": 5,
            "roleCurrent": "receiver",
            "marblesSampled": 100,
            "probRed": 0.5,
            "practiceLambda": 5,
            "trialLambda": 21.9,
            "instructedLambda": "honest",
            "drawnRed": 18,
            "reportedRed": 39,
            "inferredRed": 41,
            "playerTrialScore": -23,
            "oppTrialScore": 23,
            "playerTotalScore": -98,
            "oppTotalScore": 98,
            "waitTime": 6043.762000580618,
            "responseTime": 1680760754910,
            "catchQuestion": "How many <b class=\"r\">red<\/b> marbles did your opponent report drawing? ",
            "catchKey": -1,
            "catchResponse": -1,
            "catchTime": 1680760658245,
            "trialTime": 0
        },
        {
            "exptPart": "trial",
            "trialNumber": 6,
            "roleCurrent": "receiver",
            "marblesSampled": 100,
            "probRed": 0.5,
            "practiceLambda": 5,
            "trialLambda": 21.9,
            "instructedLambda": "honest",
            "drawnRed": 34,
            "reportedRed": 53,
            "inferredRed": 50,
            "playerTrialScore": -16,
            "oppTrialScore": 16,
            "playerTotalScore": -114,
            "oppTotalScore": 114,
            "waitTime": 5792.3493539942865,
            "responseTime": 1680760942153,
            "catchQuestion": "How many <b class=\"r\">red<\/b> marbles did your opponent report drawing? ",
            "catchKey": -1,
            "catchResponse": -1,
            "catchTime": 1680760658245,
            "trialTime": 0
        },
        {
            "exptPart": "trial",
            "trialNumber": 7,
            "roleCurrent": "receiver",
            "marblesSampled": 100,
            "probRed": 0.5,
            "practiceLambda": 5,
            "trialLambda": 21.9,
            "instructedLambda": "honest",
            "drawnRed": 86,
            "reportedRed": 100,
            "inferredRed": 98,
            "playerTrialScore": -12,
            "oppTrialScore": 12,
            "playerTotalScore": -126,
            "oppTotalScore": 126,
            "waitTime": 6239.052209559377,
            "responseTime": 1680760962366,
            "catchQuestion": "How many <b class=\"r\">red<\/b> marbles did your opponent report drawing? ",
            "catchKey": -1,
            "catchResponse": -1,
            "catchTime": 1680760658245,
            "trialTime": 0
        },
        {
            "exptPart": "trial",
            "trialNumber": 8,
            "roleCurrent": "receiver",
            "marblesSampled": 100,
            "probRed": 0.5,
            "practiceLambda": 5,
            "trialLambda": 21.9,
            "instructedLambda": "honest",
            "drawnRed": 60,
            "reportedRed": 89,
            "inferredRed": 95,
            "playerTrialScore": -35,
            "oppTrialScore": 35,
            "playerTotalScore": -161,
            "oppTotalScore": 161,
            "waitTime": 6158.5527239653275,
            "responseTime": 1680760974140,
            "catchQuestion": "How many <b class=\"r\">red<\/b> marbles did your opponent report drawing? ",
            "catchKey": -1,
            "catchResponse": -1,
            "catchTime": 1680760658245,
            "trialTime": 0
        },
        {
            "exptPart": "trial",
            "trialNumber": 9,
            "roleCurrent": "receiver",
            "marblesSampled": 100,
            "probRed": 0.5,
            "practiceLambda": 5,
            "trialLambda": 21.9,
            "instructedLambda": "honest",
            "drawnRed": 78,
            "reportedRed": 100,
            "inferredRed": 97,
            "playerTrialScore": -19,
            "oppTrialScore": 19,
            "playerTotalScore": -180,
            "oppTotalScore": 180,
            "waitTime": 5934.063801089047,
            "responseTime": 1680761005182,
            "catchQuestion": "How many <b class=\"r\">red<\/b> marbles did your opponent report drawing? ",
            "catchKey": -1,
            "catchResponse": -1,
            "catchTime": 1680760658245,
            "trialTime": 0
        },
        {
            "exptPart": "trial",
            "trialNumber": 10,
            "roleCurrent": "receiver",
            "marblesSampled": 100,
            "probRed": 0.5,
            "practiceLambda": 5,
            "trialLambda": 21.9,
            "instructedLambda": "honest",
            "drawnRed": 65,
            "reportedRed": 85,
            "inferredRed": 76,
            "playerTrialScore": -11,
            "oppTrialScore": 11,
            "playerTotalScore": -191,
            "oppTotalScore": 191,
            "waitTime": 6075.141251316538,
            "responseTime": 1680761277570,
            "catchQuestion": "How many <b class=\"r\">red<\/b> marbles did your opponent report drawing? ",
            "catchKey": -1,
            "catchResponse": -1,
            "catchTime": 1680761277570,
            "trialTime": 0
        },
        {
            "exptPart": "trial",
            "trialNumber": 11,
            "roleCurrent": "receiver",
            "marblesSampled": 100,
            "probRed": 0.5,
            "practiceLambda": 5,
            "trialLambda": 21.9,
            "instructedLambda": "honest",
            "drawnRed": 6,
            "reportedRed": 29,
            "inferredRed": 31,
            "playerTrialScore": -25,
            "oppTrialScore": 25,
            "playerTotalScore": -216,
            "oppTotalScore": 216,
            "waitTime": 5639.845595726865,
            "responseTime": 1680761293441,
            "catchQuestion": "How many <b class=\"r\">red<\/b> marbles did your opponent report drawing? ",
            "catchKey": -1,
            "catchResponse": -1,
            "catchTime": 1680761277570,
            "trialTime": 0
        },
        {
            "exptPart": "trial",
            "trialNumber": 12,
            "roleCurrent": "receiver",
            "marblesSampled": 100,
            "probRed": 0.5,
            "practiceLambda": 5,
            "trialLambda": 21.9,
            "instructedLambda": "honest",
            "drawnRed": 39,
            "reportedRed": 62,
            "inferredRed": 67,
            "playerTrialScore": -28,
            "oppTrialScore": 28,
            "playerTotalScore": -244,
            "oppTotalScore": 244,
            "waitTime": 5671.478778000614,
            "responseTime": 1680761310655,
            "catchQuestion": "How many <b class=\"r\">red<\/b> marbles did your opponent report drawing? ",
            "catchKey": -1,
            "catchResponse": -1,
            "catchTime": 1680761277570,
            "trialTime": 0
        },
        {
            "exptPart": "trial",
            "trialNumber": 13,
            "roleCurrent": "receiver",
            "marblesSampled": 100,
            "probRed": 0.5,
            "practiceLambda": 5,
            "trialLambda": 21.9,
            "instructedLambda": "honest",
            "drawnRed": 61,
            "reportedRed": 100,
            "inferredRed": 89,
            "playerTrialScore": -28,
            "oppTrialScore": 28,
            "playerTotalScore": -272,
            "oppTotalScore": 272,
            "waitTime": 5142.876918919466,
            "responseTime": 1680761356398,
            "catchQuestion": "How many <b class=\"r\">red<\/b> marbles did your opponent report drawing? ",
            "catchKey": 100,
            "catchResponse": 10,
            "catchTime": 1680761356398,
            "trialTime": 0
        },
        {
            "exptPart": "trial",
            "trialNumber": 14,
            "roleCurrent": "receiver",
            "marblesSampled": 100,
            "probRed": 0.5,
            "practiceLambda": 5,
            "trialLambda": 21.9,
            "instructedLambda": "honest",
            "drawnRed": 49,
            "reportedRed": 73,
            "inferredRed": 75,
            "playerTrialScore": -26,
            "oppTrialScore": 26,
            "playerTotalScore": -298,
            "oppTotalScore": 298,
            "waitTime": 6868.8133741517295,
            "responseTime": 1680761395166,
            "catchQuestion": "How many <b class=\"r\">red<\/b> marbles did your opponent report drawing? ",
            "catchKey": -1,
            "catchResponse": -1,
            "catchTime": 1680761356398,
            "trialTime": 0
        },
        {
            "exptPart": "trial",
            "trialNumber": 15,
            "roleCurrent": "receiver",
            "marblesSampled": 100,
            "probRed": 0.5,
            "practiceLambda": 5,
            "trialLambda": 21.9,
            "instructedLambda": "honest",
            "drawnRed": 62,
            "reportedRed": 79,
            "inferredRed": 69,
            "playerTrialScore": -7,
            "oppTrialScore": 7,
            "playerTotalScore": -305,
            "oppTotalScore": 305,
            "waitTime": 5259.370913919433,
            "responseTime": 1680761409493,
            "catchQuestion": "How many <b class=\"r\">red<\/b> marbles did your opponent report drawing? ",
            "catchKey": -1,
            "catchResponse": -1,
            "catchTime": 1680761356398,
            "trialTime": 0
        },
        {
            "exptPart": "trial",
            "trialNumber": 16,
            "roleCurrent": "receiver",
            "marblesSampled": 100,
            "probRed": 0.5,
            "practiceLambda": 5,
            "trialLambda": 21.9,
            "instructedLambda": "honest",
            "drawnRed": 80,
            "reportedRed": 98,
            "inferredRed": 98,
            "playerTrialScore": -18,
            "oppTrialScore": 18,
            "playerTotalScore": -323,
            "oppTotalScore": 323,
            "waitTime": 6613.0582414721575,
            "responseTime": 1680761426947,
            "catchQuestion": "How many <b class=\"r\">red<\/b> marbles did your opponent report drawing? ",
            "catchKey": -1,
            "catchResponse": -1,
            "catchTime": 1680761356398,
            "trialTime": 0
        },
        {
            "exptPart": "trial",
            "trialNumber": 17,
            "roleCurrent": "receiver",
            "marblesSampled": 100,
            "probRed": 0.5,
            "practiceLambda": 5,
            "trialLambda": 21.9,
            "instructedLambda": "honest",
            "drawnRed": 63,
            "reportedRed": 83,
            "inferredRed": 80,
            "playerTrialScore": -17,
            "oppTrialScore": 17,
            "playerTotalScore": -340,
            "oppTotalScore": 340,
            "waitTime": 5316.688903081996,
            "responseTime": 1680761437723,
            "catchQuestion": "How many <b class=\"r\">red<\/b> marbles did your opponent report drawing? ",
            "catchKey": 83,
            "catchResponse": 89,
            "catchTime": 1680761437723,
            "trialTime": 0
        },
        {
            "exptPart": "trial",
            "trialNumber": 18,
            "roleCurrent": "receiver",
            "marblesSampled": 100,
            "probRed": 0.5,
            "practiceLambda": 5,
            "trialLambda": 21.9,
            "instructedLambda": "honest",
            "drawnRed": 52,
            "reportedRed": 77,
            "inferredRed": 75,
            "playerTrialScore": -23,
            "oppTrialScore": 23,
            "playerTotalScore": -363,
            "oppTotalScore": 363,
            "waitTime": 7259.303262220252,
            "responseTime": 1680761497789,
            "catchQuestion": "How many <b class=\"r\">red<\/b> marbles did your opponent report drawing? ",
            "catchKey": -1,
            "catchResponse": -1,
            "catchTime": 1680761437723,
            "trialTime": 0
        },
        {
            "exptPart": "trial",
            "trialNumber": 19,
            "roleCurrent": "receiver",
            "marblesSampled": 100,
            "probRed": 0.5,
            "practiceLambda": 5,
            "trialLambda": 21.9,
            "instructedLambda": "honest",
            "drawnRed": 51,
            "reportedRed": 73,
            "inferredRed": 70,
            "playerTrialScore": -19,
            "oppTrialScore": 19,
            "playerTotalScore": -382,
            "oppTotalScore": 382,
            "waitTime": 5269.540600663606,
            "responseTime": 1680761507845,
            "catchQuestion": "How many <b class=\"r\">red<\/b> marbles did your opponent report drawing? ",
            "catchKey": -1,
            "catchResponse": -1,
            "catchTime": 1680761437723,
            "trialTime": 0
        },
        {
            "exptPart": "trial",
            "trialNumber": 20,
            "roleCurrent": "receiver",
            "marblesSampled": 100,
            "probRed": 0.5,
            "practiceLambda": 5,
            "trialLambda": 21.9,
            "instructedLambda": "honest",
            "drawnRed": 47,
            "reportedRed": 66,
            "inferredRed": 66,
            "playerTrialScore": -19,
            "oppTrialScore": 19,
            "playerTotalScore": -401,
            "oppTotalScore": 401,
            "waitTime": 5744.493593374733,
            "responseTime": 1680761517783,
            "catchQuestion": "How many <b class=\"r\">red<\/b> marbles did your opponent report drawing? ",
            "catchKey": -1,
            "catchResponse": -1,
            "catchTime": 1680761517783,
            "trialTime": 0
        },
        {
            "exptPart": "trial",
            "trialNumber": 21,
            "roleCurrent": "receiver",
            "marblesSampled": 100,
            "probRed": 0.5,
            "practiceLambda": 5,
            "trialLambda": 21.9,
            "instructedLambda": "honest",
            "drawnRed": 39,
            "reportedRed": 53,
            "inferredRed": 51,
            "playerTrialScore": -12,
            "oppTrialScore": 12,
            "playerTotalScore": -413,
            "oppTotalScore": 413,
            "waitTime": 7301.414610463602,
            "responseTime": 1680761530113,
            "catchQuestion": "How many <b class=\"r\">red<\/b> marbles did your opponent report drawing? ",
            "catchKey": -1,
            "catchResponse": -1,
            "catchTime": 1680761517783,
            "trialTime": 0
        },
        {
            "exptPart": "trial",
            "trialNumber": 22,
            "roleCurrent": "receiver",
            "marblesSampled": 100,
            "probRed": 0.5,
            "practiceLambda": 5,
            "trialLambda": 21.9,
            "instructedLambda": "honest",
            "drawnRed": 37,
            "reportedRed": 57,
            "inferredRed": 55,
            "playerTrialScore": -18,
            "oppTrialScore": 18,
            "playerTotalScore": -431,
            "oppTotalScore": 431,
            "waitTime": 5946.546235621502,
            "responseTime": 1680761540628,
            "catchQuestion": "How many <b class=\"r\">red<\/b> marbles did your opponent report drawing? ",
            "catchKey": -1,
            "catchResponse": -1,
            "catchTime": 1680761517783,
            "trialTime": 0
        },
        {
            "exptPart": "trial",
            "trialNumber": 23,
            "roleCurrent": "receiver",
            "marblesSampled": 100,
            "probRed": 0.5,
            "practiceLambda": 5,
            "trialLambda": 21.9,
            "instructedLambda": "honest",
            "drawnRed": 38,
            "reportedRed": 63,
            "inferredRed": 60,
            "playerTrialScore": -22,
            "oppTrialScore": 22,
            "playerTotalScore": -453,
            "oppTotalScore": 453,
            "waitTime": 6470.2639683562265,
            "responseTime": 1680761552421,
            "catchQuestion": "How many <b class=\"r\">red<\/b> marbles did your opponent report drawing? ",
            "catchKey": -1,
            "catchResponse": -1,
            "catchTime": 1680761517783,
            "trialTime": 0
        },
        {
            "exptPart": "trial",
            "trialNumber": 24,
            "roleCurrent": "receiver",
            "marblesSampled": 100,
            "probRed": 0.5,
            "practiceLambda": 5,
            "trialLambda": 21.9,
            "instructedLambda": "honest",
            "drawnRed": 43,
            "reportedRed": 64,
            "inferredRed": 60,
            "playerTrialScore": -17,
            "oppTrialScore": 17,
            "playerTotalScore": -470,
            "oppTotalScore": 470,
            "waitTime": 5137.481011729244,
            "responseTime": 1680761566375,
            "catchQuestion": "How many <b class=\"r\">red<\/b> marbles did your opponent report drawing? ",
            "catchKey": -1,
            "catchResponse": -1,
            "catchTime": 1680761517783,
            "trialTime": 0
        },
        {
            "exptPart": "trial",
            "trialNumber": 25,
            "roleCurrent": "receiver",
            "marblesSampled": 100,
            "probRed": 0.5,
            "practiceLambda": 5,
            "trialLambda": 21.9,
            "instructedLambda": "honest",
            "drawnRed": 42,
            "reportedRed": 73,
            "inferredRed": 71,
            "playerTrialScore": -29,
            "oppTrialScore": 29,
            "playerTotalScore": -499,
            "oppTotalScore": 499,
            "waitTime": 5506.196946608272,
            "responseTime": 1680761577305,
            "catchQuestion": "How many <b class=\"r\">red<\/b> marbles did your opponent report drawing? ",
            "catchKey": -1,
            "catchResponse": -1,
            "catchTime": 1680761517783,
            "trialTime": 0
        },
        {
            "exptPart": "trial",
            "trialNumber": 26,
            "roleCurrent": "receiver",
            "marblesSampled": 100,
            "probRed": 0.5,
            "practiceLambda": 5,
            "trialLambda": 21.9,
            "instructedLambda": "honest",
            "drawnRed": 77,
            "reportedRed": 100,
            "inferredRed": 89,
            "playerTrialScore": -12,
            "oppTrialScore": 12,
            "playerTotalScore": -511,
            "oppTotalScore": 511,
            "waitTime": 6203.463315935911,
            "responseTime": 1680761594190,
            "catchQuestion": "How many <b class=\"r\">red<\/b> marbles did your opponent report drawing? ",
            "catchKey": -1,
            "catchResponse": -1,
            "catchTime": 1680761517783,
            "trialTime": 0
        },
        {
            "exptPart": "trial",
            "trialNumber": 27,
            "roleCurrent": "receiver",
            "marblesSampled": 100,
            "probRed": 0.5,
            "practiceLambda": 5,
            "trialLambda": 21.9,
            "instructedLambda": "honest",
            "drawnRed": 22,
            "reportedRed": 45,
            "inferredRed": 40,
            "playerTrialScore": -18,
            "oppTrialScore": 18,
            "playerTotalScore": -529,
            "oppTotalScore": 529,
            "waitTime": 6003.132688621905,
            "responseTime": 1680761645275,
            "catchQuestion": "How many <b class=\"r\">red<\/b> marbles did your opponent report drawing? ",
            "catchKey": -1,
            "catchResponse": -1,
            "catchTime": 1680761517783,
            "trialTime": 0
        },
        {
            "exptPart": "trial",
            "trialNumber": 28,
            "roleCurrent": "receiver",
            "marblesSampled": 100,
            "probRed": 0.5,
            "practiceLambda": 5,
            "trialLambda": 21.9,
            "instructedLambda": "honest",
            "drawnRed": 26,
            "reportedRed": 47,
            "inferredRed": 45,
            "playerTrialScore": -19,
            "oppTrialScore": 19,
            "playerTotalScore": -548,
            "oppTotalScore": 548,
            "waitTime": 5872.226557300328,
            "responseTime": 1680761654350,
            "catchQuestion": "How many <b class=\"r\">red<\/b> marbles did your opponent report drawing? ",
            "catchKey": 47,
            "catchResponse": 70,
            "catchTime": 1680761654351,
            "trialTime": 0
        },
        {
            "exptPart": "trial",
            "trialNumber": 29,
            "roleCurrent": "receiver",
            "marblesSampled": 100,
            "probRed": 0.5,
            "practiceLambda": 5,
            "trialLambda": 21.9,
            "instructedLambda": "honest",
            "drawnRed": 64,
            "reportedRed": 82,
            "inferredRed": 80,
            "playerTrialScore": -16,
            "oppTrialScore": 16,
            "playerTotalScore": -564,
            "oppTotalScore": 564,
            "waitTime": 7255.742504576123,
            "responseTime": 1680761686489,
            "catchQuestion": "How many <b class=\"r\">red<\/b> marbles did your opponent report drawing? ",
            "catchKey": -1,
            "catchResponse": -1,
            "catchTime": 1680761654351,
            "trialTime": 0
        },
        {
            "exptPart": "trial",
            "trialNumber": 30,
            "roleCurrent": "receiver",
            "marblesSampled": 100,
            "probRed": 0.5,
            "practiceLambda": 5,
            "trialLambda": 21.9,
            "instructedLambda": "honest",
            "drawnRed": 57,
            "reportedRed": 77,
            "inferredRed": 70,
            "playerTrialScore": -13,
            "oppTrialScore": 13,
            "playerTotalScore": -577,
            "oppTotalScore": 577,
            "waitTime": 6705.870440294057,
            "responseTime": 1680761698212,
            "catchQuestion": "How many <b class=\"r\">red<\/b> marbles did your opponent report drawing? ",
            "catchKey": -1,
            "catchResponse": -1,
            "catchTime": 1680761698212,
            "trialTime": 0
        },
        {
            "exptPart": "trial",
            "trialNumber": 31,
            "roleCurrent": "receiver",
            "marblesSampled": 100,
            "probRed": 0.5,
            "practiceLambda": 5,
            "trialLambda": 21.9,
            "instructedLambda": "honest",
            "drawnRed": 31,
            "reportedRed": 58,
            "inferredRed": 76,
            "playerTrialScore": -45,
            "oppTrialScore": 45,
            "playerTotalScore": -622,
            "oppTotalScore": 622,
            "waitTime": 6746.4781509392,
            "responseTime": 1680761710544,
            "catchQuestion": "How many <b class=\"r\">red<\/b> marbles did your opponent report drawing? ",
            "catchKey": -1,
            "catchResponse": -1,
            "catchTime": 1680761698212,
            "trialTime": 0
        },
        {
            "exptPart": "trial",
            "trialNumber": 32,
            "roleCurrent": "receiver",
            "marblesSampled": 100,
            "probRed": 0.5,
            "practiceLambda": 5,
            "trialLambda": 21.9,
            "instructedLambda": "honest",
            "drawnRed": 42,
            "reportedRed": 60,
            "inferredRed": 57,
            "playerTrialScore": -15,
            "oppTrialScore": 15,
            "playerTotalScore": -637,
            "oppTotalScore": 637,
            "waitTime": 7176.722174251592,
            "responseTime": 1680761739555,
            "catchQuestion": "How many <b class=\"r\">red<\/b> marbles did your opponent report drawing? ",
            "catchKey": -1,
            "catchResponse": -1,
            "catchTime": 1680761698212,
            "trialTime": 0
        },
        {
            "exptPart": "trial",
            "trialNumber": 33,
            "roleCurrent": "receiver",
            "marblesSampled": 100,
            "probRed": 0.5,
            "practiceLambda": 5,
            "trialLambda": 21.9,
            "instructedLambda": "honest",
            "drawnRed": 39,
            "reportedRed": 62,
            "inferredRed": 64,
            "playerTrialScore": -25,
            "oppTrialScore": 25,
            "playerTotalScore": -662,
            "oppTotalScore": 662,
            "waitTime": 5944.537020500564,
            "responseTime": 1680761752830,
            "catchQuestion": "How many <b class=\"r\">red<\/b> marbles did your opponent report drawing? ",
            "catchKey": -1,
            "catchResponse": -1,
            "catchTime": 1680761698212,
            "trialTime": 0
        },
        {
            "exptPart": "trial",
            "trialNumber": 34,
            "roleCurrent": "receiver",
            "marblesSampled": 100,
            "probRed": 0.5,
            "practiceLambda": 5,
            "trialLambda": 21.9,
            "instructedLambda": "honest",
            "drawnRed": 52,
            "reportedRed": 76,
            "inferredRed": 75,
            "playerTrialScore": -23,
            "oppTrialScore": 23,
            "playerTotalScore": -685,
            "oppTotalScore": 685,
            "waitTime": 6690.341636933708,
            "responseTime": 1680761765238,
            "catchQuestion": "How many <b class=\"r\">red<\/b> marbles did your opponent report drawing? ",
            "catchKey": 76,
            "catchResponse": 45,
            "catchTime": 1680761765238,
            "trialTime": 0
        },
        {
            "exptPart": "trial",
            "trialNumber": 35,
            "roleCurrent": "receiver",
            "marblesSampled": 100,
            "probRed": 0.5,
            "practiceLambda": 5,
            "trialLambda": 21.9,
            "instructedLambda": "honest",
            "drawnRed": 30,
            "reportedRed": 44,
            "inferredRed": 43,
            "playerTrialScore": -13,
            "oppTrialScore": 13,
            "playerTotalScore": -698,
            "oppTotalScore": 698,
            "waitTime": 6786.4806231609455,
            "responseTime": 1680761821159,
            "catchQuestion": "How many <b class=\"r\">red<\/b> marbles did your opponent report drawing? ",
            "catchKey": -1,
            "catchResponse": -1,
            "catchTime": 1680761765238,
            "trialTime": 0
        },
        {
            "exptPart": "trial",
            "trialNumber": 36,
            "roleCurrent": "receiver",
            "marblesSampled": 100,
            "probRed": 0.5,
            "practiceLambda": 5,
            "trialLambda": 21.9,
            "instructedLambda": "honest",
            "drawnRed": 39,
            "reportedRed": 60,
            "inferredRed": 55,
            "playerTrialScore": -16,
            "oppTrialScore": 16,
            "playerTotalScore": -714,
            "oppTotalScore": 714,
            "waitTime": 5829.090571734832,
            "responseTime": 1680761841169,
            "catchQuestion": "How many <b class=\"r\">red<\/b> marbles did your opponent report drawing? ",
            "catchKey": -1,
            "catchResponse": -1,
            "catchTime": 1680761765238,
            "trialTime": 0
        },
        {
            "exptPart": "trial",
            "trialNumber": 37,
            "roleCurrent": "receiver",
            "marblesSampled": 100,
            "probRed": 0.5,
            "practiceLambda": 5,
            "trialLambda": 21.9,
            "instructedLambda": "honest",
            "drawnRed": 48,
            "reportedRed": 73,
            "inferredRed": 70,
            "playerTrialScore": -22,
            "oppTrialScore": 22,
            "playerTotalScore": -736,
            "oppTotalScore": 736,
            "waitTime": 6966.163302847333,
            "responseTime": 1680761855601,
            "catchQuestion": "How many <b class=\"r\">red<\/b> marbles did your opponent report drawing? ",
            "catchKey": -1,
            "catchResponse": -1,
            "catchTime": 1680761765238,
            "trialTime": 0
        },
        {
            "exptPart": "trial",
            "trialNumber": 38,
            "roleCurrent": "receiver",
            "marblesSampled": 100,
            "probRed": 0.5,
            "practiceLambda": 5,
            "trialLambda": 21.9,
            "instructedLambda": "honest",
            "drawnRed": 58,
            "reportedRed": 80,
            "inferredRed": 81,
            "playerTrialScore": -23,
            "oppTrialScore": 23,
            "playerTotalScore": -759,
            "oppTotalScore": 759,
            "waitTime": 7406.641292091024,
            "responseTime": 1680761918288,
            "catchQuestion": "How many <b class=\"r\">red<\/b> marbles did your opponent report drawing? ",
            "catchKey": -1,
            "catchResponse": -1,
            "catchTime": 1680761765238,
            "trialTime": 0
        },
        {
            "exptPart": "trial",
            "trialNumber": 39,
            "roleCurrent": "receiver",
            "marblesSampled": 100,
            "probRed": 0.5,
            "practiceLambda": 5,
            "trialLambda": 21.9,
            "instructedLambda": "honest",
            "drawnRed": 22,
            "reportedRed": 50,
            "inferredRed": 49,
            "playerTrialScore": -27,
            "oppTrialScore": 27,
            "playerTotalScore": -786,
            "oppTotalScore": 786,
            "waitTime": 6106.964181114325,
            "responseTime": 1680761928929,
            "catchQuestion": "How many <b class=\"r\">red<\/b> marbles did your opponent report drawing? ",
            "catchKey": -1,
            "catchResponse": -1,
            "catchTime": 1680761765238,
            "trialTime": 0
        },
        {
            "exptPart": "trial",
            "trialNumber": 40,
            "roleCurrent": "receiver",
            "marblesSampled": 100,
            "probRed": 0.5,
            "practiceLambda": 5,
            "trialLambda": 21.9,
            "instructedLambda": "honest",
            "drawnRed": 40,
            "reportedRed": 61,
            "inferredRed": 60,
            "playerTrialScore": -20,
            "oppTrialScore": 20,
            "playerTotalScore": -806,
            "oppTotalScore": 806,
            "waitTime": 5575.875722047429,
            "responseTime": 1680761939695,
            "catchQuestion": "How many <b class=\"r\">red<\/b> marbles did your opponent report drawing? ",
            "catchKey": -1,
            "catchResponse": -1,
            "catchTime": 1680761939695,
            "trialTime": 0
        },
        {
            "exptPart": "trial",
            "trialNumber": 41,
            "roleCurrent": "receiver",
            "marblesSampled": 100,
            "probRed": 0.5,
            "practiceLambda": 5,
            "trialLambda": 21.9,
            "instructedLambda": "honest",
            "drawnRed": 24,
            "reportedRed": 41,
            "inferredRed": 40,
            "playerTrialScore": -16,
            "oppTrialScore": 16,
            "playerTotalScore": -822,
            "oppTotalScore": 822,
            "waitTime": 5483.58583872734,
            "responseTime": 1680761956384,
            "catchQuestion": "How many <b class=\"r\">red<\/b> marbles did your opponent report drawing? ",
            "catchKey": 41,
            "catchResponse": 41,
            "catchTime": 1680761956385,
            "trialTime": 0
        },
        {
            "exptPart": "trial",
            "trialNumber": 42,
            "roleCurrent": "receiver",
            "marblesSampled": 100,
            "probRed": 0.5,
            "practiceLambda": 5,
            "trialLambda": 21.9,
            "instructedLambda": "honest",
            "drawnRed": 30,
            "reportedRed": 57,
            "inferredRed": 55,
            "playerTrialScore": -25,
            "oppTrialScore": 25,
            "playerTotalScore": -847,
            "oppTotalScore": 847,
            "waitTime": 6926.693669202294,
            "responseTime": 1680761979588,
            "catchQuestion": "How many <b class=\"r\">red<\/b> marbles did your opponent report drawing? ",
            "catchKey": -1,
            "catchResponse": -1,
            "catchTime": 1680761956385,
            "trialTime": 0
        },
        {
            "exptPart": "trial",
            "trialNumber": 43,
            "roleCurrent": "receiver",
            "marblesSampled": 100,
            "probRed": 0.5,
            "practiceLambda": 5,
            "trialLambda": 21.9,
            "instructedLambda": "honest",
            "drawnRed": 68,
            "reportedRed": 83,
            "inferredRed": 80,
            "playerTrialScore": -12,
            "oppTrialScore": 12,
            "playerTotalScore": -859,
            "oppTotalScore": 859,
            "waitTime": 5130.116627688838,
            "responseTime": 1680762079506,
            "catchQuestion": "How many <b class=\"r\">red<\/b> marbles did your opponent report drawing? ",
            "catchKey": -1,
            "catchResponse": -1,
            "catchTime": 1680761956385,
            "trialTime": 0
        },
        {
            "exptPart": "trial",
            "trialNumber": 44,
            "roleCurrent": "receiver",
            "marblesSampled": 100,
            "probRed": 0.5,
            "practiceLambda": 5,
            "trialLambda": 21.9,
            "instructedLambda": "honest",
            "drawnRed": 28,
            "reportedRed": 53,
            "inferredRed": 50,
            "playerTrialScore": -22,
            "oppTrialScore": 22,
            "playerTotalScore": -881,
            "oppTotalScore": 881,
            "waitTime": 5592.385004509754,
            "responseTime": 1680762093474,
            "catchQuestion": "How many <b class=\"r\">red<\/b> marbles did your opponent report drawing? ",
            "catchKey": -1,
            "catchResponse": -1,
            "catchTime": 1680761956385,
            "trialTime": 0
        },
        {
            "exptPart": "trial",
            "trialNumber": 45,
            "roleCurrent": "receiver",
            "marblesSampled": 100,
            "probRed": 0.5,
            "practiceLambda": 5,
            "trialLambda": 21.9,
            "instructedLambda": "honest",
            "drawnRed": 43,
            "reportedRed": 68,
            "inferredRed": 86,
            "playerTrialScore": -43,
            "oppTrialScore": 43,
            "playerTotalScore": -924,
            "oppTotalScore": 924,
            "waitTime": 6989.134153514328,
            "responseTime": 1680762104098,
            "catchQuestion": "How many <b class=\"r\">red<\/b> marbles did your opponent report drawing? ",
            "catchKey": -1,
            "catchResponse": -1,
            "catchTime": 1680761956385,
            "trialTime": 0
        },
        {
            "exptPart": "trial",
            "trialNumber": 46,
            "roleCurrent": "receiver",
            "marblesSampled": 100,
            "probRed": 0.5,
            "practiceLambda": 5,
            "trialLambda": 21.9,
            "instructedLambda": "honest",
            "drawnRed": 36,
            "reportedRed": 60,
            "inferredRed": 62,
            "playerTrialScore": -26,
            "oppTrialScore": 26,
            "playerTotalScore": -950,
            "oppTotalScore": 950,
            "waitTime": 7174.7828480827075,
            "responseTime": 1680762117635,
            "catchQuestion": "How many <b class=\"r\">red<\/b> marbles did your opponent report drawing? ",
            "catchKey": -1,
            "catchResponse": -1,
            "catchTime": 1680761956385,
            "trialTime": 0
        },
        {
            "exptPart": "trial",
            "trialNumber": 47,
            "roleCurrent": "receiver",
            "marblesSampled": 100,
            "probRed": 0.5,
            "practiceLambda": 5,
            "trialLambda": 21.9,
            "instructedLambda": "honest",
            "drawnRed": 67,
            "reportedRed": 95,
            "inferredRed": 97,
            "playerTrialScore": -30,
            "oppTrialScore": 30,
            "playerTotalScore": -980,
            "oppTotalScore": 980,
            "waitTime": 5224.356471071155,
            "responseTime": 1680762129795,
            "catchQuestion": "How many <b class=\"r\">red<\/b> marbles did your opponent report drawing? ",
            "catchKey": -1,
            "catchResponse": -1,
            "catchTime": 1680761956385,
            "trialTime": 0
        },
        {
            "exptPart": "trial",
            "trialNumber": 48,
            "roleCurrent": "receiver",
            "marblesSampled": 100,
            "probRed": 0.5,
            "practiceLambda": 5,
            "trialLambda": 21.9,
            "instructedLambda": "honest",
            "drawnRed": 90,
            "reportedRed": 100,
            "inferredRed": 96,
            "playerTrialScore": -6,
            "oppTrialScore": 6,
            "playerTotalScore": -986,
            "oppTotalScore": 986,
            "waitTime": 5969.526237579075,
            "responseTime": 1680762207529,
            "catchQuestion": "How many <b class=\"r\">red<\/b> marbles did your opponent report drawing? ",
            "catchKey": -1,
            "catchResponse": -1,
            "catchTime": 1680761956385,
            "trialTime": 0
        },
        {
            "exptPart": "trial",
            "trialNumber": 49,
            "roleCurrent": "receiver",
            "marblesSampled": 100,
            "probRed": 0.5,
            "practiceLambda": 5,
            "trialLambda": 21.9,
            "instructedLambda": "honest",
            "drawnRed": 45,
            "reportedRed": 70,
            "inferredRed": 76,
            "playerTrialScore": -31,
            "oppTrialScore": 31,
            "playerTotalScore": -1017,
            "oppTotalScore": 1017,
            "waitTime": 7078.824000742261,
            "responseTime": 1680762218776,
            "catchQuestion": "How many <b class=\"r\">red<\/b> marbles did your opponent report drawing? ",
            "catchKey": -1,
            "catchResponse": -1,
            "catchTime": 1680761956385,
            "trialTime": 0
        },
        {
            "exptPart": "trial",
            "trialNumber": 50,
            "roleCurrent": "receiver",
            "marblesSampled": 100,
            "probRed": 0.5,
            "practiceLambda": 5,
            "trialLambda": 21.9,
            "instructedLambda": "honest",
            "drawnRed": 76,
            "reportedRed": 96,
            "inferredRed": 94,
            "playerTrialScore": -18,
            "oppTrialScore": 18,
            "playerTotalScore": -1035,
            "oppTotalScore": 1035,
            "waitTime": 7052.663881319817,
            "responseTime": 1680762237721,
            "catchQuestion": "How many <b class=\"r\">red<\/b> marbles did your opponent report drawing? ",
            "catchKey": -1,
            "catchResponse": -1,
            "catchTime": 1680762237721,
            "trialTime": 0
        },
        {
            "exptPart": "trial",
            "trialNumber": 51,
            "roleCurrent": "receiver",
            "marblesSampled": 100,
            "probRed": 0.5,
            "practiceLambda": 5,
            "trialLambda": 21.9,
            "instructedLambda": "honest",
            "drawnRed": 56,
            "reportedRed": 77,
            "inferredRed": 78,
            "playerTrialScore": -22,
            "oppTrialScore": 22,
            "playerTotalScore": -1057,
            "oppTotalScore": 1057,
            "waitTime": 6742.827416772723,
            "responseTime": 1680762256110,
            "catchQuestion": "How many <b class=\"r\">red<\/b> marbles did your opponent report drawing? ",
            "catchKey": -1,
            "catchResponse": -1,
            "catchTime": 1680762237721,
            "trialTime": 0
        },
        {
            "exptPart": "trial",
            "trialNumber": 52,
            "roleCurrent": "receiver",
            "marblesSampled": 100,
            "probRed": 0.5,
            "practiceLambda": 5,
            "trialLambda": 21.9,
            "instructedLambda": "honest",
            "drawnRed": 39,
            "reportedRed": 61,
            "inferredRed": 60,
            "playerTrialScore": -21,
            "oppTrialScore": 21,
            "playerTotalScore": -1078,
            "oppTotalScore": 1078,
            "waitTime": 7240.928256385871,
            "responseTime": 1680762268256,
            "catchQuestion": "How many <b class=\"r\">red<\/b> marbles did your opponent report drawing? ",
            "catchKey": -1,
            "catchResponse": -1,
            "catchTime": 1680762237721,
            "trialTime": 0
        },
        {
            "exptPart": "trial",
            "trialNumber": 53,
            "roleCurrent": "receiver",
            "marblesSampled": 100,
            "probRed": 0.5,
            "practiceLambda": 5,
            "trialLambda": 21.9,
            "instructedLambda": "honest",
            "drawnRed": 59,
            "reportedRed": 80,
            "inferredRed": 67,
            "playerTrialScore": -8,
            "oppTrialScore": 8,
            "playerTotalScore": -1086,
            "oppTotalScore": 1086,
            "waitTime": 6971.36437890474,
            "responseTime": 1680762279697,
            "catchQuestion": "How many <b class=\"r\">red<\/b> marbles did your opponent report drawing? ",
            "catchKey": -1,
            "catchResponse": -1,
            "catchTime": 1680762237721,
            "trialTime": 0
        },
        {
            "exptPart": "trial",
            "trialNumber": 54,
            "roleCurrent": "receiver",
            "marblesSampled": 100,
            "probRed": 0.5,
            "practiceLambda": 5,
            "trialLambda": 21.9,
            "instructedLambda": "honest",
            "drawnRed": 27,
            "reportedRed": 42,
            "inferredRed": 50,
            "playerTrialScore": -23,
            "oppTrialScore": 23,
            "playerTotalScore": -1109,
            "oppTotalScore": 1109,
            "waitTime": 6296.088882653757,
            "responseTime": 1680762299371,
            "catchQuestion": "How many <b class=\"r\">red<\/b> marbles did your opponent report drawing? ",
            "catchKey": -1,
            "catchResponse": -1,
            "catchTime": 1680762237721,
            "trialTime": 0
        },
        {
            "exptPart": "trial",
            "trialNumber": 55,
            "roleCurrent": "receiver",
            "marblesSampled": 100,
            "probRed": 0.5,
            "practiceLambda": 5,
            "trialLambda": 21.9,
            "instructedLambda": "honest",
            "drawnRed": 54,
            "reportedRed": 71,
            "inferredRed": 70,
            "playerTrialScore": -16,
            "oppTrialScore": 16,
            "playerTotalScore": -1125,
            "oppTotalScore": 1125,
            "waitTime": 6304.037529468787,
            "responseTime": 1680762311653,
            "catchQuestion": "How many <b class=\"r\">red<\/b> marbles did your opponent report drawing? ",
            "catchKey": 71,
            "catchResponse": 56,
            "catchTime": 1680762311653,
            "trialTime": 0
        },
        {
            "exptPart": "trial",
            "trialNumber": 56,
            "roleCurrent": "receiver",
            "marblesSampled": 100,
            "probRed": 0.5,
            "practiceLambda": 5,
            "trialLambda": 21.9,
            "instructedLambda": "honest",
            "drawnRed": 37,
            "reportedRed": 53,
            "inferredRed": 56,
            "playerTrialScore": -19,
            "oppTrialScore": 19,
            "playerTotalScore": -1144,
            "oppTotalScore": 1144,
            "waitTime": 5726.927187551988,
            "responseTime": 1680762338793,
            "catchQuestion": "How many <b class=\"r\">red<\/b> marbles did your opponent report drawing? ",
            "catchKey": 53,
            "catchResponse": 45,
            "catchTime": 1680762338793,
            "trialTime": 0
        },
        {
            "exptPart": "trial",
            "trialNumber": 57,
            "roleCurrent": "receiver",
            "marblesSampled": 100,
            "probRed": 0.5,
            "practiceLambda": 5,
            "trialLambda": 21.9,
            "instructedLambda": "honest",
            "drawnRed": 65,
            "reportedRed": 91,
            "inferredRed": 93,
            "playerTrialScore": -28,
            "oppTrialScore": 28,
            "playerTotalScore": -1172,
            "oppTotalScore": 1172,
            "waitTime": 6684.044186665885,
            "responseTime": 1680762384636,
            "catchQuestion": "How many <b class=\"r\">red<\/b> marbles did your opponent report drawing? ",
            "catchKey": -1,
            "catchResponse": -1,
            "catchTime": 1680762338793,
            "trialTime": 0
        },
        {
            "exptPart": "trial",
            "trialNumber": 58,
            "roleCurrent": "receiver",
            "marblesSampled": 100,
            "probRed": 0.5,
            "practiceLambda": 5,
            "trialLambda": 21.9,
            "instructedLambda": "honest",
            "drawnRed": 73,
            "reportedRed": 94,
            "inferredRed": 95,
            "playerTrialScore": -22,
            "oppTrialScore": 22,
            "playerTotalScore": -1194,
            "oppTotalScore": 1194,
            "waitTime": 7072.297110866837,
            "responseTime": 1680762416292,
            "catchQuestion": "How many <b class=\"r\">red<\/b> marbles did your opponent report drawing? ",
            "catchKey": -1,
            "catchResponse": -1,
            "catchTime": 1680762338793,
            "trialTime": 0
        },
        {
            "exptPart": "trial",
            "trialNumber": 59,
            "roleCurrent": "receiver",
            "marblesSampled": 100,
            "probRed": 0.5,
            "practiceLambda": 5,
            "trialLambda": 21.9,
            "instructedLambda": "honest",
            "drawnRed": 39,
            "reportedRed": 63,
            "inferredRed": 65,
            "playerTrialScore": -26,
            "oppTrialScore": 26,
            "playerTotalScore": -1220,
            "oppTotalScore": 1220,
            "waitTime": 5911.160280307786,
            "responseTime": 1680762427570,
            "catchQuestion": "How many <b class=\"r\">red<\/b> marbles did your opponent report drawing? ",
            "catchKey": -1,
            "catchResponse": -1,
            "catchTime": 1680762338793,
            "trialTime": 0
        },
        {
            "exptPart": "trial",
            "trialNumber": 60,
            "roleCurrent": "receiver",
            "marblesSampled": 100,
            "probRed": 0.5,
            "practiceLambda": 5,
            "trialLambda": 21.9,
            "instructedLambda": "honest",
            "drawnRed": 66,
            "reportedRed": 98,
            "inferredRed": 99,
            "playerTrialScore": -33,
            "oppTrialScore": 33,
            "playerTotalScore": -1253,
            "oppTotalScore": 1253,
            "waitTime": 6428.7102522107525,
            "responseTime": 1680762439426,
            "catchQuestion": "How many <b class=\"r\">red<\/b> marbles did your opponent report drawing? ",
            "catchKey": -1,
            "catchResponse": -1,
            "catchTime": 1680762439427,
            "trialTime": 0
        },
        {
            "exptPart": "trial",
            "trialNumber": 61,
            "roleCurrent": "receiver",
            "marblesSampled": 100,
            "probRed": 0.5,
            "practiceLambda": 5,
            "trialLambda": 21.9,
            "instructedLambda": "honest",
            "drawnRed": 88,
            "reportedRed": 100,
            "inferredRed": 99,
            "playerTrialScore": -11,
            "oppTrialScore": 11,
            "playerTotalScore": -1264,
            "oppTotalScore": 1264,
            "waitTime": 5436.063215843755,
            "responseTime": 1680762457501,
            "catchQuestion": "How many <b class=\"r\">red<\/b> marbles did your opponent report drawing? ",
            "catchKey": -1,
            "catchResponse": -1,
            "catchTime": 1680762439427,
            "trialTime": 0
        },
        {
            "exptPart": "trial",
            "trialNumber": 62,
            "roleCurrent": "receiver",
            "marblesSampled": 100,
            "probRed": 0.5,
            "practiceLambda": 5,
            "trialLambda": 21.9,
            "instructedLambda": "honest",
            "drawnRed": 23,
            "reportedRed": 54,
            "inferredRed": 50,
            "playerTrialScore": -27,
            "oppTrialScore": 27,
            "playerTotalScore": -1291,
            "oppTotalScore": 1291,
            "waitTime": 6384.610366738609,
            "responseTime": 1680762479370,
            "catchQuestion": "How many <b class=\"r\">red<\/b> marbles did your opponent report drawing? ",
            "catchKey": -1,
            "catchResponse": -1,
            "catchTime": 1680762439427,
            "trialTime": 0
        },
        {
            "exptPart": "trial",
            "trialNumber": 63,
            "roleCurrent": "receiver",
            "marblesSampled": 100,
            "probRed": 0.5,
            "practiceLambda": 5,
            "trialLambda": 21.9,
            "instructedLambda": "honest",
            "drawnRed": 27,
            "reportedRed": 44,
            "inferredRed": 40,
            "playerTrialScore": -13,
            "oppTrialScore": 13,
            "playerTotalScore": -1304,
            "oppTotalScore": 1304,
            "waitTime": 5159.482453770472,
            "responseTime": 1680762490743,
            "catchQuestion": "How many <b class=\"r\">red<\/b> marbles did your opponent report drawing? ",
            "catchKey": -1,
            "catchResponse": -1,
            "catchTime": 1680762439427,
            "trialTime": 0
        },
        {
            "exptPart": "trial",
            "trialNumber": 64,
            "roleCurrent": "receiver",
            "marblesSampled": 100,
            "probRed": 0.5,
            "practiceLambda": 5,
            "trialLambda": 21.9,
            "instructedLambda": "honest",
            "drawnRed": 65,
            "reportedRed": 82,
            "inferredRed": 86,
            "playerTrialScore": -21,
            "oppTrialScore": 21,
            "playerTotalScore": -1325,
            "oppTotalScore": 1325,
            "waitTime": 5603.717915113624,
            "responseTime": 1680762500877,
            "catchQuestion": "How many <b class=\"r\">red<\/b> marbles did your opponent report drawing? ",
            "catchKey": -1,
            "catchResponse": -1,
            "catchTime": 1680762439427,
            "trialTime": 0
        },
        {
            "exptPart": "trial",
            "trialNumber": 65,
            "roleCurrent": "receiver",
            "marblesSampled": 100,
            "probRed": 0.5,
            "practiceLambda": 5,
            "trialLambda": 21.9,
            "instructedLambda": "honest",
            "drawnRed": 41,
            "reportedRed": 56,
            "inferredRed": 57,
            "playerTrialScore": -16,
            "oppTrialScore": 16,
            "playerTotalScore": -1341,
            "oppTotalScore": 1341,
            "waitTime": 6213.70049816981,
            "responseTime": 1680762512624,
            "catchQuestion": "How many <b class=\"r\">red<\/b> marbles did your opponent report drawing? ",
            "catchKey": -1,
            "catchResponse": -1,
            "catchTime": 1680762439427,
            "trialTime": 0
        },
        {
            "exptPart": "trial",
            "trialNumber": 66,
            "roleCurrent": "receiver",
            "marblesSampled": 100,
            "probRed": 0.5,
            "practiceLambda": 5,
            "trialLambda": 21.9,
            "instructedLambda": "honest",
            "drawnRed": 75,
            "reportedRed": 93,
            "inferredRed": 95,
            "playerTrialScore": -20,
            "oppTrialScore": 20,
            "playerTotalScore": -1361,
            "oppTotalScore": 1361,
            "waitTime": 5487.049540697319,
            "responseTime": 1680762529517,
            "catchQuestion": "How many <b class=\"r\">red<\/b> marbles did your opponent report drawing? ",
            "catchKey": 93,
            "catchResponse": 56,
            "catchTime": 1680762529517,
            "trialTime": 0
        },
        {
            "exptPart": "trial",
            "trialNumber": 67,
            "roleCurrent": "receiver",
            "marblesSampled": 100,
            "probRed": 0.5,
            "practiceLambda": 5,
            "trialLambda": 21.9,
            "instructedLambda": "honest",
            "drawnRed": 77,
            "reportedRed": 100,
            "inferredRed": 99,
            "playerTrialScore": -22,
            "oppTrialScore": 22,
            "playerTotalScore": -1383,
            "oppTotalScore": 1383,
            "waitTime": 7018.440449466444,
            "responseTime": 1680762755933,
            "catchQuestion": "How many <b class=\"r\">red<\/b> marbles did your opponent report drawing? ",
            "catchKey": -1,
            "catchResponse": -1,
            "catchTime": 1680762529517,
            "trialTime": 0
        },
        {
            "exptPart": "trial",
            "trialNumber": 68,
            "roleCurrent": "receiver",
            "marblesSampled": 100,
            "probRed": 0.5,
            "practiceLambda": 5,
            "trialLambda": 21.9,
            "instructedLambda": "honest",
            "drawnRed": 13,
            "reportedRed": 33,
            "inferredRed": 30,
            "playerTrialScore": -17,
            "oppTrialScore": 17,
            "playerTotalScore": -1400,
            "oppTotalScore": 1400,
            "waitTime": 7230.274125230127,
            "responseTime": 1680762769132,
            "catchQuestion": "How many <b class=\"r\">red<\/b> marbles did your opponent report drawing? ",
            "catchKey": -1,
            "catchResponse": -1,
            "catchTime": 1680762529517,
            "trialTime": 0
        },
        {
            "exptPart": "trial",
            "trialNumber": 69,
            "roleCurrent": "receiver",
            "marblesSampled": 100,
            "probRed": 0.5,
            "practiceLambda": 5,
            "trialLambda": 21.9,
            "instructedLambda": "honest",
            "drawnRed": 66,
            "reportedRed": 82,
            "inferredRed": 80,
            "playerTrialScore": -14,
            "oppTrialScore": 14,
            "playerTotalScore": -1414,
            "oppTotalScore": 1414,
            "waitTime": 5578.6171261413,
            "responseTime": 1680762780670,
            "catchQuestion": "How many <b class=\"r\">red<\/b> marbles did your opponent report drawing? ",
            "catchKey": -1,
            "catchResponse": -1,
            "catchTime": 1680762529517,
            "trialTime": 0
        },
        {
            "exptPart": "trial",
            "trialNumber": 70,
            "roleCurrent": "receiver",
            "marblesSampled": 100,
            "probRed": 0.5,
            "practiceLambda": 5,
            "trialLambda": 21.9,
            "instructedLambda": "honest",
            "drawnRed": 30,
            "reportedRed": 51,
            "inferredRed": 50,
            "playerTrialScore": -20,
            "oppTrialScore": 20,
            "playerTotalScore": -1434,
            "oppTotalScore": 1434,
            "waitTime": 5261.052836369872,
            "responseTime": 1680762808785,
            "catchQuestion": "How many <b class=\"r\">red<\/b> marbles did your opponent report drawing? ",
            "catchKey": -1,
            "catchResponse": -1,
            "catchTime": 1680762808786,
            "trialTime": 0
        },
        {
            "exptPart": "trial",
            "trialNumber": 71,
            "roleCurrent": "receiver",
            "marblesSampled": 100,
            "probRed": 0.5,
            "practiceLambda": 5,
            "trialLambda": 21.9,
            "instructedLambda": "honest",
            "drawnRed": 29,
            "reportedRed": 46,
            "inferredRed": 44,
            "playerTrialScore": -15,
            "oppTrialScore": 15,
            "playerTotalScore": -1449,
            "oppTotalScore": 1449,
            "waitTime": 5711.149959675598,
            "responseTime": 1680762829323,
            "catchQuestion": "How many <b class=\"r\">red<\/b> marbles did your opponent report drawing? ",
            "catchKey": -1,
            "catchResponse": -1,
            "catchTime": 1680762808786,
            "trialTime": 0
        },
        {
            "exptPart": "trial",
            "trialNumber": 72,
            "roleCurrent": "receiver",
            "marblesSampled": 100,
            "probRed": 0.5,
            "practiceLambda": 5,
            "trialLambda": 21.9,
            "instructedLambda": "honest",
            "drawnRed": 58,
            "reportedRed": 74,
            "inferredRed": 73,
            "playerTrialScore": -15,
            "oppTrialScore": 15,
            "playerTotalScore": -1464,
            "oppTotalScore": 1464,
            "waitTime": 6847.397219302407,
            "responseTime": 1680762841403,
            "catchQuestion": "How many <b class=\"r\">red<\/b> marbles did your opponent report drawing? ",
            "catchKey": -1,
            "catchResponse": -1,
            "catchTime": 1680762808786,
            "trialTime": 0
        },
        {
            "exptPart": "trial",
            "trialNumber": 73,
            "roleCurrent": "receiver",
            "marblesSampled": 100,
            "probRed": 0.5,
            "practiceLambda": 5,
            "trialLambda": 21.9,
            "instructedLambda": "honest",
            "drawnRed": 77,
            "reportedRed": 100,
            "inferredRed": 98,
            "playerTrialScore": -21,
            "oppTrialScore": 21,
            "playerTotalScore": -1485,
            "oppTotalScore": 1485,
            "waitTime": 5640.670344016329,
            "responseTime": 1680762852177,
            "catchQuestion": "How many <b class=\"r\">red<\/b> marbles did your opponent report drawing? ",
            "catchKey": -1,
            "catchResponse": -1,
            "catchTime": 1680762808786,
            "trialTime": 0
        },
        {
            "exptPart": "trial",
            "trialNumber": 74,
            "roleCurrent": "receiver",
            "marblesSampled": 100,
            "probRed": 0.5,
            "practiceLambda": 5,
            "trialLambda": 21.9,
            "instructedLambda": "honest",
            "drawnRed": 67,
            "reportedRed": 91,
            "inferredRed": 88,
            "playerTrialScore": -21,
            "oppTrialScore": 21,
            "playerTotalScore": -1506,
            "oppTotalScore": 1506,
            "waitTime": 7208.739590373882,
            "responseTime": 1680762934880,
            "catchQuestion": "How many <b class=\"r\">red<\/b> marbles did your opponent report drawing? ",
            "catchKey": -1,
            "catchResponse": -1,
            "catchTime": 1680762808786,
            "trialTime": 0
        },
        {
            "exptPart": "trial",
            "trialNumber": 75,
            "roleCurrent": "receiver",
            "marblesSampled": 100,
            "probRed": 0.5,
            "practiceLambda": 5,
            "trialLambda": 21.9,
            "instructedLambda": "honest",
            "drawnRed": 38,
            "reportedRed": 58,
            "inferredRed": 55,
            "playerTrialScore": -17,
            "oppTrialScore": 17,
            "playerTotalScore": -1523,
            "oppTotalScore": 1523,
            "waitTime": 6843.803213314941,
            "responseTime": 1680762948813,
            "catchQuestion": "How many <b class=\"r\">red<\/b> marbles did your opponent report drawing? ",
            "catchKey": -1,
            "catchResponse": -1,
            "catchTime": 1680762808786,
            "trialTime": 0
        },
        {
            "exptPart": "trial",
            "trialNumber": 76,
            "roleCurrent": "receiver",
            "marblesSampled": 100,
            "probRed": 0.5,
            "practiceLambda": 5,
            "trialLambda": 21.9,
            "instructedLambda": "honest",
            "drawnRed": 68,
            "reportedRed": 87,
            "inferredRed": 88,
            "playerTrialScore": -20,
            "oppTrialScore": 20,
            "playerTotalScore": -1543,
            "oppTotalScore": 1543,
            "waitTime": 6951.215750679394,
            "responseTime": 1680762960558,
            "catchQuestion": "How many <b class=\"r\">red<\/b> marbles did your opponent report drawing? ",
            "catchKey": -1,
            "catchResponse": -1,
            "catchTime": 1680762808786,
            "trialTime": 0
        },
        {
            "exptPart": "trial",
            "trialNumber": 77,
            "roleCurrent": "receiver",
            "marblesSampled": 100,
            "probRed": 0.5,
            "practiceLambda": 5,
            "trialLambda": 21.9,
            "instructedLambda": "honest",
            "drawnRed": 28,
            "reportedRed": 49,
            "inferredRed": 46,
            "playerTrialScore": -18,
            "oppTrialScore": 18,
            "playerTotalScore": -1561,
            "oppTotalScore": 1561,
            "waitTime": 5208.368414021142,
            "responseTime": 1680762982549,
            "catchQuestion": "How many <b class=\"r\">red<\/b> marbles did your opponent report drawing? ",
            "catchKey": -1,
            "catchResponse": -1,
            "catchTime": 1680762808786,
            "trialTime": 0
        },
        {
            "exptPart": "trial",
            "trialNumber": 78,
            "roleCurrent": "receiver",
            "marblesSampled": 100,
            "probRed": 0.5,
            "practiceLambda": 5,
            "trialLambda": 21.9,
            "instructedLambda": "honest",
            "drawnRed": 78,
            "reportedRed": 100,
            "inferredRed": 99,
            "playerTrialScore": -21,
            "oppTrialScore": 21,
            "playerTotalScore": -1582,
            "oppTotalScore": 1582,
            "waitTime": 6776.896807207861,
            "responseTime": 1680763913670,
            "catchQuestion": "How many <b class=\"r\">red<\/b> marbles did your opponent report drawing? ",
            "catchKey": -1,
            "catchResponse": -1,
            "catchTime": 1680762808786,
            "trialTime": 0
        },
        {
            "exptPart": "trial",
            "trialNumber": 79,
            "roleCurrent": "receiver",
            "marblesSampled": 100,
            "probRed": 0.5,
            "practiceLambda": 5,
            "trialLambda": 21.9,
            "instructedLambda": "honest",
            "drawnRed": 69,
            "reportedRed": 89,
            "inferredRed": 85,
            "playerTrialScore": -16,
            "oppTrialScore": 16,
            "playerTotalScore": -1598,
            "oppTotalScore": 1598,
            "waitTime": 5630.905480011686,
            "responseTime": 1680763926421,
            "catchQuestion": "How many <b class=\"r\">red<\/b> marbles did your opponent report drawing? ",
            "catchKey": -1,
            "catchResponse": -1,
            "catchTime": 1680762808786,
            "trialTime": 0
        },
        {
            "exptPart": "trial",
            "trialNumber": 80,
            "roleCurrent": "receiver",
            "marblesSampled": 100,
            "probRed": 0.5,
            "practiceLambda": 5,
            "trialLambda": 21.9,
            "instructedLambda": "honest",
            "drawnRed": 83,
            "reportedRed": 100,
            "inferredRed": 98,
            "playerTrialScore": -15,
            "oppTrialScore": 15,
            "playerTotalScore": -1613,
            "oppTotalScore": 1613,
            "waitTime": 5876.35897306318,
            "responseTime": 1680763939309,
            "catchQuestion": "How many <b class=\"r\">red<\/b> marbles did your opponent report drawing? ",
            "catchKey": -1,
            "catchResponse": -1,
            "catchTime": 1680763939309,
            "trialTime": 0
        },
        {
            "exptPart": "trial",
            "trialNumber": 81,
            "roleCurrent": "receiver",
            "marblesSampled": 100,
            "probRed": 0.5,
            "practiceLambda": 5,
            "trialLambda": 21.9,
            "instructedLambda": "honest",
            "drawnRed": 31,
            "reportedRed": 49,
            "inferredRed": 44,
            "playerTrialScore": -13,
            "oppTrialScore": 13,
            "playerTotalScore": -1626,
            "oppTotalScore": 1626,
            "waitTime": 5862.4057043057965,
            "responseTime": 1680763962207,
            "catchQuestion": "How many <b class=\"r\">red<\/b> marbles did your opponent report drawing? ",
            "catchKey": -1,
            "catchResponse": -1,
            "catchTime": 1680763939309,
            "trialTime": 0
        },
        {
            "exptPart": "trial",
            "trialNumber": 82,
            "roleCurrent": "receiver",
            "marblesSampled": 100,
            "probRed": 0.5,
            "practiceLambda": 5,
            "trialLambda": 21.9,
            "instructedLambda": "honest",
            "drawnRed": 62,
            "reportedRed": 87,
            "inferredRed": 85,
            "playerTrialScore": -23,
            "oppTrialScore": 23,
            "playerTotalScore": -1649,
            "oppTotalScore": 1649,
            "waitTime": 6877.033493524898,
            "responseTime": 1680763976370,
            "catchQuestion": "How many <b class=\"r\">red<\/b> marbles did your opponent report drawing? ",
            "catchKey": -1,
            "catchResponse": -1,
            "catchTime": 1680763939309,
            "trialTime": 0
        },
        {
            "exptPart": "trial",
            "trialNumber": 83,
            "roleCurrent": "receiver",
            "marblesSampled": 100,
            "probRed": 0.5,
            "practiceLambda": 5,
            "trialLambda": 21.9,
            "instructedLambda": "honest",
            "drawnRed": 61,
            "reportedRed": 85,
            "inferredRed": 83,
            "playerTrialScore": -22,
            "oppTrialScore": 22,
            "playerTotalScore": -1671,
            "oppTotalScore": 1671,
            "waitTime": 5729.014373415572,
            "responseTime": 1680763990391,
            "catchQuestion": "How many <b class=\"r\">red<\/b> marbles did your opponent report drawing? ",
            "catchKey": -1,
            "catchResponse": -1,
            "catchTime": 1680763939309,
            "trialTime": 0
        },
        {
            "exptPart": "trial",
            "trialNumber": 84,
            "roleCurrent": "receiver",
            "marblesSampled": 100,
            "probRed": 0.5,
            "practiceLambda": 5,
            "trialLambda": 21.9,
            "instructedLambda": "honest",
            "drawnRed": 64,
            "reportedRed": 89,
            "inferredRed": 87,
            "playerTrialScore": -23,
            "oppTrialScore": 23,
            "playerTotalScore": -1694,
            "oppTotalScore": 1694,
            "waitTime": 7370.476938910796,
            "responseTime": 1680764005422,
            "catchQuestion": "How many <b class=\"r\">red<\/b> marbles did your opponent report drawing? ",
            "catchKey": -1,
            "catchResponse": -1,
            "catchTime": 1680763939309,
            "trialTime": 0
        },
        {
            "exptPart": "trial",
            "trialNumber": 85,
            "roleCurrent": "receiver",
            "marblesSampled": 100,
            "probRed": 0.5,
            "practiceLambda": 5,
            "trialLambda": 21.9,
            "instructedLambda": "honest",
            "drawnRed": 50,
            "reportedRed": 74,
            "inferredRed": 74,
            "playerTrialScore": -24,
            "oppTrialScore": 24,
            "playerTotalScore": -1718,
            "oppTotalScore": 1718,
            "waitTime": 6243.051336467813,
            "responseTime": 1680764016185,
            "catchQuestion": "How many <b class=\"r\">red<\/b> marbles did your opponent report drawing? ",
            "catchKey": -1,
            "catchResponse": -1,
            "catchTime": 1680763939309,
            "trialTime": 0
        },
        {
            "exptPart": "trial",
            "trialNumber": 86,
            "roleCurrent": "receiver",
            "marblesSampled": 100,
            "probRed": 0.5,
            "practiceLambda": 5,
            "trialLambda": 21.9,
            "instructedLambda": "honest",
            "drawnRed": 51,
            "reportedRed": 68,
            "inferredRed": 66,
            "playerTrialScore": -15,
            "oppTrialScore": 15,
            "playerTotalScore": -1733,
            "oppTotalScore": 1733,
            "waitTime": 6403.806975558406,
            "responseTime": 1680764031372,
            "catchQuestion": "How many <b class=\"r\">red<\/b> marbles did your opponent report drawing? ",
            "catchKey": -1,
            "catchResponse": -1,
            "catchTime": 1680763939309,
            "trialTime": 0
        },
        {
            "exptPart": "trial",
            "trialNumber": 87,
            "roleCurrent": "receiver",
            "marblesSampled": 100,
            "probRed": 0.5,
            "practiceLambda": 5,
            "trialLambda": 21.9,
            "instructedLambda": "honest",
            "drawnRed": 80,
            "reportedRed": 100,
            "inferredRed": 97,
            "playerTrialScore": -17,
            "oppTrialScore": 17,
            "playerTotalScore": -1750,
            "oppTotalScore": 1750,
            "waitTime": 6628.544859384847,
            "responseTime": 1680764046473,
            "catchQuestion": "How many <b class=\"r\">red<\/b> marbles did your opponent report drawing? ",
            "catchKey": -1,
            "catchResponse": -1,
            "catchTime": 1680763939309,
            "trialTime": 0
        },
        {
            "exptPart": "trial",
            "trialNumber": 88,
            "roleCurrent": "receiver",
            "marblesSampled": 100,
            "probRed": 0.5,
            "practiceLambda": 5,
            "trialLambda": 21.9,
            "instructedLambda": "honest",
            "drawnRed": 57,
            "reportedRed": 82,
            "inferredRed": 80,
            "playerTrialScore": -23,
            "oppTrialScore": 23,
            "playerTotalScore": -1773,
            "oppTotalScore": 1773,
            "waitTime": 5295.839063020296,
            "responseTime": 1680764058890,
            "catchQuestion": "How many <b class=\"r\">red<\/b> marbles did your opponent report drawing? ",
            "catchKey": -1,
            "catchResponse": -1,
            "catchTime": 1680763939309,
            "trialTime": 0
        },
        {
            "exptPart": "trial",
            "trialNumber": 89,
            "roleCurrent": "receiver",
            "marblesSampled": 100,
            "probRed": 0.5,
            "practiceLambda": 5,
            "trialLambda": 21.9,
            "instructedLambda": "honest",
            "drawnRed": 24,
            "reportedRed": 47,
            "inferredRed": 45,
            "playerTrialScore": -21,
            "oppTrialScore": 21,
            "playerTotalScore": -1794,
            "oppTotalScore": 1794,
            "waitTime": 5631.7603681209675,
            "responseTime": 1680764079866,
            "catchQuestion": "How many <b class=\"r\">red<\/b> marbles did your opponent report drawing? ",
            "catchKey": -1,
            "catchResponse": -1,
            "catchTime": 1680763939309,
            "trialTime": 0
        },
        {
            "exptPart": "trial",
            "trialNumber": 90,
            "roleCurrent": "receiver",
            "marblesSampled": 100,
            "probRed": 0.5,
            "practiceLambda": 5,
            "trialLambda": 21.9,
            "instructedLambda": "honest",
            "drawnRed": 54,
            "reportedRed": 71,
            "inferredRed": 58,
            "playerTrialScore": -4,
            "oppTrialScore": 4,
            "playerTotalScore": -1798,
            "oppTotalScore": 1798,
            "waitTime": 5655.544935641117,
            "responseTime": 1680764092370,
            "catchQuestion": "How many <b class=\"r\">red<\/b> marbles did your opponent report drawing? ",
            "catchKey": -1,
            "catchResponse": -1,
            "catchTime": 1680764092370,
            "trialTime": 0
        },
        {
            "exptPart": "trial",
            "trialNumber": 91,
            "roleCurrent": "receiver",
            "marblesSampled": 100,
            "probRed": 0.5,
            "practiceLambda": 5,
            "trialLambda": 21.9,
            "instructedLambda": "honest",
            "drawnRed": 25,
            "reportedRed": 38,
            "inferredRed": 35,
            "playerTrialScore": -10,
            "oppTrialScore": 10,
            "playerTotalScore": -1808,
            "oppTotalScore": 1808,
            "waitTime": 7179.942602356684,
            "responseTime": 1680764106796,
            "catchQuestion": "How many <b class=\"r\">red<\/b> marbles did your opponent report drawing? ",
            "catchKey": -1,
            "catchResponse": -1,
            "catchTime": 1680764092370,
            "trialTime": 0
        },
        {
            "exptPart": "trial",
            "trialNumber": 92,
            "roleCurrent": "receiver",
            "marblesSampled": 100,
            "probRed": 0.5,
            "practiceLambda": 5,
            "trialLambda": 21.9,
            "instructedLambda": "honest",
            "drawnRed": 48,
            "reportedRed": 72,
            "inferredRed": 79,
            "playerTrialScore": -31,
            "oppTrialScore": 31,
            "playerTotalScore": -1839,
            "oppTotalScore": 1839,
            "waitTime": 5180.138357924122,
            "responseTime": 1680764123211,
            "catchQuestion": "How many <b class=\"r\">red<\/b> marbles did your opponent report drawing? ",
            "catchKey": -1,
            "catchResponse": -1,
            "catchTime": 1680764092370,
            "trialTime": 0
        },
        {
            "exptPart": "trial",
            "trialNumber": 93,
            "roleCurrent": "receiver",
            "marblesSampled": 100,
            "probRed": 0.5,
            "practiceLambda": 5,
            "trialLambda": 21.9,
            "instructedLambda": "honest",
            "drawnRed": 29,
            "reportedRed": 49,
            "inferredRed": 41,
            "playerTrialScore": -12,
            "oppTrialScore": 12,
            "playerTotalScore": -1851,
            "oppTotalScore": 1851,
            "waitTime": 5351.385558429683,
            "responseTime": 1680764137388,
            "catchQuestion": "How many <b class=\"r\">red<\/b> marbles did your opponent report drawing? ",
            "catchKey": -1,
            "catchResponse": -1,
            "catchTime": 1680764092370,
            "trialTime": 0
        },
        {
            "exptPart": "trial",
            "trialNumber": 94,
            "roleCurrent": "receiver",
            "marblesSampled": 100,
            "probRed": 0.5,
            "practiceLambda": 5,
            "trialLambda": 21.9,
            "instructedLambda": "honest",
            "drawnRed": 51,
            "reportedRed": 70,
            "inferredRed": 65,
            "playerTrialScore": -14,
            "oppTrialScore": 14,
            "playerTotalScore": -1865,
            "oppTotalScore": 1865,
            "waitTime": 5708.603024232521,
            "responseTime": 1680764148869,
            "catchQuestion": "How many <b class=\"r\">red<\/b> marbles did your opponent report drawing? ",
            "catchKey": -1,
            "catchResponse": -1,
            "catchTime": 1680764092370,
            "trialTime": 0
        },
        {
            "exptPart": "trial",
            "trialNumber": 95,
            "roleCurrent": "receiver",
            "marblesSampled": 100,
            "probRed": 0.5,
            "practiceLambda": 5,
            "trialLambda": 21.9,
            "instructedLambda": "honest",
            "drawnRed": 54,
            "reportedRed": 76,
            "inferredRed": 70,
            "playerTrialScore": -16,
            "oppTrialScore": 16,
            "playerTotalScore": -1881,
            "oppTotalScore": 1881,
            "waitTime": 6002.574142594778,
            "responseTime": 1680764159588,
            "catchQuestion": "How many <b class=\"r\">red<\/b> marbles did your opponent report drawing? ",
            "catchKey": -1,
            "catchResponse": -1,
            "catchTime": 1680764092370,
            "trialTime": 0
        },
        {
            "exptPart": "trial",
            "trialNumber": 96,
            "roleCurrent": "receiver",
            "marblesSampled": 100,
            "probRed": 0.5,
            "practiceLambda": 5,
            "trialLambda": 21.9,
            "instructedLambda": "honest",
            "drawnRed": 49,
            "reportedRed": 69,
            "inferredRed": 65,
            "playerTrialScore": -16,
            "oppTrialScore": 16,
            "playerTotalScore": -1897,
            "oppTotalScore": 1897,
            "waitTime": 5251.709229838105,
            "responseTime": 1680764169512,
            "catchQuestion": "How many <b class=\"r\">red<\/b> marbles did your opponent report drawing? ",
            "catchKey": -1,
            "catchResponse": -1,
            "catchTime": 1680764092370,
            "trialTime": 0
        },
        {
            "exptPart": "trial",
            "trialNumber": 97,
            "roleCurrent": "receiver",
            "marblesSampled": 100,
            "probRed": 0.5,
            "practiceLambda": 5,
            "trialLambda": 21.9,
            "instructedLambda": "honest",
            "drawnRed": 66,
            "reportedRed": 89,
            "inferredRed": 80,
            "playerTrialScore": -14,
            "oppTrialScore": 14,
            "playerTotalScore": -1911,
            "oppTotalScore": 1911,
            "waitTime": 6945.298175011601,
            "responseTime": 1680764181090,
            "catchQuestion": "How many <b class=\"r\">red<\/b> marbles did your opponent report drawing? ",
            "catchKey": -1,
            "catchResponse": -1,
            "catchTime": 1680764092370,
            "trialTime": 0
        },
        {
            "exptPart": "trial",
            "trialNumber": 98,
            "roleCurrent": "receiver",
            "marblesSampled": 100,
            "probRed": 0.5,
            "practiceLambda": 5,
            "trialLambda": 21.9,
            "instructedLambda": "honest",
            "drawnRed": 72,
            "reportedRed": 92,
            "inferredRed": 90,
            "playerTrialScore": -18,
            "oppTrialScore": 18,
            "playerTotalScore": -1929,
            "oppTotalScore": 1929,
            "waitTime": 5945.752809360487,
            "responseTime": 1680764195485,
            "catchQuestion": "How many <b class=\"r\">red<\/b> marbles did your opponent report drawing? ",
            "catchKey": -1,
            "catchResponse": -1,
            "catchTime": 1680764092370,
            "trialTime": 0
        },
        {
            "exptPart": "trial",
            "trialNumber": 99,
            "roleCurrent": "receiver",
            "marblesSampled": 100,
            "probRed": 0.5,
            "practiceLambda": 5,
            "trialLambda": 21.9,
            "instructedLambda": "honest",
            "drawnRed": 26,
            "reportedRed": 50,
            "inferredRed": 46,
            "playerTrialScore": -20,
            "oppTrialScore": 20,
            "playerTotalScore": -1949,
            "oppTotalScore": 1949,
            "waitTime": 5931.901892070178,
            "responseTime": 1680764206881,
            "catchQuestion": "How many <b class=\"r\">red<\/b> marbles did your opponent report drawing? ",
            "catchKey": 50,
            "catchResponse": 50,
            "catchTime": 1680764206881,
            "trialTime": 0
        },
        {
            "exptPart": "trial",
            "trialNumber": 100,
            "roleCurrent": "receiver",
            "marblesSampled": 100,
            "probRed": 0.5,
            "practiceLambda": 5,
            "trialLambda": 21.9,
            "instructedLambda": "honest",
            "drawnRed": 28,
            "reportedRed": 47,
            "inferredRed": 40,
            "playerTrialScore": -12,
            "oppTrialScore": 12,
            "playerTotalScore": -1961,
            "oppTotalScore": 1961,
            "waitTime": 5239.649624128755,
            "responseTime": 1680764226919,
            "catchQuestion": "How many <b class=\"r\">red<\/b> marbles did your opponent report drawing? ",
            "catchKey": -1,
            "catchResponse": -1,
            "catchTime": 1680764226919,
            "trialTime": 0
        }
    ]
}