{
    "client": {
        "type": "sona",
        "experiment_id": 2488,
        "credit_token": "79d15902e9034cb6b65a542be205401c",
        "survey_code": "27014",
        "sid": "sona-27014",
        "window": {
            "width": 1437,
            "height": 756
        },
        "screen": {
            "width": 1440,
            "height": 900
        },
        "userAgent": "Mozilla\/5.0 (Macintosh; Intel Mac OS X 10_13_6) AppleWebKit\/537.36 (KHTML, like Gecko) Chrome\/106.0.0.0 Safari\/537.36",
        "score": 0,
        "bonus": 0
    },
    "expt": {
        "saveURL": "submit.simple.php",
        "trials": 100,
        "practiceTrials": 2,
        "marblesSampled": 100,
        "probRed": 0.5,
        "practiceLambdaAI": 5,
        "lambdaAI": 8.1,
        "roles": [
            "sender",
            "receiver"
        ],
        "cost": "unif",
        "goal": "over",
        "oppDishonesty": "honest",
        "catchTrials": [
            59,
            12,
            33,
            69,
            20,
            11,
            26,
            78,
            77,
            89
        ],
        "scoreTotal": {
            "player": -1098,
            "opp": 880
        },
        "sona": {
            "experiment_id": 2488,
            "credit_token": "79d15902e9034cb6b65a542be205401c"
        },
        "pilot": false,
        "debug": false
    },
    "trials": [
        {
            "exptPart": "practice",
            "trialNumber": 1,
            "roleCurrent": "sender",
            "marblesSampled": 100,
            "probRed": 0.5,
            "practiceLambda": 5,
            "trialLambda": 8.1,
            "instructedLambda": "honest",
            "drawnRed": 48,
            "reportedRed": 45,
            "inferredRed": 42,
            "playerTrialScore": 0,
            "oppTrialScore": -6,
            "playerTotalScore": 0,
            "oppTotalScore": -6,
            "waitTime": 2424.6108933916685,
            "responseTime": 1678904404553,
            "catchQuestion": "How many <b class=\"r\">red<\/b> marbles did you actually draw (before any changes)? ",
            "catchKey": 48,
            "catchResponse": 45,
            "catchTime": 1678904404554,
            "trialTime": 0
        },
        {
            "exptPart": "practice",
            "trialNumber": 2,
            "roleCurrent": "receiver",
            "marblesSampled": 100,
            "probRed": 0.5,
            "practiceLambda": 5,
            "trialLambda": 8.1,
            "instructedLambda": "honest",
            "drawnRed": 52,
            "reportedRed": 56,
            "inferredRed": 50,
            "playerTrialScore": -2,
            "oppTrialScore": 0,
            "playerTotalScore": -2,
            "oppTotalScore": -6,
            "waitTime": 6415.42204438569,
            "responseTime": 1678904444909,
            "catchQuestion": "How many <b class=\"r\">red<\/b> marbles did your opponent report drawing? ",
            "catchKey": 56,
            "catchResponse": 56,
            "catchTime": 1678904444909,
            "trialTime": 0
        },
        {
            "exptPart": "trial",
            "trialNumber": 1,
            "roleCurrent": "receiver",
            "marblesSampled": 100,
            "probRed": 0.5,
            "practiceLambda": 5,
            "trialLambda": 8.1,
            "instructedLambda": "honest",
            "drawnRed": 25,
            "reportedRed": 33,
            "inferredRed": 45,
            "playerTrialScore": -20,
            "oppTrialScore": 20,
            "playerTotalScore": -20,
            "oppTotalScore": 20,
            "waitTime": 7078.354207162671,
            "responseTime": 1678904500445,
            "catchQuestion": "How many <b class=\"r\">red<\/b> marbles did your opponent report drawing? ",
            "catchKey": -1,
            "catchResponse": -1,
            "catchTime": 1678904444909,
            "trialTime": 0
        },
        {
            "exptPart": "trial",
            "trialNumber": 2,
            "roleCurrent": "receiver",
            "marblesSampled": 100,
            "probRed": 0.5,
            "practiceLambda": 5,
            "trialLambda": 8.1,
            "instructedLambda": "honest",
            "drawnRed": 26,
            "reportedRed": 29,
            "inferredRed": 36,
            "playerTrialScore": -10,
            "oppTrialScore": 10,
            "playerTotalScore": -30,
            "oppTotalScore": 30,
            "waitTime": 7316.830180777253,
            "responseTime": 1678904519623,
            "catchQuestion": "How many <b class=\"r\">red<\/b> marbles did your opponent report drawing? ",
            "catchKey": -1,
            "catchResponse": -1,
            "catchTime": 1678904444909,
            "trialTime": 0
        },
        {
            "exptPart": "trial",
            "trialNumber": 3,
            "roleCurrent": "receiver",
            "marblesSampled": 100,
            "probRed": 0.5,
            "practiceLambda": 5,
            "trialLambda": 8.1,
            "instructedLambda": "honest",
            "drawnRed": 47,
            "reportedRed": 58,
            "inferredRed": 48,
            "playerTrialScore": -1,
            "oppTrialScore": 1,
            "playerTotalScore": -31,
            "oppTotalScore": 31,
            "waitTime": 6494.024999343917,
            "responseTime": 1678904531778,
            "catchQuestion": "How many <b class=\"r\">red<\/b> marbles did your opponent report drawing? ",
            "catchKey": -1,
            "catchResponse": -1,
            "catchTime": 1678904444909,
            "trialTime": 0
        },
        {
            "exptPart": "trial",
            "trialNumber": 4,
            "roleCurrent": "receiver",
            "marblesSampled": 100,
            "probRed": 0.5,
            "practiceLambda": 5,
            "trialLambda": 8.1,
            "instructedLambda": "honest",
            "drawnRed": 27,
            "reportedRed": 36,
            "inferredRed": 45,
            "playerTrialScore": -18,
            "oppTrialScore": 18,
            "playerTotalScore": -49,
            "oppTotalScore": 49,
            "waitTime": 7004.04778254872,
            "responseTime": 1678904549108,
            "catchQuestion": "How many <b class=\"r\">red<\/b> marbles did your opponent report drawing? ",
            "catchKey": -1,
            "catchResponse": -1,
            "catchTime": 1678904444909,
            "trialTime": 0
        },
        {
            "exptPart": "trial",
            "trialNumber": 5,
            "roleCurrent": "receiver",
            "marblesSampled": 100,
            "probRed": 0.5,
            "practiceLambda": 5,
            "trialLambda": 8.1,
            "instructedLambda": "honest",
            "drawnRed": 7,
            "reportedRed": 18,
            "inferredRed": 30,
            "playerTrialScore": -23,
            "oppTrialScore": 23,
            "playerTotalScore": -72,
            "oppTotalScore": 72,
            "waitTime": 5150.49930789918,
            "responseTime": 1678904558365,
            "catchQuestion": "How many <b class=\"r\">red<\/b> marbles did your opponent report drawing? ",
            "catchKey": -1,
            "catchResponse": -1,
            "catchTime": 1678904444909,
            "trialTime": 0
        },
        {
            "exptPart": "trial",
            "trialNumber": 6,
            "roleCurrent": "receiver",
            "marblesSampled": 100,
            "probRed": 0.5,
            "practiceLambda": 5,
            "trialLambda": 8.1,
            "instructedLambda": "honest",
            "drawnRed": 29,
            "reportedRed": 35,
            "inferredRed": 40,
            "playerTrialScore": -11,
            "oppTrialScore": 11,
            "playerTotalScore": -83,
            "oppTotalScore": 83,
            "waitTime": 5337.946344695196,
            "responseTime": 1678904568878,
            "catchQuestion": "How many <b class=\"r\">red<\/b> marbles did your opponent report drawing? ",
            "catchKey": -1,
            "catchResponse": -1,
            "catchTime": 1678904444909,
            "trialTime": 0
        },
        {
            "exptPart": "trial",
            "trialNumber": 7,
            "roleCurrent": "receiver",
            "marblesSampled": 100,
            "probRed": 0.5,
            "practiceLambda": 5,
            "trialLambda": 8.1,
            "instructedLambda": "honest",
            "drawnRed": 65,
            "reportedRed": 69,
            "inferredRed": 55,
            "playerTrialScore": -10,
            "oppTrialScore": 0,
            "playerTotalScore": -93,
            "oppTotalScore": 83,
            "waitTime": 5151.50308763996,
            "responseTime": 1678904588531,
            "catchQuestion": "How many <b class=\"r\">red<\/b> marbles did your opponent report drawing? ",
            "catchKey": -1,
            "catchResponse": -1,
            "catchTime": 1678904444909,
            "trialTime": 0
        },
        {
            "exptPart": "trial",
            "trialNumber": 8,
            "roleCurrent": "receiver",
            "marblesSampled": 100,
            "probRed": 0.5,
            "practiceLambda": 5,
            "trialLambda": 8.1,
            "instructedLambda": "honest",
            "drawnRed": 93,
            "reportedRed": 100,
            "inferredRed": 50,
            "playerTrialScore": -43,
            "oppTrialScore": 0,
            "playerTotalScore": -136,
            "oppTotalScore": 83,
            "waitTime": 6057.761090167897,
            "responseTime": 1678904601444,
            "catchQuestion": "How many <b class=\"r\">red<\/b> marbles did your opponent report drawing? ",
            "catchKey": -1,
            "catchResponse": -1,
            "catchTime": 1678904444909,
            "trialTime": 0
        },
        {
            "exptPart": "trial",
            "trialNumber": 9,
            "roleCurrent": "receiver",
            "marblesSampled": 100,
            "probRed": 0.5,
            "practiceLambda": 5,
            "trialLambda": 8.1,
            "instructedLambda": "honest",
            "drawnRed": 32,
            "reportedRed": 39,
            "inferredRed": 44,
            "playerTrialScore": -12,
            "oppTrialScore": 12,
            "playerTotalScore": -148,
            "oppTotalScore": 95,
            "waitTime": 5802.3003506780005,
            "responseTime": 1678904613938,
            "catchQuestion": "How many <b class=\"r\">red<\/b> marbles did your opponent report drawing? ",
            "catchKey": -1,
            "catchResponse": -1,
            "catchTime": 1678904444909,
            "trialTime": 0
        },
        {
            "exptPart": "trial",
            "trialNumber": 10,
            "roleCurrent": "receiver",
            "marblesSampled": 100,
            "probRed": 0.5,
            "practiceLambda": 5,
            "trialLambda": 8.1,
            "instructedLambda": "honest",
            "drawnRed": 26,
            "reportedRed": 35,
            "inferredRed": 40,
            "playerTrialScore": -14,
            "oppTrialScore": 14,
            "playerTotalScore": -162,
            "oppTotalScore": 109,
            "waitTime": 7426.748956899429,
            "responseTime": 1678904630418,
            "catchQuestion": "How many <b class=\"r\">red<\/b> marbles did your opponent report drawing? ",
            "catchKey": -1,
            "catchResponse": -1,
            "catchTime": 1678904630418,
            "trialTime": 0
        },
        {
            "exptPart": "trial",
            "trialNumber": 11,
            "roleCurrent": "receiver",
            "marblesSampled": 100,
            "probRed": 0.5,
            "practiceLambda": 5,
            "trialLambda": 8.1,
            "instructedLambda": "honest",
            "drawnRed": 40,
            "reportedRed": 47,
            "inferredRed": 45,
            "playerTrialScore": -5,
            "oppTrialScore": 5,
            "playerTotalScore": -167,
            "oppTotalScore": 114,
            "waitTime": 7303.726491750388,
            "responseTime": 1678904651013,
            "catchQuestion": "How many <b class=\"r\">red<\/b> marbles did your opponent report drawing? ",
            "catchKey": -1,
            "catchResponse": -1,
            "catchTime": 1678904630418,
            "trialTime": 0
        },
        {
            "exptPart": "trial",
            "trialNumber": 12,
            "roleCurrent": "receiver",
            "marblesSampled": 100,
            "probRed": 0.5,
            "practiceLambda": 5,
            "trialLambda": 8.1,
            "instructedLambda": "honest",
            "drawnRed": 54,
            "reportedRed": 65,
            "inferredRed": 45,
            "playerTrialScore": -9,
            "oppTrialScore": 0,
            "playerTotalScore": -176,
            "oppTotalScore": 114,
            "waitTime": 5380.443966548612,
            "responseTime": 1678904659685,
            "catchQuestion": "How many <b class=\"r\">red<\/b> marbles did your opponent report drawing? ",
            "catchKey": 65,
            "catchResponse": 65,
            "catchTime": 1678904659685,
            "trialTime": 0
        },
        {
            "exptPart": "trial",
            "trialNumber": 13,
            "roleCurrent": "receiver",
            "marblesSampled": 100,
            "probRed": 0.5,
            "practiceLambda": 5,
            "trialLambda": 8.1,
            "instructedLambda": "honest",
            "drawnRed": 40,
            "reportedRed": 47,
            "inferredRed": 50,
            "playerTrialScore": -10,
            "oppTrialScore": 10,
            "playerTotalScore": -186,
            "oppTotalScore": 124,
            "waitTime": 5247.646353578515,
            "responseTime": 1678904678979,
            "catchQuestion": "How many <b class=\"r\">red<\/b> marbles did your opponent report drawing? ",
            "catchKey": 47,
            "catchResponse": 47,
            "catchTime": 1678904678979,
            "trialTime": 0
        },
        {
            "exptPart": "trial",
            "trialNumber": 14,
            "roleCurrent": "receiver",
            "marblesSampled": 100,
            "probRed": 0.5,
            "practiceLambda": 5,
            "trialLambda": 8.1,
            "instructedLambda": "honest",
            "drawnRed": 29,
            "reportedRed": 38,
            "inferredRed": 57,
            "playerTrialScore": -28,
            "oppTrialScore": 28,
            "playerTotalScore": -214,
            "oppTotalScore": 152,
            "waitTime": 6879.090461458411,
            "responseTime": 1678904698800,
            "catchQuestion": "How many <b class=\"r\">red<\/b> marbles did your opponent report drawing? ",
            "catchKey": -1,
            "catchResponse": -1,
            "catchTime": 1678904678979,
            "trialTime": 0
        },
        {
            "exptPart": "trial",
            "trialNumber": 15,
            "roleCurrent": "receiver",
            "marblesSampled": 100,
            "probRed": 0.5,
            "practiceLambda": 5,
            "trialLambda": 8.1,
            "instructedLambda": "honest",
            "drawnRed": 26,
            "reportedRed": 37,
            "inferredRed": 50,
            "playerTrialScore": -24,
            "oppTrialScore": 24,
            "playerTotalScore": -238,
            "oppTotalScore": 176,
            "waitTime": 5463.61162503724,
            "responseTime": 1678904709216,
            "catchQuestion": "How many <b class=\"r\">red<\/b> marbles did your opponent report drawing? ",
            "catchKey": -1,
            "catchResponse": -1,
            "catchTime": 1678904678979,
            "trialTime": 0
        },
        {
            "exptPart": "trial",
            "trialNumber": 16,
            "roleCurrent": "receiver",
            "marblesSampled": 100,
            "probRed": 0.5,
            "practiceLambda": 5,
            "trialLambda": 8.1,
            "instructedLambda": "honest",
            "drawnRed": 55,
            "reportedRed": 63,
            "inferredRed": 55,
            "playerTrialScore": 0,
            "oppTrialScore": 0,
            "playerTotalScore": -238,
            "oppTotalScore": 176,
            "waitTime": 7260.968481233258,
            "responseTime": 1678904720976,
            "catchQuestion": "How many <b class=\"r\">red<\/b> marbles did your opponent report drawing? ",
            "catchKey": -1,
            "catchResponse": -1,
            "catchTime": 1678904678979,
            "trialTime": 0
        },
        {
            "exptPart": "trial",
            "trialNumber": 17,
            "roleCurrent": "receiver",
            "marblesSampled": 100,
            "probRed": 0.5,
            "practiceLambda": 5,
            "trialLambda": 8.1,
            "instructedLambda": "honest",
            "drawnRed": 66,
            "reportedRed": 73,
            "inferredRed": 65,
            "playerTrialScore": -1,
            "oppTrialScore": 0,
            "playerTotalScore": -239,
            "oppTotalScore": 176,
            "waitTime": 6635.344475779644,
            "responseTime": 1678904732995,
            "catchQuestion": "How many <b class=\"r\">red<\/b> marbles did your opponent report drawing? ",
            "catchKey": -1,
            "catchResponse": -1,
            "catchTime": 1678904678979,
            "trialTime": 0
        },
        {
            "exptPart": "trial",
            "trialNumber": 18,
            "roleCurrent": "receiver",
            "marblesSampled": 100,
            "probRed": 0.5,
            "practiceLambda": 5,
            "trialLambda": 8.1,
            "instructedLambda": "honest",
            "drawnRed": 15,
            "reportedRed": 22,
            "inferredRed": 39,
            "playerTrialScore": -24,
            "oppTrialScore": 24,
            "playerTotalScore": -263,
            "oppTotalScore": 200,
            "waitTime": 6838.3481535806895,
            "responseTime": 1678904750480,
            "catchQuestion": "How many <b class=\"r\">red<\/b> marbles did your opponent report drawing? ",
            "catchKey": -1,
            "catchResponse": -1,
            "catchTime": 1678904678979,
            "trialTime": 0
        },
        {
            "exptPart": "trial",
            "trialNumber": 19,
            "roleCurrent": "receiver",
            "marblesSampled": 100,
            "probRed": 0.5,
            "practiceLambda": 5,
            "trialLambda": 8.1,
            "instructedLambda": "honest",
            "drawnRed": 66,
            "reportedRed": 71,
            "inferredRed": 56,
            "playerTrialScore": -10,
            "oppTrialScore": 0,
            "playerTotalScore": -273,
            "oppTotalScore": 200,
            "waitTime": 5185.894078319914,
            "responseTime": 1678904764725,
            "catchQuestion": "How many <b class=\"r\">red<\/b> marbles did your opponent report drawing? ",
            "catchKey": -1,
            "catchResponse": -1,
            "catchTime": 1678904678979,
            "trialTime": 0
        },
        {
            "exptPart": "trial",
            "trialNumber": 20,
            "roleCurrent": "receiver",
            "marblesSampled": 100,
            "probRed": 0.5,
            "practiceLambda": 5,
            "trialLambda": 8.1,
            "instructedLambda": "honest",
            "drawnRed": 39,
            "reportedRed": 47,
            "inferredRed": 55,
            "playerTrialScore": -16,
            "oppTrialScore": 16,
            "playerTotalScore": -289,
            "oppTotalScore": 216,
            "waitTime": 6034.327047573583,
            "responseTime": 1678904774398,
            "catchQuestion": "How many <b class=\"r\">red<\/b> marbles did your opponent report drawing? ",
            "catchKey": -1,
            "catchResponse": -1,
            "catchTime": 1678904774398,
            "trialTime": 0
        },
        {
            "exptPart": "trial",
            "trialNumber": 21,
            "roleCurrent": "receiver",
            "marblesSampled": 100,
            "probRed": 0.5,
            "practiceLambda": 5,
            "trialLambda": 8.1,
            "instructedLambda": "honest",
            "drawnRed": 41,
            "reportedRed": 51,
            "inferredRed": 49,
            "playerTrialScore": -8,
            "oppTrialScore": 8,
            "playerTotalScore": -297,
            "oppTotalScore": 224,
            "waitTime": 5196.908655889684,
            "responseTime": 1678904789051,
            "catchQuestion": "How many <b class=\"r\">red<\/b> marbles did your opponent report drawing? ",
            "catchKey": 51,
            "catchResponse": 51,
            "catchTime": 1678904789051,
            "trialTime": 0
        },
        {
            "exptPart": "trial",
            "trialNumber": 22,
            "roleCurrent": "receiver",
            "marblesSampled": 100,
            "probRed": 0.5,
            "practiceLambda": 5,
            "trialLambda": 8.1,
            "instructedLambda": "honest",
            "drawnRed": 28,
            "reportedRed": 42,
            "inferredRed": 45,
            "playerTrialScore": -17,
            "oppTrialScore": 17,
            "playerTotalScore": -314,
            "oppTotalScore": 241,
            "waitTime": 5326.429159222167,
            "responseTime": 1678904803070,
            "catchQuestion": "How many <b class=\"r\">red<\/b> marbles did your opponent report drawing? ",
            "catchKey": -1,
            "catchResponse": -1,
            "catchTime": 1678904789051,
            "trialTime": 0
        },
        {
            "exptPart": "trial",
            "trialNumber": 23,
            "roleCurrent": "receiver",
            "marblesSampled": 100,
            "probRed": 0.5,
            "practiceLambda": 5,
            "trialLambda": 8.1,
            "instructedLambda": "honest",
            "drawnRed": 18,
            "reportedRed": 24,
            "inferredRed": 40,
            "playerTrialScore": -22,
            "oppTrialScore": 22,
            "playerTotalScore": -336,
            "oppTotalScore": 263,
            "waitTime": 6118.362229154674,
            "responseTime": 1678904814307,
            "catchQuestion": "How many <b class=\"r\">red<\/b> marbles did your opponent report drawing? ",
            "catchKey": -1,
            "catchResponse": -1,
            "catchTime": 1678904789051,
            "trialTime": 0
        },
        {
            "exptPart": "trial",
            "trialNumber": 24,
            "roleCurrent": "receiver",
            "marblesSampled": 100,
            "probRed": 0.5,
            "practiceLambda": 5,
            "trialLambda": 8.1,
            "instructedLambda": "honest",
            "drawnRed": 46,
            "reportedRed": 57,
            "inferredRed": 55,
            "playerTrialScore": -9,
            "oppTrialScore": 9,
            "playerTotalScore": -345,
            "oppTotalScore": 272,
            "waitTime": 5294.289980981608,
            "responseTime": 1678904824659,
            "catchQuestion": "How many <b class=\"r\">red<\/b> marbles did your opponent report drawing? ",
            "catchKey": -1,
            "catchResponse": -1,
            "catchTime": 1678904789051,
            "trialTime": 0
        },
        {
            "exptPart": "trial",
            "trialNumber": 25,
            "roleCurrent": "receiver",
            "marblesSampled": 100,
            "probRed": 0.5,
            "practiceLambda": 5,
            "trialLambda": 8.1,
            "instructedLambda": "honest",
            "drawnRed": 77,
            "reportedRed": 91,
            "inferredRed": 67,
            "playerTrialScore": -10,
            "oppTrialScore": 0,
            "playerTotalScore": -355,
            "oppTotalScore": 272,
            "waitTime": 6905.608206144597,
            "responseTime": 1678904836201,
            "catchQuestion": "How many <b class=\"r\">red<\/b> marbles did your opponent report drawing? ",
            "catchKey": -1,
            "catchResponse": -1,
            "catchTime": 1678904789051,
            "trialTime": 0
        },
        {
            "exptPart": "trial",
            "trialNumber": 26,
            "roleCurrent": "receiver",
            "marblesSampled": 100,
            "probRed": 0.5,
            "practiceLambda": 5,
            "trialLambda": 8.1,
            "instructedLambda": "honest",
            "drawnRed": 19,
            "reportedRed": 27,
            "inferredRed": 45,
            "playerTrialScore": -26,
            "oppTrialScore": 26,
            "playerTotalScore": -381,
            "oppTotalScore": 298,
            "waitTime": 7376.878123896282,
            "responseTime": 1678904846611,
            "catchQuestion": "How many <b class=\"r\">red<\/b> marbles did your opponent report drawing? ",
            "catchKey": -1,
            "catchResponse": -1,
            "catchTime": 1678904789051,
            "trialTime": 0
        },
        {
            "exptPart": "trial",
            "trialNumber": 27,
            "roleCurrent": "receiver",
            "marblesSampled": 100,
            "probRed": 0.5,
            "practiceLambda": 5,
            "trialLambda": 8.1,
            "instructedLambda": "honest",
            "drawnRed": 70,
            "reportedRed": 82,
            "inferredRed": 62,
            "playerTrialScore": -8,
            "oppTrialScore": 0,
            "playerTotalScore": -389,
            "oppTotalScore": 298,
            "waitTime": 6316.309948128201,
            "responseTime": 1678904857713,
            "catchQuestion": "How many <b class=\"r\">red<\/b> marbles did your opponent report drawing? ",
            "catchKey": 82,
            "catchResponse": 82,
            "catchTime": 1678904857713,
            "trialTime": 0
        },
        {
            "exptPart": "trial",
            "trialNumber": 28,
            "roleCurrent": "receiver",
            "marblesSampled": 100,
            "probRed": 0.5,
            "practiceLambda": 5,
            "trialLambda": 8.1,
            "instructedLambda": "honest",
            "drawnRed": 33,
            "reportedRed": 46,
            "inferredRed": 50,
            "playerTrialScore": -17,
            "oppTrialScore": 17,
            "playerTotalScore": -406,
            "oppTotalScore": 315,
            "waitTime": 6745.42591387267,
            "responseTime": 1678904874623,
            "catchQuestion": "How many <b class=\"r\">red<\/b> marbles did your opponent report drawing? ",
            "catchKey": -1,
            "catchResponse": -1,
            "catchTime": 1678904857713,
            "trialTime": 0
        },
        {
            "exptPart": "trial",
            "trialNumber": 29,
            "roleCurrent": "receiver",
            "marblesSampled": 100,
            "probRed": 0.5,
            "practiceLambda": 5,
            "trialLambda": 8.1,
            "instructedLambda": "honest",
            "drawnRed": 35,
            "reportedRed": 38,
            "inferredRed": 45,
            "playerTrialScore": -10,
            "oppTrialScore": 10,
            "playerTotalScore": -416,
            "oppTotalScore": 325,
            "waitTime": 7200.005794734067,
            "responseTime": 1678904884985,
            "catchQuestion": "How many <b class=\"r\">red<\/b> marbles did your opponent report drawing? ",
            "catchKey": -1,
            "catchResponse": -1,
            "catchTime": 1678904857713,
            "trialTime": 0
        },
        {
            "exptPart": "trial",
            "trialNumber": 30,
            "roleCurrent": "receiver",
            "marblesSampled": 100,
            "probRed": 0.5,
            "practiceLambda": 5,
            "trialLambda": 8.1,
            "instructedLambda": "honest",
            "drawnRed": 50,
            "reportedRed": 54,
            "inferredRed": 55,
            "playerTrialScore": -5,
            "oppTrialScore": 5,
            "playerTotalScore": -421,
            "oppTotalScore": 330,
            "waitTime": 5984.00477527086,
            "responseTime": 1678904902153,
            "catchQuestion": "How many <b class=\"r\">red<\/b> marbles did your opponent report drawing? ",
            "catchKey": -1,
            "catchResponse": -1,
            "catchTime": 1678904902153,
            "trialTime": 0
        },
        {
            "exptPart": "trial",
            "trialNumber": 31,
            "roleCurrent": "receiver",
            "marblesSampled": 100,
            "probRed": 0.5,
            "practiceLambda": 5,
            "trialLambda": 8.1,
            "instructedLambda": "honest",
            "drawnRed": 37,
            "reportedRed": 41,
            "inferredRed": 45,
            "playerTrialScore": -8,
            "oppTrialScore": 8,
            "playerTotalScore": -429,
            "oppTotalScore": 338,
            "waitTime": 6321.414739578411,
            "responseTime": 1678904918357,
            "catchQuestion": "How many <b class=\"r\">red<\/b> marbles did your opponent report drawing? ",
            "catchKey": -1,
            "catchResponse": -1,
            "catchTime": 1678904902153,
            "trialTime": 0
        },
        {
            "exptPart": "trial",
            "trialNumber": 32,
            "roleCurrent": "receiver",
            "marblesSampled": 100,
            "probRed": 0.5,
            "practiceLambda": 5,
            "trialLambda": 8.1,
            "instructedLambda": "honest",
            "drawnRed": 52,
            "reportedRed": 64,
            "inferredRed": 62,
            "playerTrialScore": -10,
            "oppTrialScore": 10,
            "playerTotalScore": -439,
            "oppTotalScore": 348,
            "waitTime": 5339.71538698736,
            "responseTime": 1678904928267,
            "catchQuestion": "How many <b class=\"r\">red<\/b> marbles did your opponent report drawing? ",
            "catchKey": -1,
            "catchResponse": -1,
            "catchTime": 1678904902153,
            "trialTime": 0
        },
        {
            "exptPart": "trial",
            "trialNumber": 33,
            "roleCurrent": "receiver",
            "marblesSampled": 100,
            "probRed": 0.5,
            "practiceLambda": 5,
            "trialLambda": 8.1,
            "instructedLambda": "honest",
            "drawnRed": 28,
            "reportedRed": 36,
            "inferredRed": 42,
            "playerTrialScore": -14,
            "oppTrialScore": 14,
            "playerTotalScore": -453,
            "oppTotalScore": 362,
            "waitTime": 5151.325441657384,
            "responseTime": 1678904939344,
            "catchQuestion": "How many <b class=\"r\">red<\/b> marbles did your opponent report drawing? ",
            "catchKey": -1,
            "catchResponse": -1,
            "catchTime": 1678904902153,
            "trialTime": 0
        },
        {
            "exptPart": "trial",
            "trialNumber": 34,
            "roleCurrent": "receiver",
            "marblesSampled": 100,
            "probRed": 0.5,
            "practiceLambda": 5,
            "trialLambda": 8.1,
            "instructedLambda": "honest",
            "drawnRed": 52,
            "reportedRed": 60,
            "inferredRed": 55,
            "playerTrialScore": -3,
            "oppTrialScore": 3,
            "playerTotalScore": -456,
            "oppTotalScore": 365,
            "waitTime": 7372.785740931529,
            "responseTime": 1678904950016,
            "catchQuestion": "How many <b class=\"r\">red<\/b> marbles did your opponent report drawing? ",
            "catchKey": 60,
            "catchResponse": 60,
            "catchTime": 1678904950016,
            "trialTime": 0
        },
        {
            "exptPart": "trial",
            "trialNumber": 35,
            "roleCurrent": "receiver",
            "marblesSampled": 100,
            "probRed": 0.5,
            "practiceLambda": 5,
            "trialLambda": 8.1,
            "instructedLambda": "honest",
            "drawnRed": 46,
            "reportedRed": 54,
            "inferredRed": 60,
            "playerTrialScore": -14,
            "oppTrialScore": 14,
            "playerTotalScore": -470,
            "oppTotalScore": 379,
            "waitTime": 5431.520986570016,
            "responseTime": 1678904962698,
            "catchQuestion": "How many <b class=\"r\">red<\/b> marbles did your opponent report drawing? ",
            "catchKey": -1,
            "catchResponse": -1,
            "catchTime": 1678904950016,
            "trialTime": 0
        },
        {
            "exptPart": "trial",
            "trialNumber": 36,
            "roleCurrent": "receiver",
            "marblesSampled": 100,
            "probRed": 0.5,
            "practiceLambda": 5,
            "trialLambda": 8.1,
            "instructedLambda": "honest",
            "drawnRed": 21,
            "reportedRed": 31,
            "inferredRed": 52,
            "playerTrialScore": -31,
            "oppTrialScore": 31,
            "playerTotalScore": -501,
            "oppTotalScore": 410,
            "waitTime": 7451.620564152806,
            "responseTime": 1678904976659,
            "catchQuestion": "How many <b class=\"r\">red<\/b> marbles did your opponent report drawing? ",
            "catchKey": -1,
            "catchResponse": -1,
            "catchTime": 1678904950016,
            "trialTime": 0
        },
        {
            "exptPart": "trial",
            "trialNumber": 37,
            "roleCurrent": "receiver",
            "marblesSampled": 100,
            "probRed": 0.5,
            "practiceLambda": 5,
            "trialLambda": 8.1,
            "instructedLambda": "honest",
            "drawnRed": 56,
            "reportedRed": 62,
            "inferredRed": 58,
            "playerTrialScore": -2,
            "oppTrialScore": 2,
            "playerTotalScore": -503,
            "oppTotalScore": 412,
            "waitTime": 6678.671589699803,
            "responseTime": 1678904987591,
            "catchQuestion": "How many <b class=\"r\">red<\/b> marbles did your opponent report drawing? ",
            "catchKey": -1,
            "catchResponse": -1,
            "catchTime": 1678904950016,
            "trialTime": 0
        },
        {
            "exptPart": "trial",
            "trialNumber": 38,
            "roleCurrent": "receiver",
            "marblesSampled": 100,
            "probRed": 0.5,
            "practiceLambda": 5,
            "trialLambda": 8.1,
            "instructedLambda": "honest",
            "drawnRed": 60,
            "reportedRed": 68,
            "inferredRed": 62,
            "playerTrialScore": -2,
            "oppTrialScore": 2,
            "playerTotalScore": -505,
            "oppTotalScore": 414,
            "waitTime": 5826.885501619847,
            "responseTime": 1678904997291,
            "catchQuestion": "How many <b class=\"r\">red<\/b> marbles did your opponent report drawing? ",
            "catchKey": -1,
            "catchResponse": -1,
            "catchTime": 1678904950016,
            "trialTime": 0
        },
        {
            "exptPart": "trial",
            "trialNumber": 39,
            "roleCurrent": "receiver",
            "marblesSampled": 100,
            "probRed": 0.5,
            "practiceLambda": 5,
            "trialLambda": 8.1,
            "instructedLambda": "honest",
            "drawnRed": 11,
            "reportedRed": 24,
            "inferredRed": 40,
            "playerTrialScore": -29,
            "oppTrialScore": 29,
            "playerTotalScore": -534,
            "oppTotalScore": 443,
            "waitTime": 6123.411070409749,
            "responseTime": 1678905008398,
            "catchQuestion": "How many <b class=\"r\">red<\/b> marbles did your opponent report drawing? ",
            "catchKey": -1,
            "catchResponse": -1,
            "catchTime": 1678904950016,
            "trialTime": 0
        },
        {
            "exptPart": "trial",
            "trialNumber": 40,
            "roleCurrent": "receiver",
            "marblesSampled": 100,
            "probRed": 0.5,
            "practiceLambda": 5,
            "trialLambda": 8.1,
            "instructedLambda": "honest",
            "drawnRed": 41,
            "reportedRed": 49,
            "inferredRed": 50,
            "playerTrialScore": -9,
            "oppTrialScore": 9,
            "playerTotalScore": -543,
            "oppTotalScore": 452,
            "waitTime": 6192.331089076375,
            "responseTime": 1678905018439,
            "catchQuestion": "How many <b class=\"r\">red<\/b> marbles did your opponent report drawing? ",
            "catchKey": -1,
            "catchResponse": -1,
            "catchTime": 1678905018439,
            "trialTime": 0
        },
        {
            "exptPart": "trial",
            "trialNumber": 41,
            "roleCurrent": "receiver",
            "marblesSampled": 100,
            "probRed": 0.5,
            "practiceLambda": 5,
            "trialLambda": 8.1,
            "instructedLambda": "honest",
            "drawnRed": 52,
            "reportedRed": 59,
            "inferredRed": 55,
            "playerTrialScore": -3,
            "oppTrialScore": 3,
            "playerTotalScore": -546,
            "oppTotalScore": 455,
            "waitTime": 6782.253988932816,
            "responseTime": 1678905042928,
            "catchQuestion": "How many <b class=\"r\">red<\/b> marbles did your opponent report drawing? ",
            "catchKey": -1,
            "catchResponse": -1,
            "catchTime": 1678905018439,
            "trialTime": 0
        },
        {
            "exptPart": "trial",
            "trialNumber": 42,
            "roleCurrent": "receiver",
            "marblesSampled": 100,
            "probRed": 0.5,
            "practiceLambda": 5,
            "trialLambda": 8.1,
            "instructedLambda": "honest",
            "drawnRed": 41,
            "reportedRed": 50,
            "inferredRed": 45,
            "playerTrialScore": -4,
            "oppTrialScore": 4,
            "playerTotalScore": -550,
            "oppTotalScore": 459,
            "waitTime": 6284.0368498775115,
            "responseTime": 1678905053569,
            "catchQuestion": "How many <b class=\"r\">red<\/b> marbles did your opponent report drawing? ",
            "catchKey": -1,
            "catchResponse": -1,
            "catchTime": 1678905018439,
            "trialTime": 0
        },
        {
            "exptPart": "trial",
            "trialNumber": 43,
            "roleCurrent": "receiver",
            "marblesSampled": 100,
            "probRed": 0.5,
            "practiceLambda": 5,
            "trialLambda": 8.1,
            "instructedLambda": "honest",
            "drawnRed": 38,
            "reportedRed": 47,
            "inferredRed": 45,
            "playerTrialScore": -7,
            "oppTrialScore": 7,
            "playerTotalScore": -557,
            "oppTotalScore": 466,
            "waitTime": 5547.542603899854,
            "responseTime": 1678905065880,
            "catchQuestion": "How many <b class=\"r\">red<\/b> marbles did your opponent report drawing? ",
            "catchKey": -1,
            "catchResponse": -1,
            "catchTime": 1678905018439,
            "trialTime": 0
        },
        {
            "exptPart": "trial",
            "trialNumber": 44,
            "roleCurrent": "receiver",
            "marblesSampled": 100,
            "probRed": 0.5,
            "practiceLambda": 5,
            "trialLambda": 8.1,
            "instructedLambda": "honest",
            "drawnRed": 42,
            "reportedRed": 54,
            "inferredRed": 49,
            "playerTrialScore": -7,
            "oppTrialScore": 7,
            "playerTotalScore": -564,
            "oppTotalScore": 473,
            "waitTime": 5701.6247100116625,
            "responseTime": 1678905075881,
            "catchQuestion": "How many <b class=\"r\">red<\/b> marbles did your opponent report drawing? ",
            "catchKey": -1,
            "catchResponse": -1,
            "catchTime": 1678905018439,
            "trialTime": 0
        },
        {
            "exptPart": "trial",
            "trialNumber": 45,
            "roleCurrent": "receiver",
            "marblesSampled": 100,
            "probRed": 0.5,
            "practiceLambda": 5,
            "trialLambda": 8.1,
            "instructedLambda": "honest",
            "drawnRed": 54,
            "reportedRed": 60,
            "inferredRed": 55,
            "playerTrialScore": -1,
            "oppTrialScore": 1,
            "playerTotalScore": -565,
            "oppTotalScore": 474,
            "waitTime": 5888.2519975613195,
            "responseTime": 1678905086181,
            "catchQuestion": "How many <b class=\"r\">red<\/b> marbles did your opponent report drawing? ",
            "catchKey": -1,
            "catchResponse": -1,
            "catchTime": 1678905018439,
            "trialTime": 0
        },
        {
            "exptPart": "trial",
            "trialNumber": 46,
            "roleCurrent": "receiver",
            "marblesSampled": 100,
            "probRed": 0.5,
            "practiceLambda": 5,
            "trialLambda": 8.1,
            "instructedLambda": "honest",
            "drawnRed": 63,
            "reportedRed": 75,
            "inferredRed": 62,
            "playerTrialScore": -1,
            "oppTrialScore": 0,
            "playerTotalScore": -566,
            "oppTotalScore": 474,
            "waitTime": 5985.953625626357,
            "responseTime": 1678905096482,
            "catchQuestion": "How many <b class=\"r\">red<\/b> marbles did your opponent report drawing? ",
            "catchKey": -1,
            "catchResponse": -1,
            "catchTime": 1678905018439,
            "trialTime": 0
        },
        {
            "exptPart": "trial",
            "trialNumber": 47,
            "roleCurrent": "receiver",
            "marblesSampled": 100,
            "probRed": 0.5,
            "practiceLambda": 5,
            "trialLambda": 8.1,
            "instructedLambda": "honest",
            "drawnRed": 64,
            "reportedRed": 72,
            "inferredRed": 68,
            "playerTrialScore": -4,
            "oppTrialScore": 4,
            "playerTotalScore": -570,
            "oppTotalScore": 478,
            "waitTime": 5576.720572429772,
            "responseTime": 1678905109020,
            "catchQuestion": "How many <b class=\"r\">red<\/b> marbles did your opponent report drawing? ",
            "catchKey": -1,
            "catchResponse": -1,
            "catchTime": 1678905018439,
            "trialTime": 0
        },
        {
            "exptPart": "trial",
            "trialNumber": 48,
            "roleCurrent": "receiver",
            "marblesSampled": 100,
            "probRed": 0.5,
            "practiceLambda": 5,
            "trialLambda": 8.1,
            "instructedLambda": "honest",
            "drawnRed": 32,
            "reportedRed": 39,
            "inferredRed": 45,
            "playerTrialScore": -13,
            "oppTrialScore": 13,
            "playerTotalScore": -583,
            "oppTotalScore": 491,
            "waitTime": 6698.867174867305,
            "responseTime": 1678905118143,
            "catchQuestion": "How many <b class=\"r\">red<\/b> marbles did your opponent report drawing? ",
            "catchKey": -1,
            "catchResponse": -1,
            "catchTime": 1678905018439,
            "trialTime": 0
        },
        {
            "exptPart": "trial",
            "trialNumber": 49,
            "roleCurrent": "receiver",
            "marblesSampled": 100,
            "probRed": 0.5,
            "practiceLambda": 5,
            "trialLambda": 8.1,
            "instructedLambda": "honest",
            "drawnRed": 54,
            "reportedRed": 63,
            "inferredRed": 57,
            "playerTrialScore": -3,
            "oppTrialScore": 3,
            "playerTotalScore": -586,
            "oppTotalScore": 494,
            "waitTime": 6954.942286409812,
            "responseTime": 1678905129560,
            "catchQuestion": "How many <b class=\"r\">red<\/b> marbles did your opponent report drawing? ",
            "catchKey": -1,
            "catchResponse": -1,
            "catchTime": 1678905018439,
            "trialTime": 0
        },
        {
            "exptPart": "trial",
            "trialNumber": 50,
            "roleCurrent": "receiver",
            "marblesSampled": 100,
            "probRed": 0.5,
            "practiceLambda": 5,
            "trialLambda": 8.1,
            "instructedLambda": "honest",
            "drawnRed": 40,
            "reportedRed": 46,
            "inferredRed": 51,
            "playerTrialScore": -11,
            "oppTrialScore": 11,
            "playerTotalScore": -597,
            "oppTotalScore": 505,
            "waitTime": 6477.1993681123095,
            "responseTime": 1678905141556,
            "catchQuestion": "How many <b class=\"r\">red<\/b> marbles did your opponent report drawing? ",
            "catchKey": -1,
            "catchResponse": -1,
            "catchTime": 1678905141556,
            "trialTime": 0
        },
        {
            "exptPart": "trial",
            "trialNumber": 51,
            "roleCurrent": "receiver",
            "marblesSampled": 100,
            "probRed": 0.5,
            "practiceLambda": 5,
            "trialLambda": 8.1,
            "instructedLambda": "honest",
            "drawnRed": 28,
            "reportedRed": 35,
            "inferredRed": 43,
            "playerTrialScore": -15,
            "oppTrialScore": 15,
            "playerTotalScore": -612,
            "oppTotalScore": 520,
            "waitTime": 5968.263483455225,
            "responseTime": 1678905156546,
            "catchQuestion": "How many <b class=\"r\">red<\/b> marbles did your opponent report drawing? ",
            "catchKey": -1,
            "catchResponse": -1,
            "catchTime": 1678905141556,
            "trialTime": 0
        },
        {
            "exptPart": "trial",
            "trialNumber": 52,
            "roleCurrent": "receiver",
            "marblesSampled": 100,
            "probRed": 0.5,
            "practiceLambda": 5,
            "trialLambda": 8.1,
            "instructedLambda": "honest",
            "drawnRed": 43,
            "reportedRed": 49,
            "inferredRed": 47,
            "playerTrialScore": -4,
            "oppTrialScore": 4,
            "playerTotalScore": -616,
            "oppTotalScore": 524,
            "waitTime": 7229.882197743026,
            "responseTime": 1678905167594,
            "catchQuestion": "How many <b class=\"r\">red<\/b> marbles did your opponent report drawing? ",
            "catchKey": -1,
            "catchResponse": -1,
            "catchTime": 1678905141556,
            "trialTime": 0
        },
        {
            "exptPart": "trial",
            "trialNumber": 53,
            "roleCurrent": "receiver",
            "marblesSampled": 100,
            "probRed": 0.5,
            "practiceLambda": 5,
            "trialLambda": 8.1,
            "instructedLambda": "honest",
            "drawnRed": 50,
            "reportedRed": 63,
            "inferredRed": 52,
            "playerTrialScore": -2,
            "oppTrialScore": 2,
            "playerTotalScore": -618,
            "oppTotalScore": 526,
            "waitTime": 5394.7425908897385,
            "responseTime": 1678905181491,
            "catchQuestion": "How many <b class=\"r\">red<\/b> marbles did your opponent report drawing? ",
            "catchKey": -1,
            "catchResponse": -1,
            "catchTime": 1678905141556,
            "trialTime": 0
        },
        {
            "exptPart": "trial",
            "trialNumber": 54,
            "roleCurrent": "receiver",
            "marblesSampled": 100,
            "probRed": 0.5,
            "practiceLambda": 5,
            "trialLambda": 8.1,
            "instructedLambda": "honest",
            "drawnRed": 13,
            "reportedRed": 19,
            "inferredRed": 35,
            "playerTrialScore": -22,
            "oppTrialScore": 22,
            "playerTotalScore": -640,
            "oppTotalScore": 548,
            "waitTime": 6185.775606484669,
            "responseTime": 1678905194228,
            "catchQuestion": "How many <b class=\"r\">red<\/b> marbles did your opponent report drawing? ",
            "catchKey": -1,
            "catchResponse": -1,
            "catchTime": 1678905141556,
            "trialTime": 0
        },
        {
            "exptPart": "trial",
            "trialNumber": 55,
            "roleCurrent": "receiver",
            "marblesSampled": 100,
            "probRed": 0.5,
            "practiceLambda": 5,
            "trialLambda": 8.1,
            "instructedLambda": "honest",
            "drawnRed": 56,
            "reportedRed": 62,
            "inferredRed": 64,
            "playerTrialScore": -8,
            "oppTrialScore": 8,
            "playerTotalScore": -648,
            "oppTotalScore": 556,
            "waitTime": 6887.584968624407,
            "responseTime": 1678905206265,
            "catchQuestion": "How many <b class=\"r\">red<\/b> marbles did your opponent report drawing? ",
            "catchKey": -1,
            "catchResponse": -1,
            "catchTime": 1678905141556,
            "trialTime": 0
        },
        {
            "exptPart": "trial",
            "trialNumber": 56,
            "roleCurrent": "receiver",
            "marblesSampled": 100,
            "probRed": 0.5,
            "practiceLambda": 5,
            "trialLambda": 8.1,
            "instructedLambda": "honest",
            "drawnRed": 42,
            "reportedRed": 47,
            "inferredRed": 53,
            "playerTrialScore": -11,
            "oppTrialScore": 11,
            "playerTotalScore": -659,
            "oppTotalScore": 567,
            "waitTime": 5351.880114968222,
            "responseTime": 1678905214919,
            "catchQuestion": "How many <b class=\"r\">red<\/b> marbles did your opponent report drawing? ",
            "catchKey": -1,
            "catchResponse": -1,
            "catchTime": 1678905141556,
            "trialTime": 0
        },
        {
            "exptPart": "trial",
            "trialNumber": 57,
            "roleCurrent": "receiver",
            "marblesSampled": 100,
            "probRed": 0.5,
            "practiceLambda": 5,
            "trialLambda": 8.1,
            "instructedLambda": "honest",
            "drawnRed": 78,
            "reportedRed": 89,
            "inferredRed": 72,
            "playerTrialScore": -6,
            "oppTrialScore": 0,
            "playerTotalScore": -665,
            "oppTotalScore": 567,
            "waitTime": 7367.120670595569,
            "responseTime": 1678905227070,
            "catchQuestion": "How many <b class=\"r\">red<\/b> marbles did your opponent report drawing? ",
            "catchKey": -1,
            "catchResponse": -1,
            "catchTime": 1678905141556,
            "trialTime": 0
        },
        {
            "exptPart": "trial",
            "trialNumber": 58,
            "roleCurrent": "receiver",
            "marblesSampled": 100,
            "probRed": 0.5,
            "practiceLambda": 5,
            "trialLambda": 8.1,
            "instructedLambda": "honest",
            "drawnRed": 37,
            "reportedRed": 45,
            "inferredRed": 50,
            "playerTrialScore": -13,
            "oppTrialScore": 13,
            "playerTotalScore": -678,
            "oppTotalScore": 580,
            "waitTime": 6291.849475810602,
            "responseTime": 1678905238382,
            "catchQuestion": "How many <b class=\"r\">red<\/b> marbles did your opponent report drawing? ",
            "catchKey": -1,
            "catchResponse": -1,
            "catchTime": 1678905141556,
            "trialTime": 0
        },
        {
            "exptPart": "trial",
            "trialNumber": 59,
            "roleCurrent": "receiver",
            "marblesSampled": 100,
            "probRed": 0.5,
            "practiceLambda": 5,
            "trialLambda": 8.1,
            "instructedLambda": "honest",
            "drawnRed": 70,
            "reportedRed": 77,
            "inferredRed": 67,
            "playerTrialScore": -3,
            "oppTrialScore": 0,
            "playerTotalScore": -681,
            "oppTotalScore": 580,
            "waitTime": 5576.483100683194,
            "responseTime": 1678905247637,
            "catchQuestion": "How many <b class=\"r\">red<\/b> marbles did your opponent report drawing? ",
            "catchKey": -1,
            "catchResponse": -1,
            "catchTime": 1678905141556,
            "trialTime": 0
        },
        {
            "exptPart": "trial",
            "trialNumber": 60,
            "roleCurrent": "receiver",
            "marblesSampled": 100,
            "probRed": 0.5,
            "practiceLambda": 5,
            "trialLambda": 8.1,
            "instructedLambda": "honest",
            "drawnRed": 68,
            "reportedRed": 80,
            "inferredRed": 70,
            "playerTrialScore": -2,
            "oppTrialScore": 2,
            "playerTotalScore": -683,
            "oppTotalScore": 582,
            "waitTime": 7379.324262627051,
            "responseTime": 1678905261500,
            "catchQuestion": "How many <b class=\"r\">red<\/b> marbles did your opponent report drawing? ",
            "catchKey": 80,
            "catchResponse": 80,
            "catchTime": 1678905261500,
            "trialTime": 0
        },
        {
            "exptPart": "trial",
            "trialNumber": 61,
            "roleCurrent": "receiver",
            "marblesSampled": 100,
            "probRed": 0.5,
            "practiceLambda": 5,
            "trialLambda": 8.1,
            "instructedLambda": "honest",
            "drawnRed": 50,
            "reportedRed": 56,
            "inferredRed": 50,
            "playerTrialScore": 0,
            "oppTrialScore": 0,
            "playerTotalScore": -683,
            "oppTotalScore": 582,
            "waitTime": 6231.115297022179,
            "responseTime": 1678905278796,
            "catchQuestion": "How many <b class=\"r\">red<\/b> marbles did your opponent report drawing? ",
            "catchKey": -1,
            "catchResponse": -1,
            "catchTime": 1678905261500,
            "trialTime": 0
        },
        {
            "exptPart": "trial",
            "trialNumber": 62,
            "roleCurrent": "receiver",
            "marblesSampled": 100,
            "probRed": 0.5,
            "practiceLambda": 5,
            "trialLambda": 8.1,
            "instructedLambda": "honest",
            "drawnRed": 59,
            "reportedRed": 68,
            "inferredRed": 53,
            "playerTrialScore": -6,
            "oppTrialScore": 0,
            "playerTotalScore": -689,
            "oppTotalScore": 582,
            "waitTime": 6113.741871911445,
            "responseTime": 1678905288658,
            "catchQuestion": "How many <b class=\"r\">red<\/b> marbles did your opponent report drawing? ",
            "catchKey": -1,
            "catchResponse": -1,
            "catchTime": 1678905261500,
            "trialTime": 0
        },
        {
            "exptPart": "trial",
            "trialNumber": 63,
            "roleCurrent": "receiver",
            "marblesSampled": 100,
            "probRed": 0.5,
            "practiceLambda": 5,
            "trialLambda": 8.1,
            "instructedLambda": "honest",
            "drawnRed": 20,
            "reportedRed": 27,
            "inferredRed": 46,
            "playerTrialScore": -26,
            "oppTrialScore": 26,
            "playerTotalScore": -715,
            "oppTotalScore": 608,
            "waitTime": 5297.841496357439,
            "responseTime": 1678905295920,
            "catchQuestion": "How many <b class=\"r\">red<\/b> marbles did your opponent report drawing? ",
            "catchKey": -1,
            "catchResponse": -1,
            "catchTime": 1678905261500,
            "trialTime": 0
        },
        {
            "exptPart": "trial",
            "trialNumber": 64,
            "roleCurrent": "receiver",
            "marblesSampled": 100,
            "probRed": 0.5,
            "practiceLambda": 5,
            "trialLambda": 8.1,
            "instructedLambda": "honest",
            "drawnRed": 48,
            "reportedRed": 55,
            "inferredRed": 48,
            "playerTrialScore": 0,
            "oppTrialScore": 0,
            "playerTotalScore": -715,
            "oppTotalScore": 608,
            "waitTime": 6479.357795048712,
            "responseTime": 1678905306349,
            "catchQuestion": "How many <b class=\"r\">red<\/b> marbles did your opponent report drawing? ",
            "catchKey": -1,
            "catchResponse": -1,
            "catchTime": 1678905261500,
            "trialTime": 0
        },
        {
            "exptPart": "trial",
            "trialNumber": 65,
            "roleCurrent": "receiver",
            "marblesSampled": 100,
            "probRed": 0.5,
            "practiceLambda": 5,
            "trialLambda": 8.1,
            "instructedLambda": "honest",
            "drawnRed": 36,
            "reportedRed": 48,
            "inferredRed": 52,
            "playerTrialScore": -16,
            "oppTrialScore": 16,
            "playerTotalScore": -731,
            "oppTotalScore": 624,
            "waitTime": 7100.72770655527,
            "responseTime": 1678905318223,
            "catchQuestion": "How many <b class=\"r\">red<\/b> marbles did your opponent report drawing? ",
            "catchKey": -1,
            "catchResponse": -1,
            "catchTime": 1678905261500,
            "trialTime": 0
        },
        {
            "exptPart": "trial",
            "trialNumber": 66,
            "roleCurrent": "receiver",
            "marblesSampled": 100,
            "probRed": 0.5,
            "practiceLambda": 5,
            "trialLambda": 8.1,
            "instructedLambda": "honest",
            "drawnRed": 46,
            "reportedRed": 56,
            "inferredRed": 53,
            "playerTrialScore": -7,
            "oppTrialScore": 7,
            "playerTotalScore": -738,
            "oppTotalScore": 631,
            "waitTime": 7180.5052300233165,
            "responseTime": 1678905329652,
            "catchQuestion": "How many <b class=\"r\">red<\/b> marbles did your opponent report drawing? ",
            "catchKey": -1,
            "catchResponse": -1,
            "catchTime": 1678905261500,
            "trialTime": 0
        },
        {
            "exptPart": "trial",
            "trialNumber": 67,
            "roleCurrent": "receiver",
            "marblesSampled": 100,
            "probRed": 0.5,
            "practiceLambda": 5,
            "trialLambda": 8.1,
            "instructedLambda": "honest",
            "drawnRed": 34,
            "reportedRed": 36,
            "inferredRed": 44,
            "playerTrialScore": -10,
            "oppTrialScore": 10,
            "playerTotalScore": -748,
            "oppTotalScore": 641,
            "waitTime": 7395.913686328199,
            "responseTime": 1678905341419,
            "catchQuestion": "How many <b class=\"r\">red<\/b> marbles did your opponent report drawing? ",
            "catchKey": -1,
            "catchResponse": -1,
            "catchTime": 1678905261500,
            "trialTime": 0
        },
        {
            "exptPart": "trial",
            "trialNumber": 68,
            "roleCurrent": "receiver",
            "marblesSampled": 100,
            "probRed": 0.5,
            "practiceLambda": 5,
            "trialLambda": 8.1,
            "instructedLambda": "honest",
            "drawnRed": 44,
            "reportedRed": 49,
            "inferredRed": 60,
            "playerTrialScore": -16,
            "oppTrialScore": 16,
            "playerTotalScore": -764,
            "oppTotalScore": 657,
            "waitTime": 7059.007541980819,
            "responseTime": 1678905355111,
            "catchQuestion": "How many <b class=\"r\">red<\/b> marbles did your opponent report drawing? ",
            "catchKey": -1,
            "catchResponse": -1,
            "catchTime": 1678905261500,
            "trialTime": 0
        },
        {
            "exptPart": "trial",
            "trialNumber": 69,
            "roleCurrent": "receiver",
            "marblesSampled": 100,
            "probRed": 0.5,
            "practiceLambda": 5,
            "trialLambda": 8.1,
            "instructedLambda": "honest",
            "drawnRed": 34,
            "reportedRed": 41,
            "inferredRed": 53,
            "playerTrialScore": -19,
            "oppTrialScore": 19,
            "playerTotalScore": -783,
            "oppTotalScore": 676,
            "waitTime": 5596.787041016809,
            "responseTime": 1678905369114,
            "catchQuestion": "How many <b class=\"r\">red<\/b> marbles did your opponent report drawing? ",
            "catchKey": -1,
            "catchResponse": -1,
            "catchTime": 1678905261500,
            "trialTime": 0
        },
        {
            "exptPart": "trial",
            "trialNumber": 70,
            "roleCurrent": "receiver",
            "marblesSampled": 100,
            "probRed": 0.5,
            "practiceLambda": 5,
            "trialLambda": 8.1,
            "instructedLambda": "honest",
            "drawnRed": 78,
            "reportedRed": 86,
            "inferredRed": 72,
            "playerTrialScore": -6,
            "oppTrialScore": 0,
            "playerTotalScore": -789,
            "oppTotalScore": 676,
            "waitTime": 6594.452414803327,
            "responseTime": 1678905379888,
            "catchQuestion": "How many <b class=\"r\">red<\/b> marbles did your opponent report drawing? ",
            "catchKey": 86,
            "catchResponse": 86,
            "catchTime": 1678905379888,
            "trialTime": 0
        },
        {
            "exptPart": "trial",
            "trialNumber": 71,
            "roleCurrent": "receiver",
            "marblesSampled": 100,
            "probRed": 0.5,
            "practiceLambda": 5,
            "trialLambda": 8.1,
            "instructedLambda": "honest",
            "drawnRed": 53,
            "reportedRed": 65,
            "inferredRed": 55,
            "playerTrialScore": -2,
            "oppTrialScore": 2,
            "playerTotalScore": -791,
            "oppTotalScore": 678,
            "waitTime": 5542.815598354727,
            "responseTime": 1678905403796,
            "catchQuestion": "How many <b class=\"r\">red<\/b> marbles did your opponent report drawing? ",
            "catchKey": -1,
            "catchResponse": -1,
            "catchTime": 1678905379888,
            "trialTime": 0
        },
        {
            "exptPart": "trial",
            "trialNumber": 72,
            "roleCurrent": "receiver",
            "marblesSampled": 100,
            "probRed": 0.5,
            "practiceLambda": 5,
            "trialLambda": 8.1,
            "instructedLambda": "honest",
            "drawnRed": 38,
            "reportedRed": 47,
            "inferredRed": 43,
            "playerTrialScore": -5,
            "oppTrialScore": 5,
            "playerTotalScore": -796,
            "oppTotalScore": 683,
            "waitTime": 6071.982537690202,
            "responseTime": 1678905415375,
            "catchQuestion": "How many <b class=\"r\">red<\/b> marbles did your opponent report drawing? ",
            "catchKey": -1,
            "catchResponse": -1,
            "catchTime": 1678905379888,
            "trialTime": 0
        },
        {
            "exptPart": "trial",
            "trialNumber": 73,
            "roleCurrent": "receiver",
            "marblesSampled": 100,
            "probRed": 0.5,
            "practiceLambda": 5,
            "trialLambda": 8.1,
            "instructedLambda": "honest",
            "drawnRed": 38,
            "reportedRed": 43,
            "inferredRed": 51,
            "playerTrialScore": -13,
            "oppTrialScore": 13,
            "playerTotalScore": -809,
            "oppTotalScore": 696,
            "waitTime": 7152.057934366526,
            "responseTime": 1678905428435,
            "catchQuestion": "How many <b class=\"r\">red<\/b> marbles did your opponent report drawing? ",
            "catchKey": -1,
            "catchResponse": -1,
            "catchTime": 1678905379888,
            "trialTime": 0
        },
        {
            "exptPart": "trial",
            "trialNumber": 74,
            "roleCurrent": "receiver",
            "marblesSampled": 100,
            "probRed": 0.5,
            "practiceLambda": 5,
            "trialLambda": 8.1,
            "instructedLambda": "honest",
            "drawnRed": 52,
            "reportedRed": 59,
            "inferredRed": 55,
            "playerTrialScore": -3,
            "oppTrialScore": 3,
            "playerTotalScore": -812,
            "oppTotalScore": 699,
            "waitTime": 5286.110154069649,
            "responseTime": 1678905436858,
            "catchQuestion": "How many <b class=\"r\">red<\/b> marbles did your opponent report drawing? ",
            "catchKey": -1,
            "catchResponse": -1,
            "catchTime": 1678905379888,
            "trialTime": 0
        },
        {
            "exptPart": "trial",
            "trialNumber": 75,
            "roleCurrent": "receiver",
            "marblesSampled": 100,
            "probRed": 0.5,
            "practiceLambda": 5,
            "trialLambda": 8.1,
            "instructedLambda": "honest",
            "drawnRed": 27,
            "reportedRed": 36,
            "inferredRed": 40,
            "playerTrialScore": -13,
            "oppTrialScore": 13,
            "playerTotalScore": -825,
            "oppTotalScore": 712,
            "waitTime": 5211.79322773551,
            "responseTime": 1678905449253,
            "catchQuestion": "How many <b class=\"r\">red<\/b> marbles did your opponent report drawing? ",
            "catchKey": -1,
            "catchResponse": -1,
            "catchTime": 1678905379888,
            "trialTime": 0
        },
        {
            "exptPart": "trial",
            "trialNumber": 76,
            "roleCurrent": "receiver",
            "marblesSampled": 100,
            "probRed": 0.5,
            "practiceLambda": 5,
            "trialLambda": 8.1,
            "instructedLambda": "honest",
            "drawnRed": 72,
            "reportedRed": 81,
            "inferredRed": 70,
            "playerTrialScore": -2,
            "oppTrialScore": 0,
            "playerTotalScore": -827,
            "oppTotalScore": 712,
            "waitTime": 6003.170677654085,
            "responseTime": 1678905462188,
            "catchQuestion": "How many <b class=\"r\">red<\/b> marbles did your opponent report drawing? ",
            "catchKey": -1,
            "catchResponse": -1,
            "catchTime": 1678905379888,
            "trialTime": 0
        },
        {
            "exptPart": "trial",
            "trialNumber": 77,
            "roleCurrent": "receiver",
            "marblesSampled": 100,
            "probRed": 0.5,
            "practiceLambda": 5,
            "trialLambda": 8.1,
            "instructedLambda": "honest",
            "drawnRed": 74,
            "reportedRed": 79,
            "inferredRed": 65,
            "playerTrialScore": -9,
            "oppTrialScore": 0,
            "playerTotalScore": -836,
            "oppTotalScore": 712,
            "waitTime": 6278.628798488533,
            "responseTime": 1678905473301,
            "catchQuestion": "How many <b class=\"r\">red<\/b> marbles did your opponent report drawing? ",
            "catchKey": -1,
            "catchResponse": -1,
            "catchTime": 1678905379888,
            "trialTime": 0
        },
        {
            "exptPart": "trial",
            "trialNumber": 78,
            "roleCurrent": "receiver",
            "marblesSampled": 100,
            "probRed": 0.5,
            "practiceLambda": 5,
            "trialLambda": 8.1,
            "instructedLambda": "honest",
            "drawnRed": 89,
            "reportedRed": 95,
            "inferredRed": 71,
            "playerTrialScore": -18,
            "oppTrialScore": 0,
            "playerTotalScore": -854,
            "oppTotalScore": 712,
            "waitTime": 5323.862865726862,
            "responseTime": 1678905486102,
            "catchQuestion": "How many <b class=\"r\">red<\/b> marbles did your opponent report drawing? ",
            "catchKey": 95,
            "catchResponse": 95,
            "catchTime": 1678905486102,
            "trialTime": 0
        },
        {
            "exptPart": "trial",
            "trialNumber": 79,
            "roleCurrent": "receiver",
            "marblesSampled": 100,
            "probRed": 0.5,
            "practiceLambda": 5,
            "trialLambda": 8.1,
            "instructedLambda": "honest",
            "drawnRed": 80,
            "reportedRed": 87,
            "inferredRed": 75,
            "playerTrialScore": -5,
            "oppTrialScore": 0,
            "playerTotalScore": -859,
            "oppTotalScore": 712,
            "waitTime": 5471.732459962588,
            "responseTime": 1678905498802,
            "catchQuestion": "How many <b class=\"r\">red<\/b> marbles did your opponent report drawing? ",
            "catchKey": 87,
            "catchResponse": 87,
            "catchTime": 1678905498802,
            "trialTime": 0
        },
        {
            "exptPart": "trial",
            "trialNumber": 80,
            "roleCurrent": "receiver",
            "marblesSampled": 100,
            "probRed": 0.5,
            "practiceLambda": 5,
            "trialLambda": 8.1,
            "instructedLambda": "honest",
            "drawnRed": 56,
            "reportedRed": 63,
            "inferredRed": 60,
            "playerTrialScore": -4,
            "oppTrialScore": 4,
            "playerTotalScore": -863,
            "oppTotalScore": 716,
            "waitTime": 5851.896629232297,
            "responseTime": 1678905513174,
            "catchQuestion": "How many <b class=\"r\">red<\/b> marbles did your opponent report drawing? ",
            "catchKey": -1,
            "catchResponse": -1,
            "catchTime": 1678905513174,
            "trialTime": 0
        },
        {
            "exptPart": "trial",
            "trialNumber": 81,
            "roleCurrent": "receiver",
            "marblesSampled": 100,
            "probRed": 0.5,
            "practiceLambda": 5,
            "trialLambda": 8.1,
            "instructedLambda": "honest",
            "drawnRed": 22,
            "reportedRed": 29,
            "inferredRed": 45,
            "playerTrialScore": -23,
            "oppTrialScore": 23,
            "playerTotalScore": -886,
            "oppTotalScore": 739,
            "waitTime": 6180.106762389421,
            "responseTime": 1678905524751,
            "catchQuestion": "How many <b class=\"r\">red<\/b> marbles did your opponent report drawing? ",
            "catchKey": -1,
            "catchResponse": -1,
            "catchTime": 1678905513174,
            "trialTime": 0
        },
        {
            "exptPart": "trial",
            "trialNumber": 82,
            "roleCurrent": "receiver",
            "marblesSampled": 100,
            "probRed": 0.5,
            "practiceLambda": 5,
            "trialLambda": 8.1,
            "instructedLambda": "honest",
            "drawnRed": 66,
            "reportedRed": 79,
            "inferredRed": 63,
            "playerTrialScore": -3,
            "oppTrialScore": 0,
            "playerTotalScore": -889,
            "oppTotalScore": 739,
            "waitTime": 5919.03129127404,
            "responseTime": 1678905538072,
            "catchQuestion": "How many <b class=\"r\">red<\/b> marbles did your opponent report drawing? ",
            "catchKey": -1,
            "catchResponse": -1,
            "catchTime": 1678905513174,
            "trialTime": 0
        },
        {
            "exptPart": "trial",
            "trialNumber": 83,
            "roleCurrent": "receiver",
            "marblesSampled": 100,
            "probRed": 0.5,
            "practiceLambda": 5,
            "trialLambda": 8.1,
            "instructedLambda": "honest",
            "drawnRed": 24,
            "reportedRed": 37,
            "inferredRed": 45,
            "playerTrialScore": -21,
            "oppTrialScore": 21,
            "playerTotalScore": -910,
            "oppTotalScore": 760,
            "waitTime": 6279.303629328731,
            "responseTime": 1678905548139,
            "catchQuestion": "How many <b class=\"r\">red<\/b> marbles did your opponent report drawing? ",
            "catchKey": -1,
            "catchResponse": -1,
            "catchTime": 1678905513174,
            "trialTime": 0
        },
        {
            "exptPart": "trial",
            "trialNumber": 84,
            "roleCurrent": "receiver",
            "marblesSampled": 100,
            "probRed": 0.5,
            "practiceLambda": 5,
            "trialLambda": 8.1,
            "instructedLambda": "honest",
            "drawnRed": 25,
            "reportedRed": 35,
            "inferredRed": 50,
            "playerTrialScore": -25,
            "oppTrialScore": 25,
            "playerTotalScore": -935,
            "oppTotalScore": 785,
            "waitTime": 7029.031789660743,
            "responseTime": 1678905559471,
            "catchQuestion": "How many <b class=\"r\">red<\/b> marbles did your opponent report drawing? ",
            "catchKey": -1,
            "catchResponse": -1,
            "catchTime": 1678905513174,
            "trialTime": 0
        },
        {
            "exptPart": "trial",
            "trialNumber": 85,
            "roleCurrent": "receiver",
            "marblesSampled": 100,
            "probRed": 0.5,
            "practiceLambda": 5,
            "trialLambda": 8.1,
            "instructedLambda": "honest",
            "drawnRed": 64,
            "reportedRed": 71,
            "inferredRed": 62,
            "playerTrialScore": -2,
            "oppTrialScore": 0,
            "playerTotalScore": -937,
            "oppTotalScore": 785,
            "waitTime": 6083.784843714995,
            "responseTime": 1678905571792,
            "catchQuestion": "How many <b class=\"r\">red<\/b> marbles did your opponent report drawing? ",
            "catchKey": -1,
            "catchResponse": -1,
            "catchTime": 1678905513174,
            "trialTime": 0
        },
        {
            "exptPart": "trial",
            "trialNumber": 86,
            "roleCurrent": "receiver",
            "marblesSampled": 100,
            "probRed": 0.5,
            "practiceLambda": 5,
            "trialLambda": 8.1,
            "instructedLambda": "honest",
            "drawnRed": 60,
            "reportedRed": 69,
            "inferredRed": 55,
            "playerTrialScore": -5,
            "oppTrialScore": 0,
            "playerTotalScore": -942,
            "oppTotalScore": 785,
            "waitTime": 5933.197506508921,
            "responseTime": 1678905589602,
            "catchQuestion": "How many <b class=\"r\">red<\/b> marbles did your opponent report drawing? ",
            "catchKey": -1,
            "catchResponse": -1,
            "catchTime": 1678905513174,
            "trialTime": 0
        },
        {
            "exptPart": "trial",
            "trialNumber": 87,
            "roleCurrent": "receiver",
            "marblesSampled": 100,
            "probRed": 0.5,
            "practiceLambda": 5,
            "trialLambda": 8.1,
            "instructedLambda": "honest",
            "drawnRed": 29,
            "reportedRed": 37,
            "inferredRed": 40,
            "playerTrialScore": -11,
            "oppTrialScore": 11,
            "playerTotalScore": -953,
            "oppTotalScore": 796,
            "waitTime": 5629.277069284615,
            "responseTime": 1678905598694,
            "catchQuestion": "How many <b class=\"r\">red<\/b> marbles did your opponent report drawing? ",
            "catchKey": -1,
            "catchResponse": -1,
            "catchTime": 1678905513174,
            "trialTime": 0
        },
        {
            "exptPart": "trial",
            "trialNumber": 88,
            "roleCurrent": "receiver",
            "marblesSampled": 100,
            "probRed": 0.5,
            "practiceLambda": 5,
            "trialLambda": 8.1,
            "instructedLambda": "honest",
            "drawnRed": 48,
            "reportedRed": 58,
            "inferredRed": 55,
            "playerTrialScore": -7,
            "oppTrialScore": 7,
            "playerTotalScore": -960,
            "oppTotalScore": 803,
            "waitTime": 5984.810931346423,
            "responseTime": 1678905608157,
            "catchQuestion": "How many <b class=\"r\">red<\/b> marbles did your opponent report drawing? ",
            "catchKey": -1,
            "catchResponse": -1,
            "catchTime": 1678905513174,
            "trialTime": 0
        },
        {
            "exptPart": "trial",
            "trialNumber": 89,
            "roleCurrent": "receiver",
            "marblesSampled": 100,
            "probRed": 0.5,
            "practiceLambda": 5,
            "trialLambda": 8.1,
            "instructedLambda": "honest",
            "drawnRed": 74,
            "reportedRed": 80,
            "inferredRed": 59,
            "playerTrialScore": -15,
            "oppTrialScore": 0,
            "playerTotalScore": -975,
            "oppTotalScore": 803,
            "waitTime": 7134.01939431141,
            "responseTime": 1678905623981,
            "catchQuestion": "How many <b class=\"r\">red<\/b> marbles did your opponent report drawing? ",
            "catchKey": -1,
            "catchResponse": -1,
            "catchTime": 1678905513174,
            "trialTime": 0
        },
        {
            "exptPart": "trial",
            "trialNumber": 90,
            "roleCurrent": "receiver",
            "marblesSampled": 100,
            "probRed": 0.5,
            "practiceLambda": 5,
            "trialLambda": 8.1,
            "instructedLambda": "honest",
            "drawnRed": 88,
            "reportedRed": 96,
            "inferredRed": 63,
            "playerTrialScore": -25,
            "oppTrialScore": 0,
            "playerTotalScore": -1000,
            "oppTotalScore": 803,
            "waitTime": 5227.4128862349235,
            "responseTime": 1678905635644,
            "catchQuestion": "How many <b class=\"r\">red<\/b> marbles did your opponent report drawing? ",
            "catchKey": 96,
            "catchResponse": 96,
            "catchTime": 1678905635644,
            "trialTime": 0
        },
        {
            "exptPart": "trial",
            "trialNumber": 91,
            "roleCurrent": "receiver",
            "marblesSampled": 100,
            "probRed": 0.5,
            "practiceLambda": 5,
            "trialLambda": 8.1,
            "instructedLambda": "honest",
            "drawnRed": 25,
            "reportedRed": 32,
            "inferredRed": 40,
            "playerTrialScore": -15,
            "oppTrialScore": 15,
            "playerTotalScore": -1015,
            "oppTotalScore": 818,
            "waitTime": 6132.629092682188,
            "responseTime": 1678905650195,
            "catchQuestion": "How many <b class=\"r\">red<\/b> marbles did your opponent report drawing? ",
            "catchKey": -1,
            "catchResponse": -1,
            "catchTime": 1678905635644,
            "trialTime": 0
        },
        {
            "exptPart": "trial",
            "trialNumber": 92,
            "roleCurrent": "receiver",
            "marblesSampled": 100,
            "probRed": 0.5,
            "practiceLambda": 5,
            "trialLambda": 8.1,
            "instructedLambda": "honest",
            "drawnRed": 73,
            "reportedRed": 81,
            "inferredRed": 60,
            "playerTrialScore": -13,
            "oppTrialScore": 0,
            "playerTotalScore": -1028,
            "oppTotalScore": 818,
            "waitTime": 7283.523252370182,
            "responseTime": 1678905664307,
            "catchQuestion": "How many <b class=\"r\">red<\/b> marbles did your opponent report drawing? ",
            "catchKey": -1,
            "catchResponse": -1,
            "catchTime": 1678905635644,
            "trialTime": 0
        },
        {
            "exptPart": "trial",
            "trialNumber": 93,
            "roleCurrent": "receiver",
            "marblesSampled": 100,
            "probRed": 0.5,
            "practiceLambda": 5,
            "trialLambda": 8.1,
            "instructedLambda": "honest",
            "drawnRed": 39,
            "reportedRed": 46,
            "inferredRed": 45,
            "playerTrialScore": -6,
            "oppTrialScore": 6,
            "playerTotalScore": -1034,
            "oppTotalScore": 824,
            "waitTime": 6276.074022745204,
            "responseTime": 1678905674225,
            "catchQuestion": "How many <b class=\"r\">red<\/b> marbles did your opponent report drawing? ",
            "catchKey": -1,
            "catchResponse": -1,
            "catchTime": 1678905635644,
            "trialTime": 0
        },
        {
            "exptPart": "trial",
            "trialNumber": 94,
            "roleCurrent": "receiver",
            "marblesSampled": 100,
            "probRed": 0.5,
            "practiceLambda": 5,
            "trialLambda": 8.1,
            "instructedLambda": "honest",
            "drawnRed": 53,
            "reportedRed": 58,
            "inferredRed": 55,
            "playerTrialScore": -2,
            "oppTrialScore": 2,
            "playerTotalScore": -1036,
            "oppTotalScore": 826,
            "waitTime": 5932.126130796213,
            "responseTime": 1678905683154,
            "catchQuestion": "How many <b class=\"r\">red<\/b> marbles did your opponent report drawing? ",
            "catchKey": -1,
            "catchResponse": -1,
            "catchTime": 1678905635644,
            "trialTime": 0
        },
        {
            "exptPart": "trial",
            "trialNumber": 95,
            "roleCurrent": "receiver",
            "marblesSampled": 100,
            "probRed": 0.5,
            "practiceLambda": 5,
            "trialLambda": 8.1,
            "instructedLambda": "honest",
            "drawnRed": 38,
            "reportedRed": 41,
            "inferredRed": 30,
            "playerTrialScore": -8,
            "oppTrialScore": 0,
            "playerTotalScore": -1044,
            "oppTotalScore": 826,
            "waitTime": 7478.531850064982,
            "responseTime": 1678905695687,
            "catchQuestion": "How many <b class=\"r\">red<\/b> marbles did your opponent report drawing? ",
            "catchKey": -1,
            "catchResponse": -1,
            "catchTime": 1678905635644,
            "trialTime": 0
        },
        {
            "exptPart": "trial",
            "trialNumber": 96,
            "roleCurrent": "receiver",
            "marblesSampled": 100,
            "probRed": 0.5,
            "practiceLambda": 5,
            "trialLambda": 8.1,
            "instructedLambda": "honest",
            "drawnRed": 50,
            "reportedRed": 62,
            "inferredRed": 52,
            "playerTrialScore": -2,
            "oppTrialScore": 2,
            "playerTotalScore": -1046,
            "oppTotalScore": 828,
            "waitTime": 5883.314364725609,
            "responseTime": 1678905708833,
            "catchQuestion": "How many <b class=\"r\">red<\/b> marbles did your opponent report drawing? ",
            "catchKey": -1,
            "catchResponse": -1,
            "catchTime": 1678905635644,
            "trialTime": 0
        },
        {
            "exptPart": "trial",
            "trialNumber": 97,
            "roleCurrent": "receiver",
            "marblesSampled": 100,
            "probRed": 0.5,
            "practiceLambda": 5,
            "trialLambda": 8.1,
            "instructedLambda": "honest",
            "drawnRed": 31,
            "reportedRed": 39,
            "inferredRed": 45,
            "playerTrialScore": -14,
            "oppTrialScore": 14,
            "playerTotalScore": -1060,
            "oppTotalScore": 842,
            "waitTime": 5995.258950897742,
            "responseTime": 1678905723010,
            "catchQuestion": "How many <b class=\"r\">red<\/b> marbles did your opponent report drawing? ",
            "catchKey": -1,
            "catchResponse": -1,
            "catchTime": 1678905635644,
            "trialTime": 0
        },
        {
            "exptPart": "trial",
            "trialNumber": 98,
            "roleCurrent": "receiver",
            "marblesSampled": 100,
            "probRed": 0.5,
            "practiceLambda": 5,
            "trialLambda": 8.1,
            "instructedLambda": "honest",
            "drawnRed": 37,
            "reportedRed": 43,
            "inferredRed": 50,
            "playerTrialScore": -13,
            "oppTrialScore": 13,
            "playerTotalScore": -1073,
            "oppTotalScore": 855,
            "waitTime": 5485.954490310571,
            "responseTime": 1678905735005,
            "catchQuestion": "How many <b class=\"r\">red<\/b> marbles did your opponent report drawing? ",
            "catchKey": -1,
            "catchResponse": -1,
            "catchTime": 1678905635644,
            "trialTime": 0
        },
        {
            "exptPart": "trial",
            "trialNumber": 99,
            "roleCurrent": "receiver",
            "marblesSampled": 100,
            "probRed": 0.5,
            "practiceLambda": 5,
            "trialLambda": 8.1,
            "instructedLambda": "honest",
            "drawnRed": 37,
            "reportedRed": 41,
            "inferredRed": 40,
            "playerTrialScore": -3,
            "oppTrialScore": 3,
            "playerTotalScore": -1076,
            "oppTotalScore": 858,
            "waitTime": 7245.285305121527,
            "responseTime": 1678905745889,
            "catchQuestion": "How many <b class=\"r\">red<\/b> marbles did your opponent report drawing? ",
            "catchKey": -1,
            "catchResponse": -1,
            "catchTime": 1678905635644,
            "trialTime": 0
        },
        {
            "exptPart": "trial",
            "trialNumber": 100,
            "roleCurrent": "receiver",
            "marblesSampled": 100,
            "probRed": 0.5,
            "practiceLambda": 5,
            "trialLambda": 8.1,
            "instructedLambda": "honest",
            "drawnRed": 23,
            "reportedRed": 33,
            "inferredRed": 45,
            "playerTrialScore": -22,
            "oppTrialScore": 22,
            "playerTotalScore": -1098,
            "oppTotalScore": 880,
            "waitTime": 6385.2479216364245,
            "responseTime": 1678905754577,
            "catchQuestion": "How many <b class=\"r\">red<\/b> marbles did your opponent report drawing? ",
            "catchKey": -1,
            "catchResponse": -1,
            "catchTime": 1678905754577,
            "trialTime": 0
        }
    ]
}