{
    "client": {
        "type": "sona",
        "experiment_id": 2228,
        "credit_token": "b315147ae43241ea9c65086cb510cfb7",
        "survey_code": "47257",
        "sid": "sona-47257",
        "window": {
            "width": 1385,
            "height": 698
        },
        "screen": {
            "width": 1440,
            "height": 900
        },
        "userAgent": "Mozilla\/5.0 (Macintosh; Intel Mac OS X 10_15_7) AppleWebKit\/537.36 (KHTML, like Gecko) Chrome\/109.0.0.0 Safari\/537.36",
        "score": 0,
        "bonus": 0
    },
    "expt": {
        "saveURL": "submit.simple.php",
        "trials": 100,
        "practiceTrials": 2,
        "marblesSampled": 100,
        "probRed": 0.5,
        "practiceLambdaAI": 5,
        "lambdaAI": 21.9,
        "roles": [
            "sender",
            "receiver"
        ],
        "cost": "unif",
        "goal": "over",
        "oppDishonesty": "dishonest_small",
        "catchTrials": [
            60,
            11,
            74,
            54,
            40,
            50,
            35,
            32,
            24,
            41
        ],
        "scoreTotal": {
            "player": -2610,
            "opp": 594
        },
        "sona": {
            "experiment_id": 2228,
            "credit_token": "b315147ae43241ea9c65086cb510cfb7"
        },
        "pilot": false,
        "debug": false
    },
    "trials": [
        {
            "exptPart": "practice",
            "trialNumber": 1,
            "roleCurrent": "sender",
            "marblesSampled": 100,
            "probRed": 0.5,
            "practiceLambda": 5,
            "trialLambda": 21.9,
            "instructedLambda": "dishonest_small",
            "drawnRed": 53,
            "reportedRed": 50,
            "inferredRed": 47,
            "playerTrialScore": 0,
            "oppTrialScore": -6,
            "playerTotalScore": 0,
            "oppTotalScore": -6,
            "waitTime": 2532.5167082485937,
            "responseTime": 1680808098319,
            "catchQuestion": "How many <b class=\"r\">red<\/b> marbles did you actually draw (before any changes)? ",
            "catchKey": 53,
            "catchResponse": 50,
            "catchTime": 1680808098320,
            "trialTime": 0
        },
        {
            "exptPart": "practice",
            "trialNumber": 2,
            "roleCurrent": "receiver",
            "marblesSampled": 100,
            "probRed": 0.5,
            "practiceLambda": 5,
            "trialLambda": 21.9,
            "instructedLambda": "dishonest_small",
            "drawnRed": 55,
            "reportedRed": 58,
            "inferredRed": 52,
            "playerTrialScore": -3,
            "oppTrialScore": 0,
            "playerTotalScore": -3,
            "oppTotalScore": -6,
            "waitTime": 5401.296478513037,
            "responseTime": 1680808177985,
            "catchQuestion": "How many <b class=\"r\">red<\/b> marbles did your opponent report drawing? ",
            "catchKey": 58,
            "catchResponse": 58,
            "catchTime": 1680808177985,
            "trialTime": 0
        },
        {
            "exptPart": "trial",
            "trialNumber": 1,
            "roleCurrent": "receiver",
            "marblesSampled": 100,
            "probRed": 0.5,
            "practiceLambda": 5,
            "trialLambda": 21.9,
            "instructedLambda": "dishonest_small",
            "drawnRed": 65,
            "reportedRed": 91,
            "inferredRed": 68,
            "playerTrialScore": -3,
            "oppTrialScore": 3,
            "playerTotalScore": -3,
            "oppTotalScore": 3,
            "waitTime": 6088.224901293868,
            "responseTime": 1680808258813,
            "catchQuestion": "How many <b class=\"r\">red<\/b> marbles did your opponent report drawing? ",
            "catchKey": -1,
            "catchResponse": -1,
            "catchTime": 1680808177985,
            "trialTime": 0
        },
        {
            "exptPart": "trial",
            "trialNumber": 2,
            "roleCurrent": "receiver",
            "marblesSampled": 100,
            "probRed": 0.5,
            "practiceLambda": 5,
            "trialLambda": 21.9,
            "instructedLambda": "dishonest_small",
            "drawnRed": 75,
            "reportedRed": 94,
            "inferredRed": 78,
            "playerTrialScore": -3,
            "oppTrialScore": 3,
            "playerTotalScore": -6,
            "oppTotalScore": 6,
            "waitTime": 5312.115563153029,
            "responseTime": 1680808279846,
            "catchQuestion": "How many <b class=\"r\">red<\/b> marbles did your opponent report drawing? ",
            "catchKey": -1,
            "catchResponse": -1,
            "catchTime": 1680808177985,
            "trialTime": 0
        },
        {
            "exptPart": "trial",
            "trialNumber": 3,
            "roleCurrent": "receiver",
            "marblesSampled": 100,
            "probRed": 0.5,
            "practiceLambda": 5,
            "trialLambda": 21.9,
            "instructedLambda": "dishonest_small",
            "drawnRed": 95,
            "reportedRed": 100,
            "inferredRed": 50,
            "playerTrialScore": -45,
            "oppTrialScore": 0,
            "playerTotalScore": -51,
            "oppTotalScore": 6,
            "waitTime": 6308.876343268423,
            "responseTime": 1680808291579,
            "catchQuestion": "How many <b class=\"r\">red<\/b> marbles did your opponent report drawing? ",
            "catchKey": -1,
            "catchResponse": -1,
            "catchTime": 1680808177985,
            "trialTime": 0
        },
        {
            "exptPart": "trial",
            "trialNumber": 4,
            "roleCurrent": "receiver",
            "marblesSampled": 100,
            "probRed": 0.5,
            "practiceLambda": 5,
            "trialLambda": 21.9,
            "instructedLambda": "dishonest_small",
            "drawnRed": 27,
            "reportedRed": 40,
            "inferredRed": 58,
            "playerTrialScore": -31,
            "oppTrialScore": 31,
            "playerTotalScore": -82,
            "oppTotalScore": 37,
            "waitTime": 6704.468694888292,
            "responseTime": 1680808305745,
            "catchQuestion": "How many <b class=\"r\">red<\/b> marbles did your opponent report drawing? ",
            "catchKey": -1,
            "catchResponse": -1,
            "catchTime": 1680808177985,
            "trialTime": 0
        },
        {
            "exptPart": "trial",
            "trialNumber": 5,
            "roleCurrent": "receiver",
            "marblesSampled": 100,
            "probRed": 0.5,
            "practiceLambda": 5,
            "trialLambda": 21.9,
            "instructedLambda": "dishonest_small",
            "drawnRed": 24,
            "reportedRed": 46,
            "inferredRed": 10,
            "playerTrialScore": -14,
            "oppTrialScore": 0,
            "playerTotalScore": -96,
            "oppTotalScore": 37,
            "waitTime": 7391.608634237832,
            "responseTime": 1680808322827,
            "catchQuestion": "How many <b class=\"r\">red<\/b> marbles did your opponent report drawing? ",
            "catchKey": -1,
            "catchResponse": -1,
            "catchTime": 1680808177985,
            "trialTime": 0
        },
        {
            "exptPart": "trial",
            "trialNumber": 6,
            "roleCurrent": "receiver",
            "marblesSampled": 100,
            "probRed": 0.5,
            "practiceLambda": 5,
            "trialLambda": 21.9,
            "instructedLambda": "dishonest_small",
            "drawnRed": 12,
            "reportedRed": 27,
            "inferredRed": 78,
            "playerTrialScore": -66,
            "oppTrialScore": 66,
            "playerTotalScore": -162,
            "oppTotalScore": 103,
            "waitTime": 6878.8253047873595,
            "responseTime": 1680808339660,
            "catchQuestion": "How many <b class=\"r\">red<\/b> marbles did your opponent report drawing? ",
            "catchKey": -1,
            "catchResponse": -1,
            "catchTime": 1680808177985,
            "trialTime": 0
        },
        {
            "exptPart": "trial",
            "trialNumber": 7,
            "roleCurrent": "receiver",
            "marblesSampled": 100,
            "probRed": 0.5,
            "practiceLambda": 5,
            "trialLambda": 21.9,
            "instructedLambda": "dishonest_small",
            "drawnRed": 21,
            "reportedRed": 43,
            "inferredRed": 24,
            "playerTrialScore": -3,
            "oppTrialScore": 3,
            "playerTotalScore": -165,
            "oppTotalScore": 106,
            "waitTime": 7272.4179436452205,
            "responseTime": 1680808355326,
            "catchQuestion": "How many <b class=\"r\">red<\/b> marbles did your opponent report drawing? ",
            "catchKey": -1,
            "catchResponse": -1,
            "catchTime": 1680808177985,
            "trialTime": 0
        },
        {
            "exptPart": "trial",
            "trialNumber": 8,
            "roleCurrent": "receiver",
            "marblesSampled": 100,
            "probRed": 0.5,
            "practiceLambda": 5,
            "trialLambda": 21.9,
            "instructedLambda": "dishonest_small",
            "drawnRed": 33,
            "reportedRed": 62,
            "inferredRed": 43,
            "playerTrialScore": -10,
            "oppTrialScore": 10,
            "playerTotalScore": -175,
            "oppTotalScore": 116,
            "waitTime": 5421.829216015629,
            "responseTime": 1680808364742,
            "catchQuestion": "How many <b class=\"r\">red<\/b> marbles did your opponent report drawing? ",
            "catchKey": -1,
            "catchResponse": -1,
            "catchTime": 1680808177985,
            "trialTime": 0
        },
        {
            "exptPart": "trial",
            "trialNumber": 9,
            "roleCurrent": "receiver",
            "marblesSampled": 100,
            "probRed": 0.5,
            "practiceLambda": 5,
            "trialLambda": 21.9,
            "instructedLambda": "dishonest_small",
            "drawnRed": 27,
            "reportedRed": 51,
            "inferredRed": 67,
            "playerTrialScore": -40,
            "oppTrialScore": 40,
            "playerTotalScore": -215,
            "oppTotalScore": 156,
            "waitTime": 6169.46684495308,
            "responseTime": 1680808374509,
            "catchQuestion": "How many <b class=\"r\">red<\/b> marbles did your opponent report drawing? ",
            "catchKey": -1,
            "catchResponse": -1,
            "catchTime": 1680808177985,
            "trialTime": 0
        },
        {
            "exptPart": "trial",
            "trialNumber": 10,
            "roleCurrent": "receiver",
            "marblesSampled": 100,
            "probRed": 0.5,
            "practiceLambda": 5,
            "trialLambda": 21.9,
            "instructedLambda": "dishonest_small",
            "drawnRed": 56,
            "reportedRed": 72,
            "inferredRed": 30,
            "playerTrialScore": -26,
            "oppTrialScore": 0,
            "playerTotalScore": -241,
            "oppTotalScore": 156,
            "waitTime": 7471.663612965117,
            "responseTime": 1680808386442,
            "catchQuestion": "How many <b class=\"r\">red<\/b> marbles did your opponent report drawing? ",
            "catchKey": -1,
            "catchResponse": -1,
            "catchTime": 1680808386442,
            "trialTime": 0
        },
        {
            "exptPart": "trial",
            "trialNumber": 11,
            "roleCurrent": "receiver",
            "marblesSampled": 100,
            "probRed": 0.5,
            "practiceLambda": 5,
            "trialLambda": 21.9,
            "instructedLambda": "dishonest_small",
            "drawnRed": 44,
            "reportedRed": 62,
            "inferredRed": 4,
            "playerTrialScore": -40,
            "oppTrialScore": 0,
            "playerTotalScore": -281,
            "oppTotalScore": 156,
            "waitTime": 7032.514384173059,
            "responseTime": 1680808403375,
            "catchQuestion": "How many <b class=\"r\">red<\/b> marbles did your opponent report drawing? ",
            "catchKey": -1,
            "catchResponse": -1,
            "catchTime": 1680808386442,
            "trialTime": 0
        },
        {
            "exptPart": "trial",
            "trialNumber": 12,
            "roleCurrent": "receiver",
            "marblesSampled": 100,
            "probRed": 0.5,
            "practiceLambda": 5,
            "trialLambda": 21.9,
            "instructedLambda": "dishonest_small",
            "drawnRed": 39,
            "reportedRed": 53,
            "inferredRed": 6,
            "playerTrialScore": -33,
            "oppTrialScore": 0,
            "playerTotalScore": -314,
            "oppTotalScore": 156,
            "waitTime": 5295.209248452427,
            "responseTime": 1680808412259,
            "catchQuestion": "How many <b class=\"r\">red<\/b> marbles did your opponent report drawing? ",
            "catchKey": 53,
            "catchResponse": 56,
            "catchTime": 1680808412259,
            "trialTime": 0
        },
        {
            "exptPart": "trial",
            "trialNumber": 13,
            "roleCurrent": "receiver",
            "marblesSampled": 100,
            "probRed": 0.5,
            "practiceLambda": 5,
            "trialLambda": 21.9,
            "instructedLambda": "dishonest_small",
            "drawnRed": 69,
            "reportedRed": 99,
            "inferredRed": 45,
            "playerTrialScore": -24,
            "oppTrialScore": 0,
            "playerTotalScore": -338,
            "oppTotalScore": 156,
            "waitTime": 7306.6541929864925,
            "responseTime": 1680808434307,
            "catchQuestion": "How many <b class=\"r\">red<\/b> marbles did your opponent report drawing? ",
            "catchKey": -1,
            "catchResponse": -1,
            "catchTime": 1680808412259,
            "trialTime": 0
        },
        {
            "exptPart": "trial",
            "trialNumber": 14,
            "roleCurrent": "receiver",
            "marblesSampled": 100,
            "probRed": 0.5,
            "practiceLambda": 5,
            "trialLambda": 21.9,
            "instructedLambda": "dishonest_small",
            "drawnRed": 92,
            "reportedRed": 100,
            "inferredRed": 60,
            "playerTrialScore": -32,
            "oppTrialScore": 0,
            "playerTotalScore": -370,
            "oppTotalScore": 156,
            "waitTime": 6977.7252170876145,
            "responseTime": 1680808448206,
            "catchQuestion": "How many <b class=\"r\">red<\/b> marbles did your opponent report drawing? ",
            "catchKey": -1,
            "catchResponse": -1,
            "catchTime": 1680808412259,
            "trialTime": 0
        },
        {
            "exptPart": "trial",
            "trialNumber": 15,
            "roleCurrent": "receiver",
            "marblesSampled": 100,
            "probRed": 0.5,
            "practiceLambda": 5,
            "trialLambda": 21.9,
            "instructedLambda": "dishonest_small",
            "drawnRed": 87,
            "reportedRed": 100,
            "inferredRed": 8,
            "playerTrialScore": -79,
            "oppTrialScore": 0,
            "playerTotalScore": -449,
            "oppTotalScore": 156,
            "waitTime": 5192.64172152365,
            "responseTime": 1680808460807,
            "catchQuestion": "How many <b class=\"r\">red<\/b> marbles did your opponent report drawing? ",
            "catchKey": -1,
            "catchResponse": -1,
            "catchTime": 1680808412259,
            "trialTime": 0
        },
        {
            "exptPart": "trial",
            "trialNumber": 16,
            "roleCurrent": "receiver",
            "marblesSampled": 100,
            "probRed": 0.5,
            "practiceLambda": 5,
            "trialLambda": 21.9,
            "instructedLambda": "dishonest_small",
            "drawnRed": 47,
            "reportedRed": 71,
            "inferredRed": 20,
            "playerTrialScore": -27,
            "oppTrialScore": 0,
            "playerTotalScore": -476,
            "oppTotalScore": 156,
            "waitTime": 6163.093245844906,
            "responseTime": 1680808477140,
            "catchQuestion": "How many <b class=\"r\">red<\/b> marbles did your opponent report drawing? ",
            "catchKey": -1,
            "catchResponse": -1,
            "catchTime": 1680808412259,
            "trialTime": 0
        },
        {
            "exptPart": "trial",
            "trialNumber": 17,
            "roleCurrent": "receiver",
            "marblesSampled": 100,
            "probRed": 0.5,
            "practiceLambda": 5,
            "trialLambda": 21.9,
            "instructedLambda": "dishonest_small",
            "drawnRed": 15,
            "reportedRed": 35,
            "inferredRed": 18,
            "playerTrialScore": -3,
            "oppTrialScore": 3,
            "playerTotalScore": -479,
            "oppTotalScore": 159,
            "waitTime": 6803.888780543043,
            "responseTime": 1680808490454,
            "catchQuestion": "How many <b class=\"r\">red<\/b> marbles did your opponent report drawing? ",
            "catchKey": -1,
            "catchResponse": -1,
            "catchTime": 1680808412259,
            "trialTime": 0
        },
        {
            "exptPart": "trial",
            "trialNumber": 18,
            "roleCurrent": "receiver",
            "marblesSampled": 100,
            "probRed": 0.5,
            "practiceLambda": 5,
            "trialLambda": 21.9,
            "instructedLambda": "dishonest_small",
            "drawnRed": 15,
            "reportedRed": 33,
            "inferredRed": 38,
            "playerTrialScore": -23,
            "oppTrialScore": 23,
            "playerTotalScore": -502,
            "oppTotalScore": 182,
            "waitTime": 5784.265978225649,
            "responseTime": 1680808503938,
            "catchQuestion": "How many <b class=\"r\">red<\/b> marbles did your opponent report drawing? ",
            "catchKey": -1,
            "catchResponse": -1,
            "catchTime": 1680808412259,
            "trialTime": 0
        },
        {
            "exptPart": "trial",
            "trialNumber": 19,
            "roleCurrent": "receiver",
            "marblesSampled": 100,
            "probRed": 0.5,
            "practiceLambda": 5,
            "trialLambda": 21.9,
            "instructedLambda": "dishonest_small",
            "drawnRed": 88,
            "reportedRed": 100,
            "inferredRed": 84,
            "playerTrialScore": -4,
            "oppTrialScore": 0,
            "playerTotalScore": -506,
            "oppTotalScore": 182,
            "waitTime": 5192.629555330879,
            "responseTime": 1680808517188,
            "catchQuestion": "How many <b class=\"r\">red<\/b> marbles did your opponent report drawing? ",
            "catchKey": -1,
            "catchResponse": -1,
            "catchTime": 1680808412259,
            "trialTime": 0
        },
        {
            "exptPart": "trial",
            "trialNumber": 20,
            "roleCurrent": "receiver",
            "marblesSampled": 100,
            "probRed": 0.5,
            "practiceLambda": 5,
            "trialLambda": 21.9,
            "instructedLambda": "dishonest_small",
            "drawnRed": 71,
            "reportedRed": 90,
            "inferredRed": 36,
            "playerTrialScore": -35,
            "oppTrialScore": 0,
            "playerTotalScore": -541,
            "oppTotalScore": 182,
            "waitTime": 7315.180143151668,
            "responseTime": 1680808528771,
            "catchQuestion": "How many <b class=\"r\">red<\/b> marbles did your opponent report drawing? ",
            "catchKey": -1,
            "catchResponse": -1,
            "catchTime": 1680808528771,
            "trialTime": 0
        },
        {
            "exptPart": "trial",
            "trialNumber": 21,
            "roleCurrent": "receiver",
            "marblesSampled": 100,
            "probRed": 0.5,
            "practiceLambda": 5,
            "trialLambda": 21.9,
            "instructedLambda": "dishonest_small",
            "drawnRed": 67,
            "reportedRed": 88,
            "inferredRed": 34,
            "playerTrialScore": -33,
            "oppTrialScore": 0,
            "playerTotalScore": -574,
            "oppTotalScore": 182,
            "waitTime": 5311.752256807797,
            "responseTime": 1680808539771,
            "catchQuestion": "How many <b class=\"r\">red<\/b> marbles did your opponent report drawing? ",
            "catchKey": -1,
            "catchResponse": -1,
            "catchTime": 1680808528771,
            "trialTime": 0
        },
        {
            "exptPart": "trial",
            "trialNumber": 22,
            "roleCurrent": "receiver",
            "marblesSampled": 100,
            "probRed": 0.5,
            "practiceLambda": 5,
            "trialLambda": 21.9,
            "instructedLambda": "dishonest_small",
            "drawnRed": 51,
            "reportedRed": 71,
            "inferredRed": 71,
            "playerTrialScore": -20,
            "oppTrialScore": 20,
            "playerTotalScore": -594,
            "oppTotalScore": 202,
            "waitTime": 7439.701537141473,
            "responseTime": 1680808549969,
            "catchQuestion": "How many <b class=\"r\">red<\/b> marbles did your opponent report drawing? ",
            "catchKey": -1,
            "catchResponse": -1,
            "catchTime": 1680808528771,
            "trialTime": 0
        },
        {
            "exptPart": "trial",
            "trialNumber": 23,
            "roleCurrent": "receiver",
            "marblesSampled": 100,
            "probRed": 0.5,
            "practiceLambda": 5,
            "trialLambda": 21.9,
            "instructedLambda": "dishonest_small",
            "drawnRed": 71,
            "reportedRed": 95,
            "inferredRed": 78,
            "playerTrialScore": -7,
            "oppTrialScore": 7,
            "playerTotalScore": -601,
            "oppTotalScore": 209,
            "waitTime": 5552.481029394068,
            "responseTime": 1680808565770,
            "catchQuestion": "How many <b class=\"r\">red<\/b> marbles did your opponent report drawing? ",
            "catchKey": -1,
            "catchResponse": -1,
            "catchTime": 1680808528771,
            "trialTime": 0
        },
        {
            "exptPart": "trial",
            "trialNumber": 24,
            "roleCurrent": "receiver",
            "marblesSampled": 100,
            "probRed": 0.5,
            "practiceLambda": 5,
            "trialLambda": 21.9,
            "instructedLambda": "dishonest_small",
            "drawnRed": 63,
            "reportedRed": 92,
            "inferredRed": 12,
            "playerTrialScore": -51,
            "oppTrialScore": 0,
            "playerTotalScore": -652,
            "oppTotalScore": 209,
            "waitTime": 6172.617734712374,
            "responseTime": 1680808578103,
            "catchQuestion": "How many <b class=\"r\">red<\/b> marbles did your opponent report drawing? ",
            "catchKey": -1,
            "catchResponse": -1,
            "catchTime": 1680808528771,
            "trialTime": 0
        },
        {
            "exptPart": "trial",
            "trialNumber": 25,
            "roleCurrent": "receiver",
            "marblesSampled": 100,
            "probRed": 0.5,
            "practiceLambda": 5,
            "trialLambda": 21.9,
            "instructedLambda": "dishonest_small",
            "drawnRed": 57,
            "reportedRed": 80,
            "inferredRed": 34,
            "playerTrialScore": -23,
            "oppTrialScore": 0,
            "playerTotalScore": -675,
            "oppTotalScore": 209,
            "waitTime": 5978.14381522603,
            "responseTime": 1680808589487,
            "catchQuestion": "How many <b class=\"r\">red<\/b> marbles did your opponent report drawing? ",
            "catchKey": 80,
            "catchResponse": 84,
            "catchTime": 1680808589487,
            "trialTime": 0
        },
        {
            "exptPart": "trial",
            "trialNumber": 26,
            "roleCurrent": "receiver",
            "marblesSampled": 100,
            "probRed": 0.5,
            "practiceLambda": 5,
            "trialLambda": 21.9,
            "instructedLambda": "dishonest_small",
            "drawnRed": 37,
            "reportedRed": 63,
            "inferredRed": 3,
            "playerTrialScore": -34,
            "oppTrialScore": 0,
            "playerTotalScore": -709,
            "oppTotalScore": 209,
            "waitTime": 6087.18036592204,
            "responseTime": 1680808607652,
            "catchQuestion": "How many <b class=\"r\">red<\/b> marbles did your opponent report drawing? ",
            "catchKey": -1,
            "catchResponse": -1,
            "catchTime": 1680808589487,
            "trialTime": 0
        },
        {
            "exptPart": "trial",
            "trialNumber": 27,
            "roleCurrent": "receiver",
            "marblesSampled": 100,
            "probRed": 0.5,
            "practiceLambda": 5,
            "trialLambda": 21.9,
            "instructedLambda": "dishonest_small",
            "drawnRed": 84,
            "reportedRed": 100,
            "inferredRed": 55,
            "playerTrialScore": -29,
            "oppTrialScore": 0,
            "playerTotalScore": -738,
            "oppTotalScore": 209,
            "waitTime": 7091.061508304164,
            "responseTime": 1680808618817,
            "catchQuestion": "How many <b class=\"r\">red<\/b> marbles did your opponent report drawing? ",
            "catchKey": -1,
            "catchResponse": -1,
            "catchTime": 1680808589487,
            "trialTime": 0
        },
        {
            "exptPart": "trial",
            "trialNumber": 28,
            "roleCurrent": "receiver",
            "marblesSampled": 100,
            "probRed": 0.5,
            "practiceLambda": 5,
            "trialLambda": 21.9,
            "instructedLambda": "dishonest_small",
            "drawnRed": 28,
            "reportedRed": 48,
            "inferredRed": 35,
            "playerTrialScore": -7,
            "oppTrialScore": 7,
            "playerTotalScore": -745,
            "oppTotalScore": 216,
            "waitTime": 6513.858953851157,
            "responseTime": 1680808628750,
            "catchQuestion": "How many <b class=\"r\">red<\/b> marbles did your opponent report drawing? ",
            "catchKey": -1,
            "catchResponse": -1,
            "catchTime": 1680808589487,
            "trialTime": 0
        },
        {
            "exptPart": "trial",
            "trialNumber": 29,
            "roleCurrent": "receiver",
            "marblesSampled": 100,
            "probRed": 0.5,
            "practiceLambda": 5,
            "trialLambda": 21.9,
            "instructedLambda": "dishonest_small",
            "drawnRed": 47,
            "reportedRed": 64,
            "inferredRed": 33,
            "playerTrialScore": -14,
            "oppTrialScore": 0,
            "playerTotalScore": -759,
            "oppTotalScore": 216,
            "waitTime": 6334.929453950116,
            "responseTime": 1680808638200,
            "catchQuestion": "How many <b class=\"r\">red<\/b> marbles did your opponent report drawing? ",
            "catchKey": -1,
            "catchResponse": -1,
            "catchTime": 1680808589487,
            "trialTime": 0
        },
        {
            "exptPart": "trial",
            "trialNumber": 30,
            "roleCurrent": "receiver",
            "marblesSampled": 100,
            "probRed": 0.5,
            "practiceLambda": 5,
            "trialLambda": 21.9,
            "instructedLambda": "dishonest_small",
            "drawnRed": 73,
            "reportedRed": 93,
            "inferredRed": 78,
            "playerTrialScore": -5,
            "oppTrialScore": 5,
            "playerTotalScore": -764,
            "oppTotalScore": 221,
            "waitTime": 5246.969925340107,
            "responseTime": 1680808647500,
            "catchQuestion": "How many <b class=\"r\">red<\/b> marbles did your opponent report drawing? ",
            "catchKey": -1,
            "catchResponse": -1,
            "catchTime": 1680808647500,
            "trialTime": 0
        },
        {
            "exptPart": "trial",
            "trialNumber": 31,
            "roleCurrent": "receiver",
            "marblesSampled": 100,
            "probRed": 0.5,
            "practiceLambda": 5,
            "trialLambda": 21.9,
            "instructedLambda": "dishonest_small",
            "drawnRed": 66,
            "reportedRed": 95,
            "inferredRed": 22,
            "playerTrialScore": -44,
            "oppTrialScore": 0,
            "playerTotalScore": -808,
            "oppTotalScore": 221,
            "waitTime": 7185.106908783675,
            "responseTime": 1680808659266,
            "catchQuestion": "How many <b class=\"r\">red<\/b> marbles did your opponent report drawing? ",
            "catchKey": -1,
            "catchResponse": -1,
            "catchTime": 1680808647500,
            "trialTime": 0
        },
        {
            "exptPart": "trial",
            "trialNumber": 32,
            "roleCurrent": "receiver",
            "marblesSampled": 100,
            "probRed": 0.5,
            "practiceLambda": 5,
            "trialLambda": 21.9,
            "instructedLambda": "dishonest_small",
            "drawnRed": 49,
            "reportedRed": 72,
            "inferredRed": 45,
            "playerTrialScore": -4,
            "oppTrialScore": 0,
            "playerTotalScore": -812,
            "oppTotalScore": 221,
            "waitTime": 5158.914640476946,
            "responseTime": 1680808667400,
            "catchQuestion": "How many <b class=\"r\">red<\/b> marbles did your opponent report drawing? ",
            "catchKey": -1,
            "catchResponse": -1,
            "catchTime": 1680808647500,
            "trialTime": 0
        },
        {
            "exptPart": "trial",
            "trialNumber": 33,
            "roleCurrent": "receiver",
            "marblesSampled": 100,
            "probRed": 0.5,
            "practiceLambda": 5,
            "trialLambda": 21.9,
            "instructedLambda": "dishonest_small",
            "drawnRed": 56,
            "reportedRed": 83,
            "inferredRed": 48,
            "playerTrialScore": -8,
            "oppTrialScore": 0,
            "playerTotalScore": -820,
            "oppTotalScore": 221,
            "waitTime": 7137.12297742551,
            "responseTime": 1680808678617,
            "catchQuestion": "How many <b class=\"r\">red<\/b> marbles did your opponent report drawing? ",
            "catchKey": 83,
            "catchResponse": 83,
            "catchTime": 1680808678617,
            "trialTime": 0
        },
        {
            "exptPart": "trial",
            "trialNumber": 34,
            "roleCurrent": "receiver",
            "marblesSampled": 100,
            "probRed": 0.5,
            "practiceLambda": 5,
            "trialLambda": 21.9,
            "instructedLambda": "dishonest_small",
            "drawnRed": 68,
            "reportedRed": 100,
            "inferredRed": 47,
            "playerTrialScore": -21,
            "oppTrialScore": 0,
            "playerTotalScore": -841,
            "oppTotalScore": 221,
            "waitTime": 6139.678422609024,
            "responseTime": 1680808752580,
            "catchQuestion": "How many <b class=\"r\">red<\/b> marbles did your opponent report drawing? ",
            "catchKey": -1,
            "catchResponse": -1,
            "catchTime": 1680808678617,
            "trialTime": 0
        },
        {
            "exptPart": "trial",
            "trialNumber": 35,
            "roleCurrent": "receiver",
            "marblesSampled": 100,
            "probRed": 0.5,
            "practiceLambda": 5,
            "trialLambda": 21.9,
            "instructedLambda": "dishonest_small",
            "drawnRed": 68,
            "reportedRed": 92,
            "inferredRed": 79,
            "playerTrialScore": -11,
            "oppTrialScore": 11,
            "playerTotalScore": -852,
            "oppTotalScore": 232,
            "waitTime": 6080.852995915057,
            "responseTime": 1680808860819,
            "catchQuestion": "How many <b class=\"r\">red<\/b> marbles did your opponent report drawing? ",
            "catchKey": -1,
            "catchResponse": -1,
            "catchTime": 1680808678617,
            "trialTime": 0
        },
        {
            "exptPart": "trial",
            "trialNumber": 36,
            "roleCurrent": "receiver",
            "marblesSampled": 100,
            "probRed": 0.5,
            "practiceLambda": 5,
            "trialLambda": 21.9,
            "instructedLambda": "dishonest_small",
            "drawnRed": 77,
            "reportedRed": 94,
            "inferredRed": 34,
            "playerTrialScore": -43,
            "oppTrialScore": 0,
            "playerTotalScore": -895,
            "oppTotalScore": 232,
            "waitTime": 6286.045403686931,
            "responseTime": 1680808953250,
            "catchQuestion": "How many <b class=\"r\">red<\/b> marbles did your opponent report drawing? ",
            "catchKey": 94,
            "catchResponse": 94,
            "catchTime": 1680808953250,
            "trialTime": 0
        },
        {
            "exptPart": "trial",
            "trialNumber": 37,
            "roleCurrent": "receiver",
            "marblesSampled": 100,
            "probRed": 0.5,
            "practiceLambda": 5,
            "trialLambda": 21.9,
            "instructedLambda": "dishonest_small",
            "drawnRed": 26,
            "reportedRed": 49,
            "inferredRed": 28,
            "playerTrialScore": -2,
            "oppTrialScore": 2,
            "playerTotalScore": -897,
            "oppTotalScore": 234,
            "waitTime": 7358.800181204305,
            "responseTime": 1680808970000,
            "catchQuestion": "How many <b class=\"r\">red<\/b> marbles did your opponent report drawing? ",
            "catchKey": -1,
            "catchResponse": -1,
            "catchTime": 1680808953250,
            "trialTime": 0
        },
        {
            "exptPart": "trial",
            "trialNumber": 38,
            "roleCurrent": "receiver",
            "marblesSampled": 100,
            "probRed": 0.5,
            "practiceLambda": 5,
            "trialLambda": 21.9,
            "instructedLambda": "dishonest_small",
            "drawnRed": 59,
            "reportedRed": 79,
            "inferredRed": 30,
            "playerTrialScore": -29,
            "oppTrialScore": 0,
            "playerTotalScore": -926,
            "oppTotalScore": 234,
            "waitTime": 5533.04960549438,
            "responseTime": 1680808982016,
            "catchQuestion": "How many <b class=\"r\">red<\/b> marbles did your opponent report drawing? ",
            "catchKey": -1,
            "catchResponse": -1,
            "catchTime": 1680808953250,
            "trialTime": 0
        },
        {
            "exptPart": "trial",
            "trialNumber": 39,
            "roleCurrent": "receiver",
            "marblesSampled": 100,
            "probRed": 0.5,
            "practiceLambda": 5,
            "trialLambda": 21.9,
            "instructedLambda": "dishonest_small",
            "drawnRed": 57,
            "reportedRed": 81,
            "inferredRed": 60,
            "playerTrialScore": -3,
            "oppTrialScore": 3,
            "playerTotalScore": -929,
            "oppTotalScore": 237,
            "waitTime": 5536.75274737321,
            "responseTime": 1680808991666,
            "catchQuestion": "How many <b class=\"r\">red<\/b> marbles did your opponent report drawing? ",
            "catchKey": -1,
            "catchResponse": -1,
            "catchTime": 1680808953250,
            "trialTime": 0
        },
        {
            "exptPart": "trial",
            "trialNumber": 40,
            "roleCurrent": "receiver",
            "marblesSampled": 100,
            "probRed": 0.5,
            "practiceLambda": 5,
            "trialLambda": 21.9,
            "instructedLambda": "dishonest_small",
            "drawnRed": 66,
            "reportedRed": 89,
            "inferredRed": 45,
            "playerTrialScore": -21,
            "oppTrialScore": 0,
            "playerTotalScore": -950,
            "oppTotalScore": 237,
            "waitTime": 7100.416138444634,
            "responseTime": 1680809001816,
            "catchQuestion": "How many <b class=\"r\">red<\/b> marbles did your opponent report drawing? ",
            "catchKey": -1,
            "catchResponse": -1,
            "catchTime": 1680809001816,
            "trialTime": 0
        },
        {
            "exptPart": "trial",
            "trialNumber": 41,
            "roleCurrent": "receiver",
            "marblesSampled": 100,
            "probRed": 0.5,
            "practiceLambda": 5,
            "trialLambda": 21.9,
            "instructedLambda": "dishonest_small",
            "drawnRed": 37,
            "reportedRed": 61,
            "inferredRed": 34,
            "playerTrialScore": -3,
            "oppTrialScore": 0,
            "playerTotalScore": -953,
            "oppTotalScore": 237,
            "waitTime": 5578.506540336386,
            "responseTime": 1680809011433,
            "catchQuestion": "How many <b class=\"r\">red<\/b> marbles did your opponent report drawing? ",
            "catchKey": 61,
            "catchResponse": 64,
            "catchTime": 1680809011433,
            "trialTime": 0
        },
        {
            "exptPart": "trial",
            "trialNumber": 42,
            "roleCurrent": "receiver",
            "marblesSampled": 100,
            "probRed": 0.5,
            "practiceLambda": 5,
            "trialLambda": 21.9,
            "instructedLambda": "dishonest_small",
            "drawnRed": 39,
            "reportedRed": 62,
            "inferredRed": 22,
            "playerTrialScore": -17,
            "oppTrialScore": 0,
            "playerTotalScore": -970,
            "oppTotalScore": 237,
            "waitTime": 6759.68439503966,
            "responseTime": 1680809027583,
            "catchQuestion": "How many <b class=\"r\">red<\/b> marbles did your opponent report drawing? ",
            "catchKey": 62,
            "catchResponse": 66,
            "catchTime": 1680809027583,
            "trialTime": 0
        },
        {
            "exptPart": "trial",
            "trialNumber": 43,
            "roleCurrent": "receiver",
            "marblesSampled": 100,
            "probRed": 0.5,
            "practiceLambda": 5,
            "trialLambda": 21.9,
            "instructedLambda": "dishonest_small",
            "drawnRed": 69,
            "reportedRed": 89,
            "inferredRed": 11,
            "playerTrialScore": -58,
            "oppTrialScore": 0,
            "playerTotalScore": -1028,
            "oppTotalScore": 237,
            "waitTime": 7255.912444095228,
            "responseTime": 1680809043566,
            "catchQuestion": "How many <b class=\"r\">red<\/b> marbles did your opponent report drawing? ",
            "catchKey": -1,
            "catchResponse": -1,
            "catchTime": 1680809027583,
            "trialTime": 0
        },
        {
            "exptPart": "trial",
            "trialNumber": 44,
            "roleCurrent": "receiver",
            "marblesSampled": 100,
            "probRed": 0.5,
            "practiceLambda": 5,
            "trialLambda": 21.9,
            "instructedLambda": "dishonest_small",
            "drawnRed": 70,
            "reportedRed": 88,
            "inferredRed": 44,
            "playerTrialScore": -26,
            "oppTrialScore": 0,
            "playerTotalScore": -1054,
            "oppTotalScore": 237,
            "waitTime": 5627.2584376516625,
            "responseTime": 1680809052199,
            "catchQuestion": "How many <b class=\"r\">red<\/b> marbles did your opponent report drawing? ",
            "catchKey": -1,
            "catchResponse": -1,
            "catchTime": 1680809027583,
            "trialTime": 0
        },
        {
            "exptPart": "trial",
            "trialNumber": 45,
            "roleCurrent": "receiver",
            "marblesSampled": 100,
            "probRed": 0.5,
            "practiceLambda": 5,
            "trialLambda": 21.9,
            "instructedLambda": "dishonest_small",
            "drawnRed": 51,
            "reportedRed": 69,
            "inferredRed": 69,
            "playerTrialScore": -18,
            "oppTrialScore": 18,
            "playerTotalScore": -1072,
            "oppTotalScore": 255,
            "waitTime": 6700.466966752479,
            "responseTime": 1680809061417,
            "catchQuestion": "How many <b class=\"r\">red<\/b> marbles did your opponent report drawing? ",
            "catchKey": -1,
            "catchResponse": -1,
            "catchTime": 1680809027583,
            "trialTime": 0
        },
        {
            "exptPart": "trial",
            "trialNumber": 46,
            "roleCurrent": "receiver",
            "marblesSampled": 100,
            "probRed": 0.5,
            "practiceLambda": 5,
            "trialLambda": 21.9,
            "instructedLambda": "dishonest_small",
            "drawnRed": 48,
            "reportedRed": 64,
            "inferredRed": 64,
            "playerTrialScore": -16,
            "oppTrialScore": 16,
            "playerTotalScore": -1088,
            "oppTotalScore": 271,
            "waitTime": 7230.199750229212,
            "responseTime": 1680809071883,
            "catchQuestion": "How many <b class=\"r\">red<\/b> marbles did your opponent report drawing? ",
            "catchKey": -1,
            "catchResponse": -1,
            "catchTime": 1680809027583,
            "trialTime": 0
        },
        {
            "exptPart": "trial",
            "trialNumber": 47,
            "roleCurrent": "receiver",
            "marblesSampled": 100,
            "probRed": 0.5,
            "practiceLambda": 5,
            "trialLambda": 21.9,
            "instructedLambda": "dishonest_small",
            "drawnRed": 55,
            "reportedRed": 70,
            "inferredRed": 70,
            "playerTrialScore": -15,
            "oppTrialScore": 15,
            "playerTotalScore": -1103,
            "oppTotalScore": 286,
            "waitTime": 5457.493179040728,
            "responseTime": 1680809079799,
            "catchQuestion": "How many <b class=\"r\">red<\/b> marbles did your opponent report drawing? ",
            "catchKey": -1,
            "catchResponse": -1,
            "catchTime": 1680809027583,
            "trialTime": 0
        },
        {
            "exptPart": "trial",
            "trialNumber": 48,
            "roleCurrent": "receiver",
            "marblesSampled": 100,
            "probRed": 0.5,
            "practiceLambda": 5,
            "trialLambda": 21.9,
            "instructedLambda": "dishonest_small",
            "drawnRed": 46,
            "reportedRed": 71,
            "inferredRed": 71,
            "playerTrialScore": -25,
            "oppTrialScore": 25,
            "playerTotalScore": -1128,
            "oppTotalScore": 311,
            "waitTime": 6225.981297244289,
            "responseTime": 1680809088551,
            "catchQuestion": "How many <b class=\"r\">red<\/b> marbles did your opponent report drawing? ",
            "catchKey": -1,
            "catchResponse": -1,
            "catchTime": 1680809027583,
            "trialTime": 0
        },
        {
            "exptPart": "trial",
            "trialNumber": 49,
            "roleCurrent": "receiver",
            "marblesSampled": 100,
            "probRed": 0.5,
            "practiceLambda": 5,
            "trialLambda": 21.9,
            "instructedLambda": "dishonest_small",
            "drawnRed": 4,
            "reportedRed": 35,
            "inferredRed": 57,
            "playerTrialScore": -53,
            "oppTrialScore": 53,
            "playerTotalScore": -1181,
            "oppTotalScore": 364,
            "waitTime": 6091.233941569641,
            "responseTime": 1680809099517,
            "catchQuestion": "How many <b class=\"r\">red<\/b> marbles did your opponent report drawing? ",
            "catchKey": -1,
            "catchResponse": -1,
            "catchTime": 1680809027583,
            "trialTime": 0
        },
        {
            "exptPart": "trial",
            "trialNumber": 50,
            "roleCurrent": "receiver",
            "marblesSampled": 100,
            "probRed": 0.5,
            "practiceLambda": 5,
            "trialLambda": 21.9,
            "instructedLambda": "dishonest_small",
            "drawnRed": 72,
            "reportedRed": 88,
            "inferredRed": 88,
            "playerTrialScore": -16,
            "oppTrialScore": 16,
            "playerTotalScore": -1197,
            "oppTotalScore": 380,
            "waitTime": 6400.817447014679,
            "responseTime": 1680809109082,
            "catchQuestion": "How many <b class=\"r\">red<\/b> marbles did your opponent report drawing? ",
            "catchKey": -1,
            "catchResponse": -1,
            "catchTime": 1680809109082,
            "trialTime": 0
        },
        {
            "exptPart": "trial",
            "trialNumber": 51,
            "roleCurrent": "receiver",
            "marblesSampled": 100,
            "probRed": 0.5,
            "practiceLambda": 5,
            "trialLambda": 21.9,
            "instructedLambda": "dishonest_small",
            "drawnRed": 52,
            "reportedRed": 79,
            "inferredRed": 1,
            "playerTrialScore": -51,
            "oppTrialScore": 0,
            "playerTotalScore": -1248,
            "oppTotalScore": 380,
            "waitTime": 6636.643840040315,
            "responseTime": 1680809119932,
            "catchQuestion": "How many <b class=\"r\">red<\/b> marbles did your opponent report drawing? ",
            "catchKey": 79,
            "catchResponse": 79,
            "catchTime": 1680809119933,
            "trialTime": 0
        },
        {
            "exptPart": "trial",
            "trialNumber": 52,
            "roleCurrent": "receiver",
            "marblesSampled": 100,
            "probRed": 0.5,
            "practiceLambda": 5,
            "trialLambda": 21.9,
            "instructedLambda": "dishonest_small",
            "drawnRed": 45,
            "reportedRed": 72,
            "inferredRed": 12,
            "playerTrialScore": -33,
            "oppTrialScore": 0,
            "playerTotalScore": -1281,
            "oppTotalScore": 380,
            "waitTime": 5217.893869703685,
            "responseTime": 1680809134233,
            "catchQuestion": "How many <b class=\"r\">red<\/b> marbles did your opponent report drawing? ",
            "catchKey": -1,
            "catchResponse": -1,
            "catchTime": 1680809119933,
            "trialTime": 0
        },
        {
            "exptPart": "trial",
            "trialNumber": 53,
            "roleCurrent": "receiver",
            "marblesSampled": 100,
            "probRed": 0.5,
            "practiceLambda": 5,
            "trialLambda": 21.9,
            "instructedLambda": "dishonest_small",
            "drawnRed": 69,
            "reportedRed": 90,
            "inferredRed": 33,
            "playerTrialScore": -36,
            "oppTrialScore": 0,
            "playerTotalScore": -1317,
            "oppTotalScore": 380,
            "waitTime": 7285.345010903215,
            "responseTime": 1680809144465,
            "catchQuestion": "How many <b class=\"r\">red<\/b> marbles did your opponent report drawing? ",
            "catchKey": -1,
            "catchResponse": -1,
            "catchTime": 1680809119933,
            "trialTime": 0
        },
        {
            "exptPart": "trial",
            "trialNumber": 54,
            "roleCurrent": "receiver",
            "marblesSampled": 100,
            "probRed": 0.5,
            "practiceLambda": 5,
            "trialLambda": 21.9,
            "instructedLambda": "dishonest_small",
            "drawnRed": 54,
            "reportedRed": 73,
            "inferredRed": 55,
            "playerTrialScore": -1,
            "oppTrialScore": 1,
            "playerTotalScore": -1318,
            "oppTotalScore": 381,
            "waitTime": 5396.818469059755,
            "responseTime": 1680809153382,
            "catchQuestion": "How many <b class=\"r\">red<\/b> marbles did your opponent report drawing? ",
            "catchKey": -1,
            "catchResponse": -1,
            "catchTime": 1680809119933,
            "trialTime": 0
        },
        {
            "exptPart": "trial",
            "trialNumber": 55,
            "roleCurrent": "receiver",
            "marblesSampled": 100,
            "probRed": 0.5,
            "practiceLambda": 5,
            "trialLambda": 21.9,
            "instructedLambda": "dishonest_small",
            "drawnRed": 67,
            "reportedRed": 85,
            "inferredRed": 23,
            "playerTrialScore": -44,
            "oppTrialScore": 0,
            "playerTotalScore": -1362,
            "oppTotalScore": 381,
            "waitTime": 5857.647836969716,
            "responseTime": 1680809161051,
            "catchQuestion": "How many <b class=\"r\">red<\/b> marbles did your opponent report drawing? ",
            "catchKey": 85,
            "catchResponse": 85,
            "catchTime": 1680809161051,
            "trialTime": 0
        },
        {
            "exptPart": "trial",
            "trialNumber": 56,
            "roleCurrent": "receiver",
            "marblesSampled": 100,
            "probRed": 0.5,
            "practiceLambda": 5,
            "trialLambda": 21.9,
            "instructedLambda": "dishonest_small",
            "drawnRed": 37,
            "reportedRed": 51,
            "inferredRed": 22,
            "playerTrialScore": -15,
            "oppTrialScore": 0,
            "playerTotalScore": -1377,
            "oppTotalScore": 381,
            "waitTime": 6144.881407598332,
            "responseTime": 1680809176383,
            "catchQuestion": "How many <b class=\"r\">red<\/b> marbles did your opponent report drawing? ",
            "catchKey": -1,
            "catchResponse": -1,
            "catchTime": 1680809161051,
            "trialTime": 0
        },
        {
            "exptPart": "trial",
            "trialNumber": 57,
            "roleCurrent": "receiver",
            "marblesSampled": 100,
            "probRed": 0.5,
            "practiceLambda": 5,
            "trialLambda": 21.9,
            "instructedLambda": "dishonest_small",
            "drawnRed": 31,
            "reportedRed": 49,
            "inferredRed": 14,
            "playerTrialScore": -17,
            "oppTrialScore": 0,
            "playerTotalScore": -1394,
            "oppTotalScore": 381,
            "waitTime": 6942.064655702335,
            "responseTime": 1680809186366,
            "catchQuestion": "How many <b class=\"r\">red<\/b> marbles did your opponent report drawing? ",
            "catchKey": -1,
            "catchResponse": -1,
            "catchTime": 1680809161051,
            "trialTime": 0
        },
        {
            "exptPart": "trial",
            "trialNumber": 58,
            "roleCurrent": "receiver",
            "marblesSampled": 100,
            "probRed": 0.5,
            "practiceLambda": 5,
            "trialLambda": 21.9,
            "instructedLambda": "dishonest_small",
            "drawnRed": 94,
            "reportedRed": 100,
            "inferredRed": 34,
            "playerTrialScore": -60,
            "oppTrialScore": 0,
            "playerTotalScore": -1454,
            "oppTotalScore": 381,
            "waitTime": 6452.362525310373,
            "responseTime": 1680809200100,
            "catchQuestion": "How many <b class=\"r\">red<\/b> marbles did your opponent report drawing? ",
            "catchKey": -1,
            "catchResponse": -1,
            "catchTime": 1680809161051,
            "trialTime": 0
        },
        {
            "exptPart": "trial",
            "trialNumber": 59,
            "roleCurrent": "receiver",
            "marblesSampled": 100,
            "probRed": 0.5,
            "practiceLambda": 5,
            "trialLambda": 21.9,
            "instructedLambda": "dishonest_small",
            "drawnRed": 27,
            "reportedRed": 50,
            "inferredRed": 38,
            "playerTrialScore": -11,
            "oppTrialScore": 11,
            "playerTotalScore": -1465,
            "oppTotalScore": 392,
            "waitTime": 5232.627548885992,
            "responseTime": 1680809209982,
            "catchQuestion": "How many <b class=\"r\">red<\/b> marbles did your opponent report drawing? ",
            "catchKey": -1,
            "catchResponse": -1,
            "catchTime": 1680809161051,
            "trialTime": 0
        },
        {
            "exptPart": "trial",
            "trialNumber": 60,
            "roleCurrent": "receiver",
            "marblesSampled": 100,
            "probRed": 0.5,
            "practiceLambda": 5,
            "trialLambda": 21.9,
            "instructedLambda": "dishonest_small",
            "drawnRed": 36,
            "reportedRed": 50,
            "inferredRed": 33,
            "playerTrialScore": -3,
            "oppTrialScore": 0,
            "playerTotalScore": -1468,
            "oppTotalScore": 392,
            "waitTime": 6370.35310538175,
            "responseTime": 1680809218934,
            "catchQuestion": "How many <b class=\"r\">red<\/b> marbles did your opponent report drawing? ",
            "catchKey": -1,
            "catchResponse": -1,
            "catchTime": 1680809218934,
            "trialTime": 0
        },
        {
            "exptPart": "trial",
            "trialNumber": 61,
            "roleCurrent": "receiver",
            "marblesSampled": 100,
            "probRed": 0.5,
            "practiceLambda": 5,
            "trialLambda": 21.9,
            "instructedLambda": "dishonest_small",
            "drawnRed": 41,
            "reportedRed": 65,
            "inferredRed": 56,
            "playerTrialScore": -15,
            "oppTrialScore": 15,
            "playerTotalScore": -1483,
            "oppTotalScore": 407,
            "waitTime": 6375.935467878131,
            "responseTime": 1680809231415,
            "catchQuestion": "How many <b class=\"r\">red<\/b> marbles did your opponent report drawing? ",
            "catchKey": 65,
            "catchResponse": 65,
            "catchTime": 1680809231415,
            "trialTime": 0
        },
        {
            "exptPart": "trial",
            "trialNumber": 62,
            "roleCurrent": "receiver",
            "marblesSampled": 100,
            "probRed": 0.5,
            "practiceLambda": 5,
            "trialLambda": 21.9,
            "instructedLambda": "dishonest_small",
            "drawnRed": 36,
            "reportedRed": 55,
            "inferredRed": 22,
            "playerTrialScore": -14,
            "oppTrialScore": 0,
            "playerTotalScore": -1497,
            "oppTotalScore": 407,
            "waitTime": 7281.851925607517,
            "responseTime": 1680809246350,
            "catchQuestion": "How many <b class=\"r\">red<\/b> marbles did your opponent report drawing? ",
            "catchKey": -1,
            "catchResponse": -1,
            "catchTime": 1680809231415,
            "trialTime": 0
        },
        {
            "exptPart": "trial",
            "trialNumber": 63,
            "roleCurrent": "receiver",
            "marblesSampled": 100,
            "probRed": 0.5,
            "practiceLambda": 5,
            "trialLambda": 21.9,
            "instructedLambda": "dishonest_small",
            "drawnRed": 69,
            "reportedRed": 88,
            "inferredRed": 44,
            "playerTrialScore": -25,
            "oppTrialScore": 0,
            "playerTotalScore": -1522,
            "oppTotalScore": 407,
            "waitTime": 7151.12859117653,
            "responseTime": 1680809256849,
            "catchQuestion": "How many <b class=\"r\">red<\/b> marbles did your opponent report drawing? ",
            "catchKey": -1,
            "catchResponse": -1,
            "catchTime": 1680809231415,
            "trialTime": 0
        },
        {
            "exptPart": "trial",
            "trialNumber": 64,
            "roleCurrent": "receiver",
            "marblesSampled": 100,
            "probRed": 0.5,
            "practiceLambda": 5,
            "trialLambda": 21.9,
            "instructedLambda": "dishonest_small",
            "drawnRed": 53,
            "reportedRed": 74,
            "inferredRed": 16,
            "playerTrialScore": -37,
            "oppTrialScore": 0,
            "playerTotalScore": -1559,
            "oppTotalScore": 407,
            "waitTime": 5679.316610995987,
            "responseTime": 1680809266565,
            "catchQuestion": "How many <b class=\"r\">red<\/b> marbles did your opponent report drawing? ",
            "catchKey": -1,
            "catchResponse": -1,
            "catchTime": 1680809231415,
            "trialTime": 0
        },
        {
            "exptPart": "trial",
            "trialNumber": 65,
            "roleCurrent": "receiver",
            "marblesSampled": 100,
            "probRed": 0.5,
            "practiceLambda": 5,
            "trialLambda": 21.9,
            "instructedLambda": "dishonest_small",
            "drawnRed": 63,
            "reportedRed": 96,
            "inferredRed": 28,
            "playerTrialScore": -35,
            "oppTrialScore": 0,
            "playerTotalScore": -1594,
            "oppTotalScore": 407,
            "waitTime": 6528.880111479766,
            "responseTime": 1680809279132,
            "catchQuestion": "How many <b class=\"r\">red<\/b> marbles did your opponent report drawing? ",
            "catchKey": -1,
            "catchResponse": -1,
            "catchTime": 1680809231415,
            "trialTime": 0
        },
        {
            "exptPart": "trial",
            "trialNumber": 66,
            "roleCurrent": "receiver",
            "marblesSampled": 100,
            "probRed": 0.5,
            "practiceLambda": 5,
            "trialLambda": 21.9,
            "instructedLambda": "dishonest_small",
            "drawnRed": 61,
            "reportedRed": 87,
            "inferredRed": 46,
            "playerTrialScore": -15,
            "oppTrialScore": 0,
            "playerTotalScore": -1609,
            "oppTotalScore": 407,
            "waitTime": 6175.10328427127,
            "responseTime": 1680809290232,
            "catchQuestion": "How many <b class=\"r\">red<\/b> marbles did your opponent report drawing? ",
            "catchKey": -1,
            "catchResponse": -1,
            "catchTime": 1680809231415,
            "trialTime": 0
        },
        {
            "exptPart": "trial",
            "trialNumber": 67,
            "roleCurrent": "receiver",
            "marblesSampled": 100,
            "probRed": 0.5,
            "practiceLambda": 5,
            "trialLambda": 21.9,
            "instructedLambda": "dishonest_small",
            "drawnRed": 78,
            "reportedRed": 100,
            "inferredRed": 15,
            "playerTrialScore": -63,
            "oppTrialScore": 0,
            "playerTotalScore": -1672,
            "oppTotalScore": 407,
            "waitTime": 6638.675037073208,
            "responseTime": 1680809301382,
            "catchQuestion": "How many <b class=\"r\">red<\/b> marbles did your opponent report drawing? ",
            "catchKey": -1,
            "catchResponse": -1,
            "catchTime": 1680809231415,
            "trialTime": 0
        },
        {
            "exptPart": "trial",
            "trialNumber": 68,
            "roleCurrent": "receiver",
            "marblesSampled": 100,
            "probRed": 0.5,
            "practiceLambda": 5,
            "trialLambda": 21.9,
            "instructedLambda": "dishonest_small",
            "drawnRed": 69,
            "reportedRed": 90,
            "inferredRed": 23,
            "playerTrialScore": -46,
            "oppTrialScore": 0,
            "playerTotalScore": -1718,
            "oppTotalScore": 407,
            "waitTime": 7463.876200420562,
            "responseTime": 1680809316432,
            "catchQuestion": "How many <b class=\"r\">red<\/b> marbles did your opponent report drawing? ",
            "catchKey": -1,
            "catchResponse": -1,
            "catchTime": 1680809231415,
            "trialTime": 0
        },
        {
            "exptPart": "trial",
            "trialNumber": 69,
            "roleCurrent": "receiver",
            "marblesSampled": 100,
            "probRed": 0.5,
            "practiceLambda": 5,
            "trialLambda": 21.9,
            "instructedLambda": "dishonest_small",
            "drawnRed": 49,
            "reportedRed": 77,
            "inferredRed": 47,
            "playerTrialScore": -2,
            "oppTrialScore": 0,
            "playerTotalScore": -1720,
            "oppTotalScore": 407,
            "waitTime": 6434.817601203022,
            "responseTime": 1680809326649,
            "catchQuestion": "How many <b class=\"r\">red<\/b> marbles did your opponent report drawing? ",
            "catchKey": -1,
            "catchResponse": -1,
            "catchTime": 1680809231415,
            "trialTime": 0
        },
        {
            "exptPart": "trial",
            "trialNumber": 70,
            "roleCurrent": "receiver",
            "marblesSampled": 100,
            "probRed": 0.5,
            "practiceLambda": 5,
            "trialLambda": 21.9,
            "instructedLambda": "dishonest_small",
            "drawnRed": 74,
            "reportedRed": 99,
            "inferredRed": 11,
            "playerTrialScore": -63,
            "oppTrialScore": 0,
            "playerTotalScore": -1783,
            "oppTotalScore": 407,
            "waitTime": 6396.869723765586,
            "responseTime": 1680809336399,
            "catchQuestion": "How many <b class=\"r\">red<\/b> marbles did your opponent report drawing? ",
            "catchKey": -1,
            "catchResponse": -1,
            "catchTime": 1680809336399,
            "trialTime": 0
        },
        {
            "exptPart": "trial",
            "trialNumber": 71,
            "roleCurrent": "receiver",
            "marblesSampled": 100,
            "probRed": 0.5,
            "practiceLambda": 5,
            "trialLambda": 21.9,
            "instructedLambda": "dishonest_small",
            "drawnRed": 75,
            "reportedRed": 98,
            "inferredRed": 25,
            "playerTrialScore": -50,
            "oppTrialScore": 0,
            "playerTotalScore": -1833,
            "oppTotalScore": 407,
            "waitTime": 7196.9671356189465,
            "responseTime": 1680809349950,
            "catchQuestion": "How many <b class=\"r\">red<\/b> marbles did your opponent report drawing? ",
            "catchKey": -1,
            "catchResponse": -1,
            "catchTime": 1680809336399,
            "trialTime": 0
        },
        {
            "exptPart": "trial",
            "trialNumber": 72,
            "roleCurrent": "receiver",
            "marblesSampled": 100,
            "probRed": 0.5,
            "practiceLambda": 5,
            "trialLambda": 21.9,
            "instructedLambda": "dishonest_small",
            "drawnRed": 69,
            "reportedRed": 94,
            "inferredRed": 32,
            "playerTrialScore": -37,
            "oppTrialScore": 0,
            "playerTotalScore": -1870,
            "oppTotalScore": 407,
            "waitTime": 6636.5742231922595,
            "responseTime": 1680809359715,
            "catchQuestion": "How many <b class=\"r\">red<\/b> marbles did your opponent report drawing? ",
            "catchKey": -1,
            "catchResponse": -1,
            "catchTime": 1680809336399,
            "trialTime": 0
        },
        {
            "exptPart": "trial",
            "trialNumber": 73,
            "roleCurrent": "receiver",
            "marblesSampled": 100,
            "probRed": 0.5,
            "practiceLambda": 5,
            "trialLambda": 21.9,
            "instructedLambda": "dishonest_small",
            "drawnRed": 30,
            "reportedRed": 52,
            "inferredRed": 37,
            "playerTrialScore": -7,
            "oppTrialScore": 7,
            "playerTotalScore": -1877,
            "oppTotalScore": 414,
            "waitTime": 6302.580871483885,
            "responseTime": 1680809371515,
            "catchQuestion": "How many <b class=\"r\">red<\/b> marbles did your opponent report drawing? ",
            "catchKey": -1,
            "catchResponse": -1,
            "catchTime": 1680809336399,
            "trialTime": 0
        },
        {
            "exptPart": "trial",
            "trialNumber": 74,
            "roleCurrent": "receiver",
            "marblesSampled": 100,
            "probRed": 0.5,
            "practiceLambda": 5,
            "trialLambda": 21.9,
            "instructedLambda": "dishonest_small",
            "drawnRed": 58,
            "reportedRed": 82,
            "inferredRed": 0,
            "playerTrialScore": -58,
            "oppTrialScore": 0,
            "playerTotalScore": -1935,
            "oppTotalScore": 414,
            "waitTime": 6824.756057164585,
            "responseTime": 1680809380615,
            "catchQuestion": "How many <b class=\"r\">red<\/b> marbles did your opponent report drawing? ",
            "catchKey": -1,
            "catchResponse": -1,
            "catchTime": 1680809336399,
            "trialTime": 0
        },
        {
            "exptPart": "trial",
            "trialNumber": 75,
            "roleCurrent": "receiver",
            "marblesSampled": 100,
            "probRed": 0.5,
            "practiceLambda": 5,
            "trialLambda": 21.9,
            "instructedLambda": "dishonest_small",
            "drawnRed": 37,
            "reportedRed": 62,
            "inferredRed": 31,
            "playerTrialScore": -6,
            "oppTrialScore": 0,
            "playerTotalScore": -1941,
            "oppTotalScore": 414,
            "waitTime": 6773.726126522877,
            "responseTime": 1680809393282,
            "catchQuestion": "How many <b class=\"r\">red<\/b> marbles did your opponent report drawing? ",
            "catchKey": 62,
            "catchResponse": 62,
            "catchTime": 1680809393282,
            "trialTime": 0
        },
        {
            "exptPart": "trial",
            "trialNumber": 76,
            "roleCurrent": "receiver",
            "marblesSampled": 100,
            "probRed": 0.5,
            "practiceLambda": 5,
            "trialLambda": 21.9,
            "instructedLambda": "dishonest_small",
            "drawnRed": 26,
            "reportedRed": 54,
            "inferredRed": 23,
            "playerTrialScore": -3,
            "oppTrialScore": 0,
            "playerTotalScore": -1944,
            "oppTotalScore": 414,
            "waitTime": 6052.044206937746,
            "responseTime": 1680809410965,
            "catchQuestion": "How many <b class=\"r\">red<\/b> marbles did your opponent report drawing? ",
            "catchKey": -1,
            "catchResponse": -1,
            "catchTime": 1680809393282,
            "trialTime": 0
        },
        {
            "exptPart": "trial",
            "trialNumber": 77,
            "roleCurrent": "receiver",
            "marblesSampled": 100,
            "probRed": 0.5,
            "practiceLambda": 5,
            "trialLambda": 21.9,
            "instructedLambda": "dishonest_small",
            "drawnRed": 47,
            "reportedRed": 65,
            "inferredRed": 36,
            "playerTrialScore": -11,
            "oppTrialScore": 0,
            "playerTotalScore": -1955,
            "oppTotalScore": 414,
            "waitTime": 7072.928216584257,
            "responseTime": 1680809422031,
            "catchQuestion": "How many <b class=\"r\">red<\/b> marbles did your opponent report drawing? ",
            "catchKey": -1,
            "catchResponse": -1,
            "catchTime": 1680809393282,
            "trialTime": 0
        },
        {
            "exptPart": "trial",
            "trialNumber": 78,
            "roleCurrent": "receiver",
            "marblesSampled": 100,
            "probRed": 0.5,
            "practiceLambda": 5,
            "trialLambda": 21.9,
            "instructedLambda": "dishonest_small",
            "drawnRed": 30,
            "reportedRed": 59,
            "inferredRed": 26,
            "playerTrialScore": -4,
            "oppTrialScore": 0,
            "playerTotalScore": -1959,
            "oppTotalScore": 414,
            "waitTime": 5610.762265172709,
            "responseTime": 1680809432582,
            "catchQuestion": "How many <b class=\"r\">red<\/b> marbles did your opponent report drawing? ",
            "catchKey": -1,
            "catchResponse": -1,
            "catchTime": 1680809393282,
            "trialTime": 0
        },
        {
            "exptPart": "trial",
            "trialNumber": 79,
            "roleCurrent": "receiver",
            "marblesSampled": 100,
            "probRed": 0.5,
            "practiceLambda": 5,
            "trialLambda": 21.9,
            "instructedLambda": "dishonest_small",
            "drawnRed": 69,
            "reportedRed": 97,
            "inferredRed": 22,
            "playerTrialScore": -47,
            "oppTrialScore": 0,
            "playerTotalScore": -2006,
            "oppTotalScore": 414,
            "waitTime": 5408.9714927652285,
            "responseTime": 1680809441165,
            "catchQuestion": "How many <b class=\"r\">red<\/b> marbles did your opponent report drawing? ",
            "catchKey": -1,
            "catchResponse": -1,
            "catchTime": 1680809393282,
            "trialTime": 0
        },
        {
            "exptPart": "trial",
            "trialNumber": 80,
            "roleCurrent": "receiver",
            "marblesSampled": 100,
            "probRed": 0.5,
            "practiceLambda": 5,
            "trialLambda": 21.9,
            "instructedLambda": "dishonest_small",
            "drawnRed": 52,
            "reportedRed": 70,
            "inferredRed": 77,
            "playerTrialScore": -25,
            "oppTrialScore": 25,
            "playerTotalScore": -2031,
            "oppTotalScore": 439,
            "waitTime": 6036.610121841185,
            "responseTime": 1680809451865,
            "catchQuestion": "How many <b class=\"r\">red<\/b> marbles did your opponent report drawing? ",
            "catchKey": -1,
            "catchResponse": -1,
            "catchTime": 1680809451866,
            "trialTime": 0
        },
        {
            "exptPart": "trial",
            "trialNumber": 81,
            "roleCurrent": "receiver",
            "marblesSampled": 100,
            "probRed": 0.5,
            "practiceLambda": 5,
            "trialLambda": 21.9,
            "instructedLambda": "dishonest_small",
            "drawnRed": 38,
            "reportedRed": 63,
            "inferredRed": 32,
            "playerTrialScore": -6,
            "oppTrialScore": 0,
            "playerTotalScore": -2037,
            "oppTotalScore": 439,
            "waitTime": 5878.053886621779,
            "responseTime": 1680809462732,
            "catchQuestion": "How many <b class=\"r\">red<\/b> marbles did your opponent report drawing? ",
            "catchKey": -1,
            "catchResponse": -1,
            "catchTime": 1680809451866,
            "trialTime": 0
        },
        {
            "exptPart": "trial",
            "trialNumber": 82,
            "roleCurrent": "receiver",
            "marblesSampled": 100,
            "probRed": 0.5,
            "practiceLambda": 5,
            "trialLambda": 21.9,
            "instructedLambda": "dishonest_small",
            "drawnRed": 64,
            "reportedRed": 91,
            "inferredRed": 28,
            "playerTrialScore": -36,
            "oppTrialScore": 0,
            "playerTotalScore": -2073,
            "oppTotalScore": 439,
            "waitTime": 7022.629972840163,
            "responseTime": 1680809474149,
            "catchQuestion": "How many <b class=\"r\">red<\/b> marbles did your opponent report drawing? ",
            "catchKey": -1,
            "catchResponse": -1,
            "catchTime": 1680809451866,
            "trialTime": 0
        },
        {
            "exptPart": "trial",
            "trialNumber": 83,
            "roleCurrent": "receiver",
            "marblesSampled": 100,
            "probRed": 0.5,
            "practiceLambda": 5,
            "trialLambda": 21.9,
            "instructedLambda": "dishonest_small",
            "drawnRed": 20,
            "reportedRed": 40,
            "inferredRed": 21,
            "playerTrialScore": -1,
            "oppTrialScore": 1,
            "playerTotalScore": -2074,
            "oppTotalScore": 440,
            "waitTime": 5214.504733950203,
            "responseTime": 1680809481914,
            "catchQuestion": "How many <b class=\"r\">red<\/b> marbles did your opponent report drawing? ",
            "catchKey": -1,
            "catchResponse": -1,
            "catchTime": 1680809451866,
            "trialTime": 0
        },
        {
            "exptPart": "trial",
            "trialNumber": 84,
            "roleCurrent": "receiver",
            "marblesSampled": 100,
            "probRed": 0.5,
            "practiceLambda": 5,
            "trialLambda": 21.9,
            "instructedLambda": "dishonest_small",
            "drawnRed": 65,
            "reportedRed": 85,
            "inferredRed": 10,
            "playerTrialScore": -55,
            "oppTrialScore": 0,
            "playerTotalScore": -2129,
            "oppTotalScore": 440,
            "waitTime": 5516.75349293836,
            "responseTime": 1680809491482,
            "catchQuestion": "How many <b class=\"r\">red<\/b> marbles did your opponent report drawing? ",
            "catchKey": -1,
            "catchResponse": -1,
            "catchTime": 1680809451866,
            "trialTime": 0
        },
        {
            "exptPart": "trial",
            "trialNumber": 85,
            "roleCurrent": "receiver",
            "marblesSampled": 100,
            "probRed": 0.5,
            "practiceLambda": 5,
            "trialLambda": 21.9,
            "instructedLambda": "dishonest_small",
            "drawnRed": 39,
            "reportedRed": 54,
            "inferredRed": 8,
            "playerTrialScore": -31,
            "oppTrialScore": 0,
            "playerTotalScore": -2160,
            "oppTotalScore": 440,
            "waitTime": 6689.932187656882,
            "responseTime": 1680809501883,
            "catchQuestion": "How many <b class=\"r\">red<\/b> marbles did your opponent report drawing? ",
            "catchKey": -1,
            "catchResponse": -1,
            "catchTime": 1680809451866,
            "trialTime": 0
        },
        {
            "exptPart": "trial",
            "trialNumber": 86,
            "roleCurrent": "receiver",
            "marblesSampled": 100,
            "probRed": 0.5,
            "practiceLambda": 5,
            "trialLambda": 21.9,
            "instructedLambda": "dishonest_small",
            "drawnRed": 55,
            "reportedRed": 80,
            "inferredRed": 2,
            "playerTrialScore": -53,
            "oppTrialScore": 0,
            "playerTotalScore": -2213,
            "oppTotalScore": 440,
            "waitTime": 5788.109412628586,
            "responseTime": 1680809509782,
            "catchQuestion": "How many <b class=\"r\">red<\/b> marbles did your opponent report drawing? ",
            "catchKey": -1,
            "catchResponse": -1,
            "catchTime": 1680809451866,
            "trialTime": 0
        },
        {
            "exptPart": "trial",
            "trialNumber": 87,
            "roleCurrent": "receiver",
            "marblesSampled": 100,
            "probRed": 0.5,
            "practiceLambda": 5,
            "trialLambda": 21.9,
            "instructedLambda": "dishonest_small",
            "drawnRed": 75,
            "reportedRed": 100,
            "inferredRed": 0,
            "playerTrialScore": -75,
            "oppTrialScore": 0,
            "playerTotalScore": -2288,
            "oppTotalScore": 440,
            "waitTime": 6057.93447321161,
            "responseTime": 1680809519015,
            "catchQuestion": "How many <b class=\"r\">red<\/b> marbles did your opponent report drawing? ",
            "catchKey": -1,
            "catchResponse": -1,
            "catchTime": 1680809451866,
            "trialTime": 0
        },
        {
            "exptPart": "trial",
            "trialNumber": 88,
            "roleCurrent": "receiver",
            "marblesSampled": 100,
            "probRed": 0.5,
            "practiceLambda": 5,
            "trialLambda": 21.9,
            "instructedLambda": "dishonest_small",
            "drawnRed": 25,
            "reportedRed": 49,
            "inferredRed": 82,
            "playerTrialScore": -57,
            "oppTrialScore": 57,
            "playerTotalScore": -2345,
            "oppTotalScore": 497,
            "waitTime": 5522.69456074789,
            "responseTime": 1680809528283,
            "catchQuestion": "How many <b class=\"r\">red<\/b> marbles did your opponent report drawing? ",
            "catchKey": -1,
            "catchResponse": -1,
            "catchTime": 1680809451866,
            "trialTime": 0
        },
        {
            "exptPart": "trial",
            "trialNumber": 89,
            "roleCurrent": "receiver",
            "marblesSampled": 100,
            "probRed": 0.5,
            "practiceLambda": 5,
            "trialLambda": 21.9,
            "instructedLambda": "dishonest_small",
            "drawnRed": 60,
            "reportedRed": 80,
            "inferredRed": 44,
            "playerTrialScore": -16,
            "oppTrialScore": 0,
            "playerTotalScore": -2361,
            "oppTotalScore": 497,
            "waitTime": 5816.595103577853,
            "responseTime": 1680809537282,
            "catchQuestion": "How many <b class=\"r\">red<\/b> marbles did your opponent report drawing? ",
            "catchKey": -1,
            "catchResponse": -1,
            "catchTime": 1680809451866,
            "trialTime": 0
        },
        {
            "exptPart": "trial",
            "trialNumber": 90,
            "roleCurrent": "receiver",
            "marblesSampled": 100,
            "probRed": 0.5,
            "practiceLambda": 5,
            "trialLambda": 21.9,
            "instructedLambda": "dishonest_small",
            "drawnRed": 47,
            "reportedRed": 62,
            "inferredRed": 56,
            "playerTrialScore": -9,
            "oppTrialScore": 9,
            "playerTotalScore": -2370,
            "oppTotalScore": 506,
            "waitTime": 6080.884952925499,
            "responseTime": 1680809545917,
            "catchQuestion": "How many <b class=\"r\">red<\/b> marbles did your opponent report drawing? ",
            "catchKey": -1,
            "catchResponse": -1,
            "catchTime": 1680809545917,
            "trialTime": 0
        },
        {
            "exptPart": "trial",
            "trialNumber": 91,
            "roleCurrent": "receiver",
            "marblesSampled": 100,
            "probRed": 0.5,
            "practiceLambda": 5,
            "trialLambda": 21.9,
            "instructedLambda": "dishonest_small",
            "drawnRed": 50,
            "reportedRed": 68,
            "inferredRed": 77,
            "playerTrialScore": -27,
            "oppTrialScore": 27,
            "playerTotalScore": -2397,
            "oppTotalScore": 533,
            "waitTime": 6985.5279207199765,
            "responseTime": 1680809657580,
            "catchQuestion": "How many <b class=\"r\">red<\/b> marbles did your opponent report drawing? ",
            "catchKey": -1,
            "catchResponse": -1,
            "catchTime": 1680809545917,
            "trialTime": 0
        },
        {
            "exptPart": "trial",
            "trialNumber": 92,
            "roleCurrent": "receiver",
            "marblesSampled": 100,
            "probRed": 0.5,
            "practiceLambda": 5,
            "trialLambda": 21.9,
            "instructedLambda": "dishonest_small",
            "drawnRed": 42,
            "reportedRed": 57,
            "inferredRed": 45,
            "playerTrialScore": -3,
            "oppTrialScore": 3,
            "playerTotalScore": -2400,
            "oppTotalScore": 536,
            "waitTime": 5596.877819841718,
            "responseTime": 1680809667313,
            "catchQuestion": "How many <b class=\"r\">red<\/b> marbles did your opponent report drawing? ",
            "catchKey": -1,
            "catchResponse": -1,
            "catchTime": 1680809545917,
            "trialTime": 0
        },
        {
            "exptPart": "trial",
            "trialNumber": 93,
            "roleCurrent": "receiver",
            "marblesSampled": 100,
            "probRed": 0.5,
            "practiceLambda": 5,
            "trialLambda": 21.9,
            "instructedLambda": "dishonest_small",
            "drawnRed": 46,
            "reportedRed": 80,
            "inferredRed": 90,
            "playerTrialScore": -44,
            "oppTrialScore": 44,
            "playerTotalScore": -2444,
            "oppTotalScore": 580,
            "waitTime": 7476.633142340733,
            "responseTime": 1680809678050,
            "catchQuestion": "How many <b class=\"r\">red<\/b> marbles did your opponent report drawing? ",
            "catchKey": -1,
            "catchResponse": -1,
            "catchTime": 1680809545917,
            "trialTime": 0
        },
        {
            "exptPart": "trial",
            "trialNumber": 94,
            "roleCurrent": "receiver",
            "marblesSampled": 100,
            "probRed": 0.5,
            "practiceLambda": 5,
            "trialLambda": 21.9,
            "instructedLambda": "dishonest_small",
            "drawnRed": 8,
            "reportedRed": 41,
            "inferredRed": 22,
            "playerTrialScore": -14,
            "oppTrialScore": 14,
            "playerTotalScore": -2458,
            "oppTotalScore": 594,
            "waitTime": 7339.497919586225,
            "responseTime": 1680809688331,
            "catchQuestion": "How many <b class=\"r\">red<\/b> marbles did your opponent report drawing? ",
            "catchKey": -1,
            "catchResponse": -1,
            "catchTime": 1680809545917,
            "trialTime": 0
        },
        {
            "exptPart": "trial",
            "trialNumber": 95,
            "roleCurrent": "receiver",
            "marblesSampled": 100,
            "probRed": 0.5,
            "practiceLambda": 5,
            "trialLambda": 21.9,
            "instructedLambda": "dishonest_small",
            "drawnRed": 35,
            "reportedRed": 53,
            "inferredRed": 26,
            "playerTrialScore": -9,
            "oppTrialScore": 0,
            "playerTotalScore": -2467,
            "oppTotalScore": 594,
            "waitTime": 5928.357850444208,
            "responseTime": 1680809698898,
            "catchQuestion": "How many <b class=\"r\">red<\/b> marbles did your opponent report drawing? ",
            "catchKey": -1,
            "catchResponse": -1,
            "catchTime": 1680809545917,
            "trialTime": 0
        },
        {
            "exptPart": "trial",
            "trialNumber": 96,
            "roleCurrent": "receiver",
            "marblesSampled": 100,
            "probRed": 0.5,
            "practiceLambda": 5,
            "trialLambda": 21.9,
            "instructedLambda": "dishonest_small",
            "drawnRed": 71,
            "reportedRed": 100,
            "inferredRed": 18,
            "playerTrialScore": -53,
            "oppTrialScore": 0,
            "playerTotalScore": -2520,
            "oppTotalScore": 594,
            "waitTime": 6970.687489291397,
            "responseTime": 1680809711248,
            "catchQuestion": "How many <b class=\"r\">red<\/b> marbles did your opponent report drawing? ",
            "catchKey": -1,
            "catchResponse": -1,
            "catchTime": 1680809545917,
            "trialTime": 0
        },
        {
            "exptPart": "trial",
            "trialNumber": 97,
            "roleCurrent": "receiver",
            "marblesSampled": 100,
            "probRed": 0.5,
            "practiceLambda": 5,
            "trialLambda": 21.9,
            "instructedLambda": "dishonest_small",
            "drawnRed": 39,
            "reportedRed": 62,
            "inferredRed": 28,
            "playerTrialScore": -11,
            "oppTrialScore": 0,
            "playerTotalScore": -2531,
            "oppTotalScore": 594,
            "waitTime": 5917.6822204780965,
            "responseTime": 1680809725831,
            "catchQuestion": "How many <b class=\"r\">red<\/b> marbles did your opponent report drawing? ",
            "catchKey": -1,
            "catchResponse": -1,
            "catchTime": 1680809545917,
            "trialTime": 0
        },
        {
            "exptPart": "trial",
            "trialNumber": 98,
            "roleCurrent": "receiver",
            "marblesSampled": 100,
            "probRed": 0.5,
            "practiceLambda": 5,
            "trialLambda": 21.9,
            "instructedLambda": "dishonest_small",
            "drawnRed": 70,
            "reportedRed": 97,
            "inferredRed": 30,
            "playerTrialScore": -40,
            "oppTrialScore": 0,
            "playerTotalScore": -2571,
            "oppTotalScore": 594,
            "waitTime": 5356.67844709219,
            "responseTime": 1680809735281,
            "catchQuestion": "How many <b class=\"r\">red<\/b> marbles did your opponent report drawing? ",
            "catchKey": -1,
            "catchResponse": -1,
            "catchTime": 1680809545917,
            "trialTime": 0
        },
        {
            "exptPart": "trial",
            "trialNumber": 99,
            "roleCurrent": "receiver",
            "marblesSampled": 100,
            "probRed": 0.5,
            "practiceLambda": 5,
            "trialLambda": 21.9,
            "instructedLambda": "dishonest_small",
            "drawnRed": 55,
            "reportedRed": 74,
            "inferredRed": 45,
            "playerTrialScore": -10,
            "oppTrialScore": 0,
            "playerTotalScore": -2581,
            "oppTotalScore": 594,
            "waitTime": 5809.364754015652,
            "responseTime": 1680809744216,
            "catchQuestion": "How many <b class=\"r\">red<\/b> marbles did your opponent report drawing? ",
            "catchKey": -1,
            "catchResponse": -1,
            "catchTime": 1680809545917,
            "trialTime": 0
        },
        {
            "exptPart": "trial",
            "trialNumber": 100,
            "roleCurrent": "receiver",
            "marblesSampled": 100,
            "probRed": 0.5,
            "practiceLambda": 5,
            "trialLambda": 21.9,
            "instructedLambda": "dishonest_small",
            "drawnRed": 51,
            "reportedRed": 69,
            "inferredRed": 22,
            "playerTrialScore": -29,
            "oppTrialScore": 0,
            "playerTotalScore": -2610,
            "oppTotalScore": 594,
            "waitTime": 6450.160865809817,
            "responseTime": 1680809753165,
            "catchQuestion": "How many <b class=\"r\">red<\/b> marbles did your opponent report drawing? ",
            "catchKey": -1,
            "catchResponse": -1,
            "catchTime": 1680809753165,
            "trialTime": 0
        }
    ]
}