{
    "client": {
        "type": "sona",
        "experiment_id": 2228,
        "credit_token": "b315147ae43241ea9c65086cb510cfb7",
        "survey_code": "45161",
        "sid": "sona-45161",
        "window": {
            "width": 1440,
            "height": 841
        },
        "screen": {
            "width": 1440,
            "height": 960
        },
        "userAgent": "Mozilla\/5.0 (Windows NT 10.0; Win64; x64) AppleWebKit\/537.36 (KHTML, like Gecko) Chrome\/111.0.0.0 Safari\/537.36 Edg\/111.0.1661.44",
        "score": 0,
        "bonus": 0
    },
    "expt": {
        "saveURL": "submit.simple.php",
        "trials": 100,
        "practiceTrials": 2,
        "marblesSampled": 100,
        "probRed": 0.5,
        "practiceLambdaAI": 5,
        "lambdaAI": 8.1,
        "roles": [
            "sender",
            "receiver"
        ],
        "cost": "unif",
        "goal": "over",
        "oppDishonesty": "honest",
        "catchTrials": [
            86,
            2,
            9,
            27,
            8,
            50,
            57,
            52,
            58,
            69
        ],
        "scoreTotal": {
            "player": -1193,
            "opp": 1011
        },
        "sona": {
            "experiment_id": 2228,
            "credit_token": "b315147ae43241ea9c65086cb510cfb7"
        },
        "pilot": false,
        "debug": false
    },
    "trials": [
        {
            "exptPart": "practice",
            "trialNumber": 1,
            "roleCurrent": "sender",
            "marblesSampled": 100,
            "probRed": 0.5,
            "practiceLambda": 5,
            "trialLambda": 8.1,
            "instructedLambda": "honest",
            "drawnRed": 64,
            "reportedRed": 59,
            "inferredRed": 55,
            "playerTrialScore": 0,
            "oppTrialScore": -9,
            "playerTotalScore": 0,
            "oppTotalScore": -9,
            "waitTime": 2125.2817005317947,
            "responseTime": 1681097992716,
            "catchQuestion": "How many <b class=\"r\">red<\/b> marbles did you actually draw (before any changes)? ",
            "catchKey": 64,
            "catchResponse": 59,
            "catchTime": 1681097992717,
            "trialTime": 0
        },
        {
            "exptPart": "practice",
            "trialNumber": 2,
            "roleCurrent": "receiver",
            "marblesSampled": 100,
            "probRed": 0.5,
            "practiceLambda": 5,
            "trialLambda": 8.1,
            "instructedLambda": "honest",
            "drawnRed": 61,
            "reportedRed": 66,
            "inferredRed": 62,
            "playerTrialScore": -1,
            "oppTrialScore": 1,
            "playerTotalScore": -1,
            "oppTotalScore": -8,
            "waitTime": 5737.68359268353,
            "responseTime": 1681098051952,
            "catchQuestion": "How many <b class=\"r\">red<\/b> marbles did your opponent report drawing? ",
            "catchKey": 66,
            "catchResponse": 62,
            "catchTime": 1681098051952,
            "trialTime": 0
        },
        {
            "exptPart": "trial",
            "trialNumber": 1,
            "roleCurrent": "receiver",
            "marblesSampled": 100,
            "probRed": 0.5,
            "practiceLambda": 5,
            "trialLambda": 8.1,
            "instructedLambda": "honest",
            "drawnRed": 83,
            "reportedRed": 89,
            "inferredRed": 70,
            "playerTrialScore": -13,
            "oppTrialScore": 0,
            "playerTotalScore": -13,
            "oppTotalScore": 0,
            "waitTime": 5248.289427639102,
            "responseTime": 1681098092051,
            "catchQuestion": "How many <b class=\"r\">red<\/b> marbles did your opponent report drawing? ",
            "catchKey": -1,
            "catchResponse": -1,
            "catchTime": 1681098051952,
            "trialTime": 0
        },
        {
            "exptPart": "trial",
            "trialNumber": 2,
            "roleCurrent": "receiver",
            "marblesSampled": 100,
            "probRed": 0.5,
            "practiceLambda": 5,
            "trialLambda": 8.1,
            "instructedLambda": "honest",
            "drawnRed": 63,
            "reportedRed": 72,
            "inferredRed": 66,
            "playerTrialScore": -3,
            "oppTrialScore": 3,
            "playerTotalScore": -16,
            "oppTotalScore": 3,
            "waitTime": 7343.295276215458,
            "responseTime": 1681098113309,
            "catchQuestion": "How many <b class=\"r\">red<\/b> marbles did your opponent report drawing? ",
            "catchKey": -1,
            "catchResponse": -1,
            "catchTime": 1681098051952,
            "trialTime": 0
        },
        {
            "exptPart": "trial",
            "trialNumber": 3,
            "roleCurrent": "receiver",
            "marblesSampled": 100,
            "probRed": 0.5,
            "practiceLambda": 5,
            "trialLambda": 8.1,
            "instructedLambda": "honest",
            "drawnRed": 63,
            "reportedRed": 77,
            "inferredRed": 68,
            "playerTrialScore": -5,
            "oppTrialScore": 5,
            "playerTotalScore": -21,
            "oppTotalScore": 8,
            "waitTime": 7355.066350641918,
            "responseTime": 1681098129627,
            "catchQuestion": "How many <b class=\"r\">red<\/b> marbles did your opponent report drawing? ",
            "catchKey": 77,
            "catchResponse": 77,
            "catchTime": 1681098129627,
            "trialTime": 0
        },
        {
            "exptPart": "trial",
            "trialNumber": 4,
            "roleCurrent": "receiver",
            "marblesSampled": 100,
            "probRed": 0.5,
            "practiceLambda": 5,
            "trialLambda": 8.1,
            "instructedLambda": "honest",
            "drawnRed": 36,
            "reportedRed": 45,
            "inferredRed": 54,
            "playerTrialScore": -18,
            "oppTrialScore": 18,
            "playerTotalScore": -39,
            "oppTotalScore": 26,
            "waitTime": 7453.235336752423,
            "responseTime": 1681098157176,
            "catchQuestion": "How many <b class=\"r\">red<\/b> marbles did your opponent report drawing? ",
            "catchKey": -1,
            "catchResponse": -1,
            "catchTime": 1681098129627,
            "trialTime": 0
        },
        {
            "exptPart": "trial",
            "trialNumber": 5,
            "roleCurrent": "receiver",
            "marblesSampled": 100,
            "probRed": 0.5,
            "practiceLambda": 5,
            "trialLambda": 8.1,
            "instructedLambda": "honest",
            "drawnRed": 60,
            "reportedRed": 74,
            "inferredRed": 62,
            "playerTrialScore": -2,
            "oppTrialScore": 2,
            "playerTotalScore": -41,
            "oppTotalScore": 28,
            "waitTime": 5770.812276929251,
            "responseTime": 1681098173007,
            "catchQuestion": "How many <b class=\"r\">red<\/b> marbles did your opponent report drawing? ",
            "catchKey": -1,
            "catchResponse": -1,
            "catchTime": 1681098129627,
            "trialTime": 0
        },
        {
            "exptPart": "trial",
            "trialNumber": 6,
            "roleCurrent": "receiver",
            "marblesSampled": 100,
            "probRed": 0.5,
            "practiceLambda": 5,
            "trialLambda": 8.1,
            "instructedLambda": "honest",
            "drawnRed": 30,
            "reportedRed": 34,
            "inferredRed": 48,
            "playerTrialScore": -18,
            "oppTrialScore": 18,
            "playerTotalScore": -59,
            "oppTotalScore": 46,
            "waitTime": 7274.682910549126,
            "responseTime": 1681098189013,
            "catchQuestion": "How many <b class=\"r\">red<\/b> marbles did your opponent report drawing? ",
            "catchKey": -1,
            "catchResponse": -1,
            "catchTime": 1681098129627,
            "trialTime": 0
        },
        {
            "exptPart": "trial",
            "trialNumber": 7,
            "roleCurrent": "receiver",
            "marblesSampled": 100,
            "probRed": 0.5,
            "practiceLambda": 5,
            "trialLambda": 8.1,
            "instructedLambda": "honest",
            "drawnRed": 56,
            "reportedRed": 64,
            "inferredRed": 60,
            "playerTrialScore": -4,
            "oppTrialScore": 4,
            "playerTotalScore": -63,
            "oppTotalScore": 50,
            "waitTime": 6581.447874304624,
            "responseTime": 1681098201161,
            "catchQuestion": "How many <b class=\"r\">red<\/b> marbles did your opponent report drawing? ",
            "catchKey": -1,
            "catchResponse": -1,
            "catchTime": 1681098129627,
            "trialTime": 0
        },
        {
            "exptPart": "trial",
            "trialNumber": 8,
            "roleCurrent": "receiver",
            "marblesSampled": 100,
            "probRed": 0.5,
            "practiceLambda": 5,
            "trialLambda": 8.1,
            "instructedLambda": "honest",
            "drawnRed": 71,
            "reportedRed": 80,
            "inferredRed": 64,
            "playerTrialScore": -7,
            "oppTrialScore": 0,
            "playerTotalScore": -70,
            "oppTotalScore": 50,
            "waitTime": 5333.202845483415,
            "responseTime": 1681098213516,
            "catchQuestion": "How many <b class=\"r\">red<\/b> marbles did your opponent report drawing? ",
            "catchKey": -1,
            "catchResponse": -1,
            "catchTime": 1681098129627,
            "trialTime": 0
        },
        {
            "exptPart": "trial",
            "trialNumber": 9,
            "roleCurrent": "receiver",
            "marblesSampled": 100,
            "probRed": 0.5,
            "practiceLambda": 5,
            "trialLambda": 8.1,
            "instructedLambda": "honest",
            "drawnRed": 69,
            "reportedRed": 79,
            "inferredRed": 68,
            "playerTrialScore": -1,
            "oppTrialScore": 0,
            "playerTotalScore": -71,
            "oppTotalScore": 50,
            "waitTime": 5452.259543648333,
            "responseTime": 1681098237091,
            "catchQuestion": "How many <b class=\"r\">red<\/b> marbles did your opponent report drawing? ",
            "catchKey": 79,
            "catchResponse": 79,
            "catchTime": 1681098237091,
            "trialTime": 0
        },
        {
            "exptPart": "trial",
            "trialNumber": 10,
            "roleCurrent": "receiver",
            "marblesSampled": 100,
            "probRed": 0.5,
            "practiceLambda": 5,
            "trialLambda": 8.1,
            "instructedLambda": "honest",
            "drawnRed": 60,
            "reportedRed": 69,
            "inferredRed": 66,
            "playerTrialScore": -6,
            "oppTrialScore": 6,
            "playerTotalScore": -77,
            "oppTotalScore": 56,
            "waitTime": 5921.1940715954115,
            "responseTime": 1681098255689,
            "catchQuestion": "How many <b class=\"r\">red<\/b> marbles did your opponent report drawing? ",
            "catchKey": 69,
            "catchResponse": 69,
            "catchTime": 1681098255689,
            "trialTime": 0
        },
        {
            "exptPart": "trial",
            "trialNumber": 11,
            "roleCurrent": "receiver",
            "marblesSampled": 100,
            "probRed": 0.5,
            "practiceLambda": 5,
            "trialLambda": 8.1,
            "instructedLambda": "honest",
            "drawnRed": 59,
            "reportedRed": 63,
            "inferredRed": 61,
            "playerTrialScore": -2,
            "oppTrialScore": 2,
            "playerTotalScore": -79,
            "oppTotalScore": 58,
            "waitTime": 6083.112443238273,
            "responseTime": 1681098284983,
            "catchQuestion": "How many <b class=\"r\">red<\/b> marbles did your opponent report drawing? ",
            "catchKey": -1,
            "catchResponse": -1,
            "catchTime": 1681098255689,
            "trialTime": 0
        },
        {
            "exptPart": "trial",
            "trialNumber": 12,
            "roleCurrent": "receiver",
            "marblesSampled": 100,
            "probRed": 0.5,
            "practiceLambda": 5,
            "trialLambda": 8.1,
            "instructedLambda": "honest",
            "drawnRed": 67,
            "reportedRed": 76,
            "inferredRed": 60,
            "playerTrialScore": -7,
            "oppTrialScore": 0,
            "playerTotalScore": -86,
            "oppTotalScore": 58,
            "waitTime": 5329.344326834176,
            "responseTime": 1681098295542,
            "catchQuestion": "How many <b class=\"r\">red<\/b> marbles did your opponent report drawing? ",
            "catchKey": -1,
            "catchResponse": -1,
            "catchTime": 1681098255689,
            "trialTime": 0
        },
        {
            "exptPart": "trial",
            "trialNumber": 13,
            "roleCurrent": "receiver",
            "marblesSampled": 100,
            "probRed": 0.5,
            "practiceLambda": 5,
            "trialLambda": 8.1,
            "instructedLambda": "honest",
            "drawnRed": 60,
            "reportedRed": 64,
            "inferredRed": 58,
            "playerTrialScore": -2,
            "oppTrialScore": 0,
            "playerTotalScore": -88,
            "oppTotalScore": 58,
            "waitTime": 6888.7136961290325,
            "responseTime": 1681098308273,
            "catchQuestion": "How many <b class=\"r\">red<\/b> marbles did your opponent report drawing? ",
            "catchKey": -1,
            "catchResponse": -1,
            "catchTime": 1681098255689,
            "trialTime": 0
        },
        {
            "exptPart": "trial",
            "trialNumber": 14,
            "roleCurrent": "receiver",
            "marblesSampled": 100,
            "probRed": 0.5,
            "practiceLambda": 5,
            "trialLambda": 8.1,
            "instructedLambda": "honest",
            "drawnRed": 65,
            "reportedRed": 74,
            "inferredRed": 68,
            "playerTrialScore": -3,
            "oppTrialScore": 3,
            "playerTotalScore": -91,
            "oppTotalScore": 61,
            "waitTime": 6689.698544996241,
            "responseTime": 1681098324826,
            "catchQuestion": "How many <b class=\"r\">red<\/b> marbles did your opponent report drawing? ",
            "catchKey": -1,
            "catchResponse": -1,
            "catchTime": 1681098255689,
            "trialTime": 0
        },
        {
            "exptPart": "trial",
            "trialNumber": 15,
            "roleCurrent": "receiver",
            "marblesSampled": 100,
            "probRed": 0.5,
            "practiceLambda": 5,
            "trialLambda": 8.1,
            "instructedLambda": "honest",
            "drawnRed": 50,
            "reportedRed": 56,
            "inferredRed": 58,
            "playerTrialScore": -8,
            "oppTrialScore": 8,
            "playerTotalScore": -99,
            "oppTotalScore": 69,
            "waitTime": 5152.939388358476,
            "responseTime": 1681098336279,
            "catchQuestion": "How many <b class=\"r\">red<\/b> marbles did your opponent report drawing? ",
            "catchKey": -1,
            "catchResponse": -1,
            "catchTime": 1681098255689,
            "trialTime": 0
        },
        {
            "exptPart": "trial",
            "trialNumber": 16,
            "roleCurrent": "receiver",
            "marblesSampled": 100,
            "probRed": 0.5,
            "practiceLambda": 5,
            "trialLambda": 8.1,
            "instructedLambda": "honest",
            "drawnRed": 37,
            "reportedRed": 41,
            "inferredRed": 50,
            "playerTrialScore": -13,
            "oppTrialScore": 13,
            "playerTotalScore": -112,
            "oppTotalScore": 82,
            "waitTime": 5748.67957307633,
            "responseTime": 1681098356178,
            "catchQuestion": "How many <b class=\"r\">red<\/b> marbles did your opponent report drawing? ",
            "catchKey": -1,
            "catchResponse": -1,
            "catchTime": 1681098255689,
            "trialTime": 0
        },
        {
            "exptPart": "trial",
            "trialNumber": 17,
            "roleCurrent": "receiver",
            "marblesSampled": 100,
            "probRed": 0.5,
            "practiceLambda": 5,
            "trialLambda": 8.1,
            "instructedLambda": "honest",
            "drawnRed": 48,
            "reportedRed": 51,
            "inferredRed": 54,
            "playerTrialScore": -6,
            "oppTrialScore": 6,
            "playerTotalScore": -118,
            "oppTotalScore": 88,
            "waitTime": 5679.835290093159,
            "responseTime": 1681098367260,
            "catchQuestion": "How many <b class=\"r\">red<\/b> marbles did your opponent report drawing? ",
            "catchKey": -1,
            "catchResponse": -1,
            "catchTime": 1681098255689,
            "trialTime": 0
        },
        {
            "exptPart": "trial",
            "trialNumber": 18,
            "roleCurrent": "receiver",
            "marblesSampled": 100,
            "probRed": 0.5,
            "practiceLambda": 5,
            "trialLambda": 8.1,
            "instructedLambda": "honest",
            "drawnRed": 38,
            "reportedRed": 46,
            "inferredRed": 48,
            "playerTrialScore": -10,
            "oppTrialScore": 10,
            "playerTotalScore": -128,
            "oppTotalScore": 98,
            "waitTime": 6951.461848671516,
            "responseTime": 1681098387303,
            "catchQuestion": "How many <b class=\"r\">red<\/b> marbles did your opponent report drawing? ",
            "catchKey": -1,
            "catchResponse": -1,
            "catchTime": 1681098255689,
            "trialTime": 0
        },
        {
            "exptPart": "trial",
            "trialNumber": 19,
            "roleCurrent": "receiver",
            "marblesSampled": 100,
            "probRed": 0.5,
            "practiceLambda": 5,
            "trialLambda": 8.1,
            "instructedLambda": "honest",
            "drawnRed": 88,
            "reportedRed": 96,
            "inferredRed": 68,
            "playerTrialScore": -20,
            "oppTrialScore": 0,
            "playerTotalScore": -148,
            "oppTotalScore": 98,
            "waitTime": 5586.513589860509,
            "responseTime": 1681098399799,
            "catchQuestion": "How many <b class=\"r\">red<\/b> marbles did your opponent report drawing? ",
            "catchKey": -1,
            "catchResponse": -1,
            "catchTime": 1681098255689,
            "trialTime": 0
        },
        {
            "exptPart": "trial",
            "trialNumber": 20,
            "roleCurrent": "receiver",
            "marblesSampled": 100,
            "probRed": 0.5,
            "practiceLambda": 5,
            "trialLambda": 8.1,
            "instructedLambda": "honest",
            "drawnRed": 35,
            "reportedRed": 46,
            "inferredRed": 56,
            "playerTrialScore": -21,
            "oppTrialScore": 21,
            "playerTotalScore": -169,
            "oppTotalScore": 119,
            "waitTime": 5544.13648884931,
            "responseTime": 1681098412222,
            "catchQuestion": "How many <b class=\"r\">red<\/b> marbles did your opponent report drawing? ",
            "catchKey": -1,
            "catchResponse": -1,
            "catchTime": 1681098412222,
            "trialTime": 0
        },
        {
            "exptPart": "trial",
            "trialNumber": 21,
            "roleCurrent": "receiver",
            "marblesSampled": 100,
            "probRed": 0.5,
            "practiceLambda": 5,
            "trialLambda": 8.1,
            "instructedLambda": "honest",
            "drawnRed": 31,
            "reportedRed": 36,
            "inferredRed": 58,
            "playerTrialScore": -27,
            "oppTrialScore": 27,
            "playerTotalScore": -196,
            "oppTotalScore": 146,
            "waitTime": 7101.5047987772605,
            "responseTime": 1681098437848,
            "catchQuestion": "How many <b class=\"r\">red<\/b> marbles did your opponent report drawing? ",
            "catchKey": -1,
            "catchResponse": -1,
            "catchTime": 1681098412222,
            "trialTime": 0
        },
        {
            "exptPart": "trial",
            "trialNumber": 22,
            "roleCurrent": "receiver",
            "marblesSampled": 100,
            "probRed": 0.5,
            "practiceLambda": 5,
            "trialLambda": 8.1,
            "instructedLambda": "honest",
            "drawnRed": 51,
            "reportedRed": 60,
            "inferredRed": 57,
            "playerTrialScore": -6,
            "oppTrialScore": 6,
            "playerTotalScore": -202,
            "oppTotalScore": 152,
            "waitTime": 6222.351763609615,
            "responseTime": 1681098451466,
            "catchQuestion": "How many <b class=\"r\">red<\/b> marbles did your opponent report drawing? ",
            "catchKey": -1,
            "catchResponse": -1,
            "catchTime": 1681098412222,
            "trialTime": 0
        },
        {
            "exptPart": "trial",
            "trialNumber": 23,
            "roleCurrent": "receiver",
            "marblesSampled": 100,
            "probRed": 0.5,
            "practiceLambda": 5,
            "trialLambda": 8.1,
            "instructedLambda": "honest",
            "drawnRed": 18,
            "reportedRed": 24,
            "inferredRed": 48,
            "playerTrialScore": -30,
            "oppTrialScore": 30,
            "playerTotalScore": -232,
            "oppTotalScore": 182,
            "waitTime": 5212.687666580068,
            "responseTime": 1681098465558,
            "catchQuestion": "How many <b class=\"r\">red<\/b> marbles did your opponent report drawing? ",
            "catchKey": -1,
            "catchResponse": -1,
            "catchTime": 1681098412222,
            "trialTime": 0
        },
        {
            "exptPart": "trial",
            "trialNumber": 24,
            "roleCurrent": "receiver",
            "marblesSampled": 100,
            "probRed": 0.5,
            "practiceLambda": 5,
            "trialLambda": 8.1,
            "instructedLambda": "honest",
            "drawnRed": 27,
            "reportedRed": 38,
            "inferredRed": 52,
            "playerTrialScore": -25,
            "oppTrialScore": 25,
            "playerTotalScore": -257,
            "oppTotalScore": 207,
            "waitTime": 6331.317810680485,
            "responseTime": 1681098481801,
            "catchQuestion": "How many <b class=\"r\">red<\/b> marbles did your opponent report drawing? ",
            "catchKey": -1,
            "catchResponse": -1,
            "catchTime": 1681098412222,
            "trialTime": 0
        },
        {
            "exptPart": "trial",
            "trialNumber": 25,
            "roleCurrent": "receiver",
            "marblesSampled": 100,
            "probRed": 0.5,
            "practiceLambda": 5,
            "trialLambda": 8.1,
            "instructedLambda": "honest",
            "drawnRed": 59,
            "reportedRed": 70,
            "inferredRed": 62,
            "playerTrialScore": -3,
            "oppTrialScore": 3,
            "playerTotalScore": -260,
            "oppTotalScore": 210,
            "waitTime": 7139.540152515192,
            "responseTime": 1681098513517,
            "catchQuestion": "How many <b class=\"r\">red<\/b> marbles did your opponent report drawing? ",
            "catchKey": -1,
            "catchResponse": -1,
            "catchTime": 1681098412222,
            "trialTime": 0
        },
        {
            "exptPart": "trial",
            "trialNumber": 26,
            "roleCurrent": "receiver",
            "marblesSampled": 100,
            "probRed": 0.5,
            "practiceLambda": 5,
            "trialLambda": 8.1,
            "instructedLambda": "honest",
            "drawnRed": 31,
            "reportedRed": 39,
            "inferredRed": 47,
            "playerTrialScore": -16,
            "oppTrialScore": 16,
            "playerTotalScore": -276,
            "oppTotalScore": 226,
            "waitTime": 6809.480056925588,
            "responseTime": 1681098525316,
            "catchQuestion": "How many <b class=\"r\">red<\/b> marbles did your opponent report drawing? ",
            "catchKey": -1,
            "catchResponse": -1,
            "catchTime": 1681098412222,
            "trialTime": 0
        },
        {
            "exptPart": "trial",
            "trialNumber": 27,
            "roleCurrent": "receiver",
            "marblesSampled": 100,
            "probRed": 0.5,
            "practiceLambda": 5,
            "trialLambda": 8.1,
            "instructedLambda": "honest",
            "drawnRed": 61,
            "reportedRed": 66,
            "inferredRed": 62,
            "playerTrialScore": -1,
            "oppTrialScore": 1,
            "playerTotalScore": -277,
            "oppTotalScore": 227,
            "waitTime": 6207.621276888425,
            "responseTime": 1681098536974,
            "catchQuestion": "How many <b class=\"r\">red<\/b> marbles did your opponent report drawing? ",
            "catchKey": -1,
            "catchResponse": -1,
            "catchTime": 1681098412222,
            "trialTime": 0
        },
        {
            "exptPart": "trial",
            "trialNumber": 28,
            "roleCurrent": "receiver",
            "marblesSampled": 100,
            "probRed": 0.5,
            "practiceLambda": 5,
            "trialLambda": 8.1,
            "instructedLambda": "honest",
            "drawnRed": 39,
            "reportedRed": 45,
            "inferredRed": 57,
            "playerTrialScore": -18,
            "oppTrialScore": 18,
            "playerTotalScore": -295,
            "oppTotalScore": 245,
            "waitTime": 5869.747114968374,
            "responseTime": 1681098547097,
            "catchQuestion": "How many <b class=\"r\">red<\/b> marbles did your opponent report drawing? ",
            "catchKey": 45,
            "catchResponse": 45,
            "catchTime": 1681098547097,
            "trialTime": 0
        },
        {
            "exptPart": "trial",
            "trialNumber": 29,
            "roleCurrent": "receiver",
            "marblesSampled": 100,
            "probRed": 0.5,
            "practiceLambda": 5,
            "trialLambda": 8.1,
            "instructedLambda": "honest",
            "drawnRed": 70,
            "reportedRed": 77,
            "inferredRed": 65,
            "playerTrialScore": -5,
            "oppTrialScore": 0,
            "playerTotalScore": -300,
            "oppTotalScore": 245,
            "waitTime": 6138.453915724616,
            "responseTime": 1681098563925,
            "catchQuestion": "How many <b class=\"r\">red<\/b> marbles did your opponent report drawing? ",
            "catchKey": -1,
            "catchResponse": -1,
            "catchTime": 1681098547097,
            "trialTime": 0
        },
        {
            "exptPart": "trial",
            "trialNumber": 30,
            "roleCurrent": "receiver",
            "marblesSampled": 100,
            "probRed": 0.5,
            "practiceLambda": 5,
            "trialLambda": 8.1,
            "instructedLambda": "honest",
            "drawnRed": 37,
            "reportedRed": 42,
            "inferredRed": 48,
            "playerTrialScore": -11,
            "oppTrialScore": 11,
            "playerTotalScore": -311,
            "oppTotalScore": 256,
            "waitTime": 5657.981240997495,
            "responseTime": 1681098573975,
            "catchQuestion": "How many <b class=\"r\">red<\/b> marbles did your opponent report drawing? ",
            "catchKey": -1,
            "catchResponse": -1,
            "catchTime": 1681098573975,
            "trialTime": 0
        },
        {
            "exptPart": "trial",
            "trialNumber": 31,
            "roleCurrent": "receiver",
            "marblesSampled": 100,
            "probRed": 0.5,
            "practiceLambda": 5,
            "trialLambda": 8.1,
            "instructedLambda": "honest",
            "drawnRed": 76,
            "reportedRed": 86,
            "inferredRed": 62,
            "playerTrialScore": -14,
            "oppTrialScore": 0,
            "playerTotalScore": -325,
            "oppTotalScore": 256,
            "waitTime": 7371.633773733872,
            "responseTime": 1681098590980,
            "catchQuestion": "How many <b class=\"r\">red<\/b> marbles did your opponent report drawing? ",
            "catchKey": -1,
            "catchResponse": -1,
            "catchTime": 1681098573975,
            "trialTime": 0
        },
        {
            "exptPart": "trial",
            "trialNumber": 32,
            "roleCurrent": "receiver",
            "marblesSampled": 100,
            "probRed": 0.5,
            "practiceLambda": 5,
            "trialLambda": 8.1,
            "instructedLambda": "honest",
            "drawnRed": 60,
            "reportedRed": 65,
            "inferredRed": 63,
            "playerTrialScore": -3,
            "oppTrialScore": 3,
            "playerTotalScore": -328,
            "oppTotalScore": 259,
            "waitTime": 7431.101153625221,
            "responseTime": 1681098603540,
            "catchQuestion": "How many <b class=\"r\">red<\/b> marbles did your opponent report drawing? ",
            "catchKey": -1,
            "catchResponse": -1,
            "catchTime": 1681098573975,
            "trialTime": 0
        },
        {
            "exptPart": "trial",
            "trialNumber": 33,
            "roleCurrent": "receiver",
            "marblesSampled": 100,
            "probRed": 0.5,
            "practiceLambda": 5,
            "trialLambda": 8.1,
            "instructedLambda": "honest",
            "drawnRed": 27,
            "reportedRed": 37,
            "inferredRed": 50,
            "playerTrialScore": -23,
            "oppTrialScore": 23,
            "playerTotalScore": -351,
            "oppTotalScore": 282,
            "waitTime": 7219.258456785813,
            "responseTime": 1681098618525,
            "catchQuestion": "How many <b class=\"r\">red<\/b> marbles did your opponent report drawing? ",
            "catchKey": -1,
            "catchResponse": -1,
            "catchTime": 1681098573975,
            "trialTime": 0
        },
        {
            "exptPart": "trial",
            "trialNumber": 34,
            "roleCurrent": "receiver",
            "marblesSampled": 100,
            "probRed": 0.5,
            "practiceLambda": 5,
            "trialLambda": 8.1,
            "instructedLambda": "honest",
            "drawnRed": 25,
            "reportedRed": 30,
            "inferredRed": 45,
            "playerTrialScore": -20,
            "oppTrialScore": 20,
            "playerTotalScore": -371,
            "oppTotalScore": 302,
            "waitTime": 5265.8021068756725,
            "responseTime": 1681098628447,
            "catchQuestion": "How many <b class=\"r\">red<\/b> marbles did your opponent report drawing? ",
            "catchKey": -1,
            "catchResponse": -1,
            "catchTime": 1681098573975,
            "trialTime": 0
        },
        {
            "exptPart": "trial",
            "trialNumber": 35,
            "roleCurrent": "receiver",
            "marblesSampled": 100,
            "probRed": 0.5,
            "practiceLambda": 5,
            "trialLambda": 8.1,
            "instructedLambda": "honest",
            "drawnRed": 30,
            "reportedRed": 38,
            "inferredRed": 47,
            "playerTrialScore": -17,
            "oppTrialScore": 17,
            "playerTotalScore": -388,
            "oppTotalScore": 319,
            "waitTime": 5684.715935457736,
            "responseTime": 1681098638205,
            "catchQuestion": "How many <b class=\"r\">red<\/b> marbles did your opponent report drawing? ",
            "catchKey": -1,
            "catchResponse": -1,
            "catchTime": 1681098573975,
            "trialTime": 0
        },
        {
            "exptPart": "trial",
            "trialNumber": 36,
            "roleCurrent": "receiver",
            "marblesSampled": 100,
            "probRed": 0.5,
            "practiceLambda": 5,
            "trialLambda": 8.1,
            "instructedLambda": "honest",
            "drawnRed": 63,
            "reportedRed": 72,
            "inferredRed": 60,
            "playerTrialScore": -3,
            "oppTrialScore": 0,
            "playerTotalScore": -391,
            "oppTotalScore": 319,
            "waitTime": 7476.500909786991,
            "responseTime": 1681098649562,
            "catchQuestion": "How many <b class=\"r\">red<\/b> marbles did your opponent report drawing? ",
            "catchKey": -1,
            "catchResponse": -1,
            "catchTime": 1681098573975,
            "trialTime": 0
        },
        {
            "exptPart": "trial",
            "trialNumber": 37,
            "roleCurrent": "receiver",
            "marblesSampled": 100,
            "probRed": 0.5,
            "practiceLambda": 5,
            "trialLambda": 8.1,
            "instructedLambda": "honest",
            "drawnRed": 13,
            "reportedRed": 19,
            "inferredRed": 46,
            "playerTrialScore": -33,
            "oppTrialScore": 33,
            "playerTotalScore": -424,
            "oppTotalScore": 352,
            "waitTime": 6886.847729774412,
            "responseTime": 1681098661942,
            "catchQuestion": "How many <b class=\"r\">red<\/b> marbles did your opponent report drawing? ",
            "catchKey": -1,
            "catchResponse": -1,
            "catchTime": 1681098573975,
            "trialTime": 0
        },
        {
            "exptPart": "trial",
            "trialNumber": 38,
            "roleCurrent": "receiver",
            "marblesSampled": 100,
            "probRed": 0.5,
            "practiceLambda": 5,
            "trialLambda": 8.1,
            "instructedLambda": "honest",
            "drawnRed": 61,
            "reportedRed": 70,
            "inferredRed": 63,
            "playerTrialScore": -2,
            "oppTrialScore": 2,
            "playerTotalScore": -426,
            "oppTotalScore": 354,
            "waitTime": 6542.8923522496325,
            "responseTime": 1681098674320,
            "catchQuestion": "How many <b class=\"r\">red<\/b> marbles did your opponent report drawing? ",
            "catchKey": -1,
            "catchResponse": -1,
            "catchTime": 1681098573975,
            "trialTime": 0
        },
        {
            "exptPart": "trial",
            "trialNumber": 39,
            "roleCurrent": "receiver",
            "marblesSampled": 100,
            "probRed": 0.5,
            "practiceLambda": 5,
            "trialLambda": 8.1,
            "instructedLambda": "honest",
            "drawnRed": 34,
            "reportedRed": 43,
            "inferredRed": 51,
            "playerTrialScore": -17,
            "oppTrialScore": 17,
            "playerTotalScore": -443,
            "oppTotalScore": 371,
            "waitTime": 5257.972889011777,
            "responseTime": 1681098684417,
            "catchQuestion": "How many <b class=\"r\">red<\/b> marbles did your opponent report drawing? ",
            "catchKey": -1,
            "catchResponse": -1,
            "catchTime": 1681098573975,
            "trialTime": 0
        },
        {
            "exptPart": "trial",
            "trialNumber": 40,
            "roleCurrent": "receiver",
            "marblesSampled": 100,
            "probRed": 0.5,
            "practiceLambda": 5,
            "trialLambda": 8.1,
            "instructedLambda": "honest",
            "drawnRed": 69,
            "reportedRed": 81,
            "inferredRed": 70,
            "playerTrialScore": -1,
            "oppTrialScore": 1,
            "playerTotalScore": -444,
            "oppTotalScore": 372,
            "waitTime": 5336.839074782943,
            "responseTime": 1681098697436,
            "catchQuestion": "How many <b class=\"r\">red<\/b> marbles did your opponent report drawing? ",
            "catchKey": -1,
            "catchResponse": -1,
            "catchTime": 1681098697436,
            "trialTime": 0
        },
        {
            "exptPart": "trial",
            "trialNumber": 41,
            "roleCurrent": "receiver",
            "marblesSampled": 100,
            "probRed": 0.5,
            "practiceLambda": 5,
            "trialLambda": 8.1,
            "instructedLambda": "honest",
            "drawnRed": 69,
            "reportedRed": 71,
            "inferredRed": 66,
            "playerTrialScore": -3,
            "oppTrialScore": 0,
            "playerTotalScore": -447,
            "oppTotalScore": 372,
            "waitTime": 7462.089581855386,
            "responseTime": 1681098716992,
            "catchQuestion": "How many <b class=\"r\">red<\/b> marbles did your opponent report drawing? ",
            "catchKey": -1,
            "catchResponse": -1,
            "catchTime": 1681098697436,
            "trialTime": 0
        },
        {
            "exptPart": "trial",
            "trialNumber": 42,
            "roleCurrent": "receiver",
            "marblesSampled": 100,
            "probRed": 0.5,
            "practiceLambda": 5,
            "trialLambda": 8.1,
            "instructedLambda": "honest",
            "drawnRed": 56,
            "reportedRed": 64,
            "inferredRed": 58,
            "playerTrialScore": -2,
            "oppTrialScore": 2,
            "playerTotalScore": -449,
            "oppTotalScore": 374,
            "waitTime": 7089.853190882208,
            "responseTime": 1681098727931,
            "catchQuestion": "How many <b class=\"r\">red<\/b> marbles did your opponent report drawing? ",
            "catchKey": -1,
            "catchResponse": -1,
            "catchTime": 1681098697436,
            "trialTime": 0
        },
        {
            "exptPart": "trial",
            "trialNumber": 43,
            "roleCurrent": "receiver",
            "marblesSampled": 100,
            "probRed": 0.5,
            "practiceLambda": 5,
            "trialLambda": 8.1,
            "instructedLambda": "honest",
            "drawnRed": 62,
            "reportedRed": 67,
            "inferredRed": 62,
            "playerTrialScore": 0,
            "oppTrialScore": 0,
            "playerTotalScore": -449,
            "oppTotalScore": 374,
            "waitTime": 5233.6260718213725,
            "responseTime": 1681098740868,
            "catchQuestion": "How many <b class=\"r\">red<\/b> marbles did your opponent report drawing? ",
            "catchKey": -1,
            "catchResponse": -1,
            "catchTime": 1681098697436,
            "trialTime": 0
        },
        {
            "exptPart": "trial",
            "trialNumber": 44,
            "roleCurrent": "receiver",
            "marblesSampled": 100,
            "probRed": 0.5,
            "practiceLambda": 5,
            "trialLambda": 8.1,
            "instructedLambda": "honest",
            "drawnRed": 52,
            "reportedRed": 57,
            "inferredRed": 62,
            "playerTrialScore": -10,
            "oppTrialScore": 10,
            "playerTotalScore": -459,
            "oppTotalScore": 384,
            "waitTime": 6203.3963882384,
            "responseTime": 1681098751303,
            "catchQuestion": "How many <b class=\"r\">red<\/b> marbles did your opponent report drawing? ",
            "catchKey": -1,
            "catchResponse": -1,
            "catchTime": 1681098697436,
            "trialTime": 0
        },
        {
            "exptPart": "trial",
            "trialNumber": 45,
            "roleCurrent": "receiver",
            "marblesSampled": 100,
            "probRed": 0.5,
            "practiceLambda": 5,
            "trialLambda": 8.1,
            "instructedLambda": "honest",
            "drawnRed": 16,
            "reportedRed": 23,
            "inferredRed": 44,
            "playerTrialScore": -28,
            "oppTrialScore": 28,
            "playerTotalScore": -487,
            "oppTotalScore": 412,
            "waitTime": 6730.023176719407,
            "responseTime": 1681098761801,
            "catchQuestion": "How many <b class=\"r\">red<\/b> marbles did your opponent report drawing? ",
            "catchKey": -1,
            "catchResponse": -1,
            "catchTime": 1681098697436,
            "trialTime": 0
        },
        {
            "exptPart": "trial",
            "trialNumber": 46,
            "roleCurrent": "receiver",
            "marblesSampled": 100,
            "probRed": 0.5,
            "practiceLambda": 5,
            "trialLambda": 8.1,
            "instructedLambda": "honest",
            "drawnRed": 37,
            "reportedRed": 42,
            "inferredRed": 46,
            "playerTrialScore": -9,
            "oppTrialScore": 9,
            "playerTotalScore": -496,
            "oppTotalScore": 421,
            "waitTime": 6018.842588037784,
            "responseTime": 1681098772654,
            "catchQuestion": "How many <b class=\"r\">red<\/b> marbles did your opponent report drawing? ",
            "catchKey": -1,
            "catchResponse": -1,
            "catchTime": 1681098697436,
            "trialTime": 0
        },
        {
            "exptPart": "trial",
            "trialNumber": 47,
            "roleCurrent": "receiver",
            "marblesSampled": 100,
            "probRed": 0.5,
            "practiceLambda": 5,
            "trialLambda": 8.1,
            "instructedLambda": "honest",
            "drawnRed": 87,
            "reportedRed": 93,
            "inferredRed": 67,
            "playerTrialScore": -20,
            "oppTrialScore": 0,
            "playerTotalScore": -516,
            "oppTotalScore": 421,
            "waitTime": 5773.379244752838,
            "responseTime": 1681098783358,
            "catchQuestion": "How many <b class=\"r\">red<\/b> marbles did your opponent report drawing? ",
            "catchKey": -1,
            "catchResponse": -1,
            "catchTime": 1681098697436,
            "trialTime": 0
        },
        {
            "exptPart": "trial",
            "trialNumber": 48,
            "roleCurrent": "receiver",
            "marblesSampled": 100,
            "probRed": 0.5,
            "practiceLambda": 5,
            "trialLambda": 8.1,
            "instructedLambda": "honest",
            "drawnRed": 38,
            "reportedRed": 42,
            "inferredRed": 47,
            "playerTrialScore": -9,
            "oppTrialScore": 9,
            "playerTotalScore": -525,
            "oppTotalScore": 430,
            "waitTime": 6862.089370510812,
            "responseTime": 1681098794613,
            "catchQuestion": "How many <b class=\"r\">red<\/b> marbles did your opponent report drawing? ",
            "catchKey": -1,
            "catchResponse": -1,
            "catchTime": 1681098697436,
            "trialTime": 0
        },
        {
            "exptPart": "trial",
            "trialNumber": 49,
            "roleCurrent": "receiver",
            "marblesSampled": 100,
            "probRed": 0.5,
            "practiceLambda": 5,
            "trialLambda": 8.1,
            "instructedLambda": "honest",
            "drawnRed": 18,
            "reportedRed": 28,
            "inferredRed": 42,
            "playerTrialScore": -24,
            "oppTrialScore": 24,
            "playerTotalScore": -549,
            "oppTotalScore": 454,
            "waitTime": 7080.494203093509,
            "responseTime": 1681098805632,
            "catchQuestion": "How many <b class=\"r\">red<\/b> marbles did your opponent report drawing? ",
            "catchKey": -1,
            "catchResponse": -1,
            "catchTime": 1681098697436,
            "trialTime": 0
        },
        {
            "exptPart": "trial",
            "trialNumber": 50,
            "roleCurrent": "receiver",
            "marblesSampled": 100,
            "probRed": 0.5,
            "practiceLambda": 5,
            "trialLambda": 8.1,
            "instructedLambda": "honest",
            "drawnRed": 34,
            "reportedRed": 43,
            "inferredRed": 45,
            "playerTrialScore": -11,
            "oppTrialScore": 11,
            "playerTotalScore": -560,
            "oppTotalScore": 465,
            "waitTime": 6652.9659620239245,
            "responseTime": 1681098826318,
            "catchQuestion": "How many <b class=\"r\">red<\/b> marbles did your opponent report drawing? ",
            "catchKey": -1,
            "catchResponse": -1,
            "catchTime": 1681098826318,
            "trialTime": 0
        },
        {
            "exptPart": "trial",
            "trialNumber": 51,
            "roleCurrent": "receiver",
            "marblesSampled": 100,
            "probRed": 0.5,
            "practiceLambda": 5,
            "trialLambda": 8.1,
            "instructedLambda": "honest",
            "drawnRed": 50,
            "reportedRed": 60,
            "inferredRed": 58,
            "playerTrialScore": -8,
            "oppTrialScore": 8,
            "playerTotalScore": -568,
            "oppTotalScore": 473,
            "waitTime": 5303.239059961714,
            "responseTime": 1681098868918,
            "catchQuestion": "How many <b class=\"r\">red<\/b> marbles did your opponent report drawing? ",
            "catchKey": 60,
            "catchResponse": 68,
            "catchTime": 1681098868918,
            "trialTime": 0
        },
        {
            "exptPart": "trial",
            "trialNumber": 52,
            "roleCurrent": "receiver",
            "marblesSampled": 100,
            "probRed": 0.5,
            "practiceLambda": 5,
            "trialLambda": 8.1,
            "instructedLambda": "honest",
            "drawnRed": 8,
            "reportedRed": 18,
            "inferredRed": 42,
            "playerTrialScore": -34,
            "oppTrialScore": 34,
            "playerTotalScore": -602,
            "oppTotalScore": 507,
            "waitTime": 5303.2966134011995,
            "responseTime": 1681098899711,
            "catchQuestion": "How many <b class=\"r\">red<\/b> marbles did your opponent report drawing? ",
            "catchKey": -1,
            "catchResponse": -1,
            "catchTime": 1681098868918,
            "trialTime": 0
        },
        {
            "exptPart": "trial",
            "trialNumber": 53,
            "roleCurrent": "receiver",
            "marblesSampled": 100,
            "probRed": 0.5,
            "practiceLambda": 5,
            "trialLambda": 8.1,
            "instructedLambda": "honest",
            "drawnRed": 45,
            "reportedRed": 50,
            "inferredRed": 56,
            "playerTrialScore": -11,
            "oppTrialScore": 11,
            "playerTotalScore": -613,
            "oppTotalScore": 518,
            "waitTime": 7069.685547659758,
            "responseTime": 1681098912846,
            "catchQuestion": "How many <b class=\"r\">red<\/b> marbles did your opponent report drawing? ",
            "catchKey": 50,
            "catchResponse": 50,
            "catchTime": 1681098912846,
            "trialTime": 0
        },
        {
            "exptPart": "trial",
            "trialNumber": 54,
            "roleCurrent": "receiver",
            "marblesSampled": 100,
            "probRed": 0.5,
            "practiceLambda": 5,
            "trialLambda": 8.1,
            "instructedLambda": "honest",
            "drawnRed": 48,
            "reportedRed": 53,
            "inferredRed": 60,
            "playerTrialScore": -12,
            "oppTrialScore": 12,
            "playerTotalScore": -625,
            "oppTotalScore": 530,
            "waitTime": 5127.793178233673,
            "responseTime": 1681098926733,
            "catchQuestion": "How many <b class=\"r\">red<\/b> marbles did your opponent report drawing? ",
            "catchKey": -1,
            "catchResponse": -1,
            "catchTime": 1681098912846,
            "trialTime": 0
        },
        {
            "exptPart": "trial",
            "trialNumber": 55,
            "roleCurrent": "receiver",
            "marblesSampled": 100,
            "probRed": 0.5,
            "practiceLambda": 5,
            "trialLambda": 8.1,
            "instructedLambda": "honest",
            "drawnRed": 62,
            "reportedRed": 71,
            "inferredRed": 66,
            "playerTrialScore": -4,
            "oppTrialScore": 4,
            "playerTotalScore": -629,
            "oppTotalScore": 534,
            "waitTime": 5453.265786460428,
            "responseTime": 1681098936386,
            "catchQuestion": "How many <b class=\"r\">red<\/b> marbles did your opponent report drawing? ",
            "catchKey": -1,
            "catchResponse": -1,
            "catchTime": 1681098912846,
            "trialTime": 0
        },
        {
            "exptPart": "trial",
            "trialNumber": 56,
            "roleCurrent": "receiver",
            "marblesSampled": 100,
            "probRed": 0.5,
            "practiceLambda": 5,
            "trialLambda": 8.1,
            "instructedLambda": "honest",
            "drawnRed": 9,
            "reportedRed": 16,
            "inferredRed": 34,
            "playerTrialScore": -25,
            "oppTrialScore": 25,
            "playerTotalScore": -654,
            "oppTotalScore": 559,
            "waitTime": 5126.459669544541,
            "responseTime": 1681098946011,
            "catchQuestion": "How many <b class=\"r\">red<\/b> marbles did your opponent report drawing? ",
            "catchKey": -1,
            "catchResponse": -1,
            "catchTime": 1681098912846,
            "trialTime": 0
        },
        {
            "exptPart": "trial",
            "trialNumber": 57,
            "roleCurrent": "receiver",
            "marblesSampled": 100,
            "probRed": 0.5,
            "practiceLambda": 5,
            "trialLambda": 8.1,
            "instructedLambda": "honest",
            "drawnRed": 25,
            "reportedRed": 32,
            "inferredRed": 41,
            "playerTrialScore": -16,
            "oppTrialScore": 16,
            "playerTotalScore": -670,
            "oppTotalScore": 575,
            "waitTime": 6052.90225519052,
            "responseTime": 1681098956687,
            "catchQuestion": "How many <b class=\"r\">red<\/b> marbles did your opponent report drawing? ",
            "catchKey": -1,
            "catchResponse": -1,
            "catchTime": 1681098912846,
            "trialTime": 0
        },
        {
            "exptPart": "trial",
            "trialNumber": 58,
            "roleCurrent": "receiver",
            "marblesSampled": 100,
            "probRed": 0.5,
            "practiceLambda": 5,
            "trialLambda": 8.1,
            "instructedLambda": "honest",
            "drawnRed": 48,
            "reportedRed": 57,
            "inferredRed": 60,
            "playerTrialScore": -12,
            "oppTrialScore": 12,
            "playerTotalScore": -682,
            "oppTotalScore": 587,
            "waitTime": 5875.2726990720785,
            "responseTime": 1681098965826,
            "catchQuestion": "How many <b class=\"r\">red<\/b> marbles did your opponent report drawing? ",
            "catchKey": 57,
            "catchResponse": 57,
            "catchTime": 1681098965826,
            "trialTime": 0
        },
        {
            "exptPart": "trial",
            "trialNumber": 59,
            "roleCurrent": "receiver",
            "marblesSampled": 100,
            "probRed": 0.5,
            "practiceLambda": 5,
            "trialLambda": 8.1,
            "instructedLambda": "honest",
            "drawnRed": 15,
            "reportedRed": 20,
            "inferredRed": 44,
            "playerTrialScore": -29,
            "oppTrialScore": 29,
            "playerTotalScore": -711,
            "oppTotalScore": 616,
            "waitTime": 6690.919004925096,
            "responseTime": 1681098981824,
            "catchQuestion": "How many <b class=\"r\">red<\/b> marbles did your opponent report drawing? ",
            "catchKey": 20,
            "catchResponse": 20,
            "catchTime": 1681098981824,
            "trialTime": 0
        },
        {
            "exptPart": "trial",
            "trialNumber": 60,
            "roleCurrent": "receiver",
            "marblesSampled": 100,
            "probRed": 0.5,
            "practiceLambda": 5,
            "trialLambda": 8.1,
            "instructedLambda": "honest",
            "drawnRed": 61,
            "reportedRed": 65,
            "inferredRed": 57,
            "playerTrialScore": -4,
            "oppTrialScore": 0,
            "playerTotalScore": -715,
            "oppTotalScore": 616,
            "waitTime": 5317.113411281889,
            "responseTime": 1681098999291,
            "catchQuestion": "How many <b class=\"r\">red<\/b> marbles did your opponent report drawing? ",
            "catchKey": -1,
            "catchResponse": -1,
            "catchTime": 1681098999291,
            "trialTime": 0
        },
        {
            "exptPart": "trial",
            "trialNumber": 61,
            "roleCurrent": "receiver",
            "marblesSampled": 100,
            "probRed": 0.5,
            "practiceLambda": 5,
            "trialLambda": 8.1,
            "instructedLambda": "honest",
            "drawnRed": 57,
            "reportedRed": 65,
            "inferredRed": 62,
            "playerTrialScore": -5,
            "oppTrialScore": 5,
            "playerTotalScore": -720,
            "oppTotalScore": 621,
            "waitTime": 5568.623683015074,
            "responseTime": 1681099010525,
            "catchQuestion": "How many <b class=\"r\">red<\/b> marbles did your opponent report drawing? ",
            "catchKey": -1,
            "catchResponse": -1,
            "catchTime": 1681098999291,
            "trialTime": 0
        },
        {
            "exptPart": "trial",
            "trialNumber": 62,
            "roleCurrent": "receiver",
            "marblesSampled": 100,
            "probRed": 0.5,
            "practiceLambda": 5,
            "trialLambda": 8.1,
            "instructedLambda": "honest",
            "drawnRed": 54,
            "reportedRed": 64,
            "inferredRed": 58,
            "playerTrialScore": -4,
            "oppTrialScore": 4,
            "playerTotalScore": -724,
            "oppTotalScore": 625,
            "waitTime": 5412.973379055872,
            "responseTime": 1681099019638,
            "catchQuestion": "How many <b class=\"r\">red<\/b> marbles did your opponent report drawing? ",
            "catchKey": -1,
            "catchResponse": -1,
            "catchTime": 1681098999291,
            "trialTime": 0
        },
        {
            "exptPart": "trial",
            "trialNumber": 63,
            "roleCurrent": "receiver",
            "marblesSampled": 100,
            "probRed": 0.5,
            "practiceLambda": 5,
            "trialLambda": 8.1,
            "instructedLambda": "honest",
            "drawnRed": 35,
            "reportedRed": 45,
            "inferredRed": 49,
            "playerTrialScore": -14,
            "oppTrialScore": 14,
            "playerTotalScore": -738,
            "oppTotalScore": 639,
            "waitTime": 6077.824374319036,
            "responseTime": 1681099030632,
            "catchQuestion": "How many <b class=\"r\">red<\/b> marbles did your opponent report drawing? ",
            "catchKey": -1,
            "catchResponse": -1,
            "catchTime": 1681098999291,
            "trialTime": 0
        },
        {
            "exptPart": "trial",
            "trialNumber": 64,
            "roleCurrent": "receiver",
            "marblesSampled": 100,
            "probRed": 0.5,
            "practiceLambda": 5,
            "trialLambda": 8.1,
            "instructedLambda": "honest",
            "drawnRed": 41,
            "reportedRed": 48,
            "inferredRed": 50,
            "playerTrialScore": -9,
            "oppTrialScore": 9,
            "playerTotalScore": -747,
            "oppTotalScore": 648,
            "waitTime": 5350.626475070563,
            "responseTime": 1681099039319,
            "catchQuestion": "How many <b class=\"r\">red<\/b> marbles did your opponent report drawing? ",
            "catchKey": -1,
            "catchResponse": -1,
            "catchTime": 1681098999291,
            "trialTime": 0
        },
        {
            "exptPart": "trial",
            "trialNumber": 65,
            "roleCurrent": "receiver",
            "marblesSampled": 100,
            "probRed": 0.5,
            "practiceLambda": 5,
            "trialLambda": 8.1,
            "instructedLambda": "honest",
            "drawnRed": 74,
            "reportedRed": 83,
            "inferredRed": 70,
            "playerTrialScore": -4,
            "oppTrialScore": 0,
            "playerTotalScore": -751,
            "oppTotalScore": 648,
            "waitTime": 6600.255577949844,
            "responseTime": 1681099050711,
            "catchQuestion": "How many <b class=\"r\">red<\/b> marbles did your opponent report drawing? ",
            "catchKey": -1,
            "catchResponse": -1,
            "catchTime": 1681098999291,
            "trialTime": 0
        },
        {
            "exptPart": "trial",
            "trialNumber": 66,
            "roleCurrent": "receiver",
            "marblesSampled": 100,
            "probRed": 0.5,
            "practiceLambda": 5,
            "trialLambda": 8.1,
            "instructedLambda": "honest",
            "drawnRed": 42,
            "reportedRed": 52,
            "inferredRed": 56,
            "playerTrialScore": -14,
            "oppTrialScore": 14,
            "playerTotalScore": -765,
            "oppTotalScore": 662,
            "waitTime": 5851.4254077265205,
            "responseTime": 1681099059651,
            "catchQuestion": "How many <b class=\"r\">red<\/b> marbles did your opponent report drawing? ",
            "catchKey": -1,
            "catchResponse": -1,
            "catchTime": 1681098999291,
            "trialTime": 0
        },
        {
            "exptPart": "trial",
            "trialNumber": 67,
            "roleCurrent": "receiver",
            "marblesSampled": 100,
            "probRed": 0.5,
            "practiceLambda": 5,
            "trialLambda": 8.1,
            "instructedLambda": "honest",
            "drawnRed": 67,
            "reportedRed": 76,
            "inferredRed": 67,
            "playerTrialScore": 0,
            "oppTrialScore": 0,
            "playerTotalScore": -765,
            "oppTotalScore": 662,
            "waitTime": 5373.062296807628,
            "responseTime": 1681099069800,
            "catchQuestion": "How many <b class=\"r\">red<\/b> marbles did your opponent report drawing? ",
            "catchKey": -1,
            "catchResponse": -1,
            "catchTime": 1681098999291,
            "trialTime": 0
        },
        {
            "exptPart": "trial",
            "trialNumber": 68,
            "roleCurrent": "receiver",
            "marblesSampled": 100,
            "probRed": 0.5,
            "practiceLambda": 5,
            "trialLambda": 8.1,
            "instructedLambda": "honest",
            "drawnRed": 41,
            "reportedRed": 50,
            "inferredRed": 45,
            "playerTrialScore": -4,
            "oppTrialScore": 4,
            "playerTotalScore": -769,
            "oppTotalScore": 666,
            "waitTime": 5296.575119652318,
            "responseTime": 1681099080222,
            "catchQuestion": "How many <b class=\"r\">red<\/b> marbles did your opponent report drawing? ",
            "catchKey": -1,
            "catchResponse": -1,
            "catchTime": 1681098999291,
            "trialTime": 0
        },
        {
            "exptPart": "trial",
            "trialNumber": 69,
            "roleCurrent": "receiver",
            "marblesSampled": 100,
            "probRed": 0.5,
            "practiceLambda": 5,
            "trialLambda": 8.1,
            "instructedLambda": "honest",
            "drawnRed": 29,
            "reportedRed": 33,
            "inferredRed": 47,
            "playerTrialScore": -18,
            "oppTrialScore": 18,
            "playerTotalScore": -787,
            "oppTotalScore": 684,
            "waitTime": 5582.138558022376,
            "responseTime": 1681099094708,
            "catchQuestion": "How many <b class=\"r\">red<\/b> marbles did your opponent report drawing? ",
            "catchKey": -1,
            "catchResponse": -1,
            "catchTime": 1681098999291,
            "trialTime": 0
        },
        {
            "exptPart": "trial",
            "trialNumber": 70,
            "roleCurrent": "receiver",
            "marblesSampled": 100,
            "probRed": 0.5,
            "practiceLambda": 5,
            "trialLambda": 8.1,
            "instructedLambda": "honest",
            "drawnRed": 57,
            "reportedRed": 66,
            "inferredRed": 60,
            "playerTrialScore": -3,
            "oppTrialScore": 3,
            "playerTotalScore": -790,
            "oppTotalScore": 687,
            "waitTime": 6700.487288641071,
            "responseTime": 1681099104555,
            "catchQuestion": "How many <b class=\"r\">red<\/b> marbles did your opponent report drawing? ",
            "catchKey": 66,
            "catchResponse": 66,
            "catchTime": 1681099104555,
            "trialTime": 0
        },
        {
            "exptPart": "trial",
            "trialNumber": 71,
            "roleCurrent": "receiver",
            "marblesSampled": 100,
            "probRed": 0.5,
            "practiceLambda": 5,
            "trialLambda": 8.1,
            "instructedLambda": "honest",
            "drawnRed": 56,
            "reportedRed": 60,
            "inferredRed": 40,
            "playerTrialScore": -16,
            "oppTrialScore": 0,
            "playerTotalScore": -806,
            "oppTotalScore": 687,
            "waitTime": 5828.741361513702,
            "responseTime": 1681099125019,
            "catchQuestion": "How many <b class=\"r\">red<\/b> marbles did your opponent report drawing? ",
            "catchKey": -1,
            "catchResponse": -1,
            "catchTime": 1681099104555,
            "trialTime": 0
        },
        {
            "exptPart": "trial",
            "trialNumber": 72,
            "roleCurrent": "receiver",
            "marblesSampled": 100,
            "probRed": 0.5,
            "practiceLambda": 5,
            "trialLambda": 8.1,
            "instructedLambda": "honest",
            "drawnRed": 17,
            "reportedRed": 26,
            "inferredRed": 40,
            "playerTrialScore": -23,
            "oppTrialScore": 23,
            "playerTotalScore": -829,
            "oppTotalScore": 710,
            "waitTime": 5307.067402615194,
            "responseTime": 1681099135594,
            "catchQuestion": "How many <b class=\"r\">red<\/b> marbles did your opponent report drawing? ",
            "catchKey": -1,
            "catchResponse": -1,
            "catchTime": 1681099104555,
            "trialTime": 0
        },
        {
            "exptPart": "trial",
            "trialNumber": 73,
            "roleCurrent": "receiver",
            "marblesSampled": 100,
            "probRed": 0.5,
            "practiceLambda": 5,
            "trialLambda": 8.1,
            "instructedLambda": "honest",
            "drawnRed": 16,
            "reportedRed": 24,
            "inferredRed": 35,
            "playerTrialScore": -19,
            "oppTrialScore": 19,
            "playerTotalScore": -848,
            "oppTotalScore": 729,
            "waitTime": 6936.237926118361,
            "responseTime": 1681099146435,
            "catchQuestion": "How many <b class=\"r\">red<\/b> marbles did your opponent report drawing? ",
            "catchKey": -1,
            "catchResponse": -1,
            "catchTime": 1681099104555,
            "trialTime": 0
        },
        {
            "exptPart": "trial",
            "trialNumber": 74,
            "roleCurrent": "receiver",
            "marblesSampled": 100,
            "probRed": 0.5,
            "practiceLambda": 5,
            "trialLambda": 8.1,
            "instructedLambda": "honest",
            "drawnRed": 10,
            "reportedRed": 17,
            "inferredRed": 35,
            "playerTrialScore": -25,
            "oppTrialScore": 25,
            "playerTotalScore": -873,
            "oppTotalScore": 754,
            "waitTime": 5609.744374195174,
            "responseTime": 1681099156656,
            "catchQuestion": "How many <b class=\"r\">red<\/b> marbles did your opponent report drawing? ",
            "catchKey": -1,
            "catchResponse": -1,
            "catchTime": 1681099104555,
            "trialTime": 0
        },
        {
            "exptPart": "trial",
            "trialNumber": 75,
            "roleCurrent": "receiver",
            "marblesSampled": 100,
            "probRed": 0.5,
            "practiceLambda": 5,
            "trialLambda": 8.1,
            "instructedLambda": "honest",
            "drawnRed": 48,
            "reportedRed": 58,
            "inferredRed": 62,
            "playerTrialScore": -14,
            "oppTrialScore": 14,
            "playerTotalScore": -887,
            "oppTotalScore": 768,
            "waitTime": 5639.665821398552,
            "responseTime": 1681099165851,
            "catchQuestion": "How many <b class=\"r\">red<\/b> marbles did your opponent report drawing? ",
            "catchKey": -1,
            "catchResponse": -1,
            "catchTime": 1681099104555,
            "trialTime": 0
        },
        {
            "exptPart": "trial",
            "trialNumber": 76,
            "roleCurrent": "receiver",
            "marblesSampled": 100,
            "probRed": 0.5,
            "practiceLambda": 5,
            "trialLambda": 8.1,
            "instructedLambda": "honest",
            "drawnRed": 75,
            "reportedRed": 78,
            "inferredRed": 64,
            "playerTrialScore": -11,
            "oppTrialScore": 0,
            "playerTotalScore": -898,
            "oppTotalScore": 768,
            "waitTime": 6269.2534683364975,
            "responseTime": 1681099190770,
            "catchQuestion": "How many <b class=\"r\">red<\/b> marbles did your opponent report drawing? ",
            "catchKey": -1,
            "catchResponse": -1,
            "catchTime": 1681099104555,
            "trialTime": 0
        },
        {
            "exptPart": "trial",
            "trialNumber": 77,
            "roleCurrent": "receiver",
            "marblesSampled": 100,
            "probRed": 0.5,
            "practiceLambda": 5,
            "trialLambda": 8.1,
            "instructedLambda": "honest",
            "drawnRed": 61,
            "reportedRed": 72,
            "inferredRed": 60,
            "playerTrialScore": -1,
            "oppTrialScore": 0,
            "playerTotalScore": -899,
            "oppTotalScore": 768,
            "waitTime": 7217.821109277284,
            "responseTime": 1681099205183,
            "catchQuestion": "How many <b class=\"r\">red<\/b> marbles did your opponent report drawing? ",
            "catchKey": -1,
            "catchResponse": -1,
            "catchTime": 1681099104555,
            "trialTime": 0
        },
        {
            "exptPart": "trial",
            "trialNumber": 78,
            "roleCurrent": "receiver",
            "marblesSampled": 100,
            "probRed": 0.5,
            "practiceLambda": 5,
            "trialLambda": 8.1,
            "instructedLambda": "honest",
            "drawnRed": 23,
            "reportedRed": 32,
            "inferredRed": 45,
            "playerTrialScore": -22,
            "oppTrialScore": 22,
            "playerTotalScore": -921,
            "oppTotalScore": 790,
            "waitTime": 6172.273394267651,
            "responseTime": 1681099217896,
            "catchQuestion": "How many <b class=\"r\">red<\/b> marbles did your opponent report drawing? ",
            "catchKey": -1,
            "catchResponse": -1,
            "catchTime": 1681099104555,
            "trialTime": 0
        },
        {
            "exptPart": "trial",
            "trialNumber": 79,
            "roleCurrent": "receiver",
            "marblesSampled": 100,
            "probRed": 0.5,
            "practiceLambda": 5,
            "trialLambda": 8.1,
            "instructedLambda": "honest",
            "drawnRed": 40,
            "reportedRed": 51,
            "inferredRed": 56,
            "playerTrialScore": -16,
            "oppTrialScore": 16,
            "playerTotalScore": -937,
            "oppTotalScore": 806,
            "waitTime": 6122.726818645361,
            "responseTime": 1681099232968,
            "catchQuestion": "How many <b class=\"r\">red<\/b> marbles did your opponent report drawing? ",
            "catchKey": -1,
            "catchResponse": -1,
            "catchTime": 1681099104555,
            "trialTime": 0
        },
        {
            "exptPart": "trial",
            "trialNumber": 80,
            "roleCurrent": "receiver",
            "marblesSampled": 100,
            "probRed": 0.5,
            "practiceLambda": 5,
            "trialLambda": 8.1,
            "instructedLambda": "honest",
            "drawnRed": 81,
            "reportedRed": 88,
            "inferredRed": 59,
            "playerTrialScore": -22,
            "oppTrialScore": 0,
            "playerTotalScore": -959,
            "oppTotalScore": 806,
            "waitTime": 5865.508496919245,
            "responseTime": 1681099269969,
            "catchQuestion": "How many <b class=\"r\">red<\/b> marbles did your opponent report drawing? ",
            "catchKey": -1,
            "catchResponse": -1,
            "catchTime": 1681099269969,
            "trialTime": 0
        },
        {
            "exptPart": "trial",
            "trialNumber": 81,
            "roleCurrent": "receiver",
            "marblesSampled": 100,
            "probRed": 0.5,
            "practiceLambda": 5,
            "trialLambda": 8.1,
            "instructedLambda": "honest",
            "drawnRed": 53,
            "reportedRed": 62,
            "inferredRed": 60,
            "playerTrialScore": -7,
            "oppTrialScore": 7,
            "playerTotalScore": -966,
            "oppTotalScore": 813,
            "waitTime": 5280.057110260386,
            "responseTime": 1681099281792,
            "catchQuestion": "How many <b class=\"r\">red<\/b> marbles did your opponent report drawing? ",
            "catchKey": -1,
            "catchResponse": -1,
            "catchTime": 1681099269969,
            "trialTime": 0
        },
        {
            "exptPart": "trial",
            "trialNumber": 82,
            "roleCurrent": "receiver",
            "marblesSampled": 100,
            "probRed": 0.5,
            "practiceLambda": 5,
            "trialLambda": 8.1,
            "instructedLambda": "honest",
            "drawnRed": 21,
            "reportedRed": 34,
            "inferredRed": 50,
            "playerTrialScore": -29,
            "oppTrialScore": 29,
            "playerTotalScore": -995,
            "oppTotalScore": 842,
            "waitTime": 6740.021231778588,
            "responseTime": 1681099292255,
            "catchQuestion": "How many <b class=\"r\">red<\/b> marbles did your opponent report drawing? ",
            "catchKey": -1,
            "catchResponse": -1,
            "catchTime": 1681099269969,
            "trialTime": 0
        },
        {
            "exptPart": "trial",
            "trialNumber": 83,
            "roleCurrent": "receiver",
            "marblesSampled": 100,
            "probRed": 0.5,
            "practiceLambda": 5,
            "trialLambda": 8.1,
            "instructedLambda": "honest",
            "drawnRed": 37,
            "reportedRed": 41,
            "inferredRed": 47,
            "playerTrialScore": -10,
            "oppTrialScore": 10,
            "playerTotalScore": -1005,
            "oppTotalScore": 852,
            "waitTime": 5175.042264081798,
            "responseTime": 1681099301508,
            "catchQuestion": "How many <b class=\"r\">red<\/b> marbles did your opponent report drawing? ",
            "catchKey": -1,
            "catchResponse": -1,
            "catchTime": 1681099269969,
            "trialTime": 0
        },
        {
            "exptPart": "trial",
            "trialNumber": 84,
            "roleCurrent": "receiver",
            "marblesSampled": 100,
            "probRed": 0.5,
            "practiceLambda": 5,
            "trialLambda": 8.1,
            "instructedLambda": "honest",
            "drawnRed": 34,
            "reportedRed": 45,
            "inferredRed": 50,
            "playerTrialScore": -16,
            "oppTrialScore": 16,
            "playerTotalScore": -1021,
            "oppTotalScore": 868,
            "waitTime": 7338.021426135357,
            "responseTime": 1681099313402,
            "catchQuestion": "How many <b class=\"r\">red<\/b> marbles did your opponent report drawing? ",
            "catchKey": -1,
            "catchResponse": -1,
            "catchTime": 1681099269969,
            "trialTime": 0
        },
        {
            "exptPart": "trial",
            "trialNumber": 85,
            "roleCurrent": "receiver",
            "marblesSampled": 100,
            "probRed": 0.5,
            "practiceLambda": 5,
            "trialLambda": 8.1,
            "instructedLambda": "honest",
            "drawnRed": 48,
            "reportedRed": 55,
            "inferredRed": 60,
            "playerTrialScore": -12,
            "oppTrialScore": 12,
            "playerTotalScore": -1033,
            "oppTotalScore": 880,
            "waitTime": 5673.864232485086,
            "responseTime": 1681099322782,
            "catchQuestion": "How many <b class=\"r\">red<\/b> marbles did your opponent report drawing? ",
            "catchKey": -1,
            "catchResponse": -1,
            "catchTime": 1681099269969,
            "trialTime": 0
        },
        {
            "exptPart": "trial",
            "trialNumber": 86,
            "roleCurrent": "receiver",
            "marblesSampled": 100,
            "probRed": 0.5,
            "practiceLambda": 5,
            "trialLambda": 8.1,
            "instructedLambda": "honest",
            "drawnRed": 19,
            "reportedRed": 29,
            "inferredRed": 40,
            "playerTrialScore": -21,
            "oppTrialScore": 21,
            "playerTotalScore": -1054,
            "oppTotalScore": 901,
            "waitTime": 5251.051074811972,
            "responseTime": 1681099331165,
            "catchQuestion": "How many <b class=\"r\">red<\/b> marbles did your opponent report drawing? ",
            "catchKey": -1,
            "catchResponse": -1,
            "catchTime": 1681099269969,
            "trialTime": 0
        },
        {
            "exptPart": "trial",
            "trialNumber": 87,
            "roleCurrent": "receiver",
            "marblesSampled": 100,
            "probRed": 0.5,
            "practiceLambda": 5,
            "trialLambda": 8.1,
            "instructedLambda": "honest",
            "drawnRed": 34,
            "reportedRed": 35,
            "inferredRed": 41,
            "playerTrialScore": -7,
            "oppTrialScore": 7,
            "playerTotalScore": -1061,
            "oppTotalScore": 908,
            "waitTime": 7072.453526837991,
            "responseTime": 1681099342314,
            "catchQuestion": "How many <b class=\"r\">red<\/b> marbles did your opponent report drawing? ",
            "catchKey": 35,
            "catchResponse": 35,
            "catchTime": 1681099342314,
            "trialTime": 0
        },
        {
            "exptPart": "trial",
            "trialNumber": 88,
            "roleCurrent": "receiver",
            "marblesSampled": 100,
            "probRed": 0.5,
            "practiceLambda": 5,
            "trialLambda": 8.1,
            "instructedLambda": "honest",
            "drawnRed": 64,
            "reportedRed": 70,
            "inferredRed": 60,
            "playerTrialScore": -4,
            "oppTrialScore": 0,
            "playerTotalScore": -1065,
            "oppTotalScore": 908,
            "waitTime": 7494.83206281771,
            "responseTime": 1681099358860,
            "catchQuestion": "How many <b class=\"r\">red<\/b> marbles did your opponent report drawing? ",
            "catchKey": -1,
            "catchResponse": -1,
            "catchTime": 1681099342314,
            "trialTime": 0
        },
        {
            "exptPart": "trial",
            "trialNumber": 89,
            "roleCurrent": "receiver",
            "marblesSampled": 100,
            "probRed": 0.5,
            "practiceLambda": 5,
            "trialLambda": 8.1,
            "instructedLambda": "honest",
            "drawnRed": 36,
            "reportedRed": 43,
            "inferredRed": 40,
            "playerTrialScore": -4,
            "oppTrialScore": 4,
            "playerTotalScore": -1069,
            "oppTotalScore": 912,
            "waitTime": 5749.299876931349,
            "responseTime": 1681099368842,
            "catchQuestion": "How many <b class=\"r\">red<\/b> marbles did your opponent report drawing? ",
            "catchKey": -1,
            "catchResponse": -1,
            "catchTime": 1681099342314,
            "trialTime": 0
        },
        {
            "exptPart": "trial",
            "trialNumber": 90,
            "roleCurrent": "receiver",
            "marblesSampled": 100,
            "probRed": 0.5,
            "practiceLambda": 5,
            "trialLambda": 8.1,
            "instructedLambda": "honest",
            "drawnRed": 44,
            "reportedRed": 50,
            "inferredRed": 53,
            "playerTrialScore": -9,
            "oppTrialScore": 9,
            "playerTotalScore": -1078,
            "oppTotalScore": 921,
            "waitTime": 7383.390651298928,
            "responseTime": 1681099380225,
            "catchQuestion": "How many <b class=\"r\">red<\/b> marbles did your opponent report drawing? ",
            "catchKey": -1,
            "catchResponse": -1,
            "catchTime": 1681099380225,
            "trialTime": 0
        },
        {
            "exptPart": "trial",
            "trialNumber": 91,
            "roleCurrent": "receiver",
            "marblesSampled": 100,
            "probRed": 0.5,
            "practiceLambda": 5,
            "trialLambda": 8.1,
            "instructedLambda": "honest",
            "drawnRed": 28,
            "reportedRed": 39,
            "inferredRed": 46,
            "playerTrialScore": -18,
            "oppTrialScore": 18,
            "playerTotalScore": -1096,
            "oppTotalScore": 939,
            "waitTime": 6896.3019964761215,
            "responseTime": 1681099394697,
            "catchQuestion": "How many <b class=\"r\">red<\/b> marbles did your opponent report drawing? ",
            "catchKey": -1,
            "catchResponse": -1,
            "catchTime": 1681099380225,
            "trialTime": 0
        },
        {
            "exptPart": "trial",
            "trialNumber": 92,
            "roleCurrent": "receiver",
            "marblesSampled": 100,
            "probRed": 0.5,
            "practiceLambda": 5,
            "trialLambda": 8.1,
            "instructedLambda": "honest",
            "drawnRed": 58,
            "reportedRed": 66,
            "inferredRed": 60,
            "playerTrialScore": -2,
            "oppTrialScore": 2,
            "playerTotalScore": -1098,
            "oppTotalScore": 941,
            "waitTime": 7177.810227720744,
            "responseTime": 1681099405320,
            "catchQuestion": "How many <b class=\"r\">red<\/b> marbles did your opponent report drawing? ",
            "catchKey": -1,
            "catchResponse": -1,
            "catchTime": 1681099380225,
            "trialTime": 0
        },
        {
            "exptPart": "trial",
            "trialNumber": 93,
            "roleCurrent": "receiver",
            "marblesSampled": 100,
            "probRed": 0.5,
            "practiceLambda": 5,
            "trialLambda": 8.1,
            "instructedLambda": "honest",
            "drawnRed": 31,
            "reportedRed": 41,
            "inferredRed": 48,
            "playerTrialScore": -17,
            "oppTrialScore": 17,
            "playerTotalScore": -1115,
            "oppTotalScore": 958,
            "waitTime": 6009.514385419554,
            "responseTime": 1681099414921,
            "catchQuestion": "How many <b class=\"r\">red<\/b> marbles did your opponent report drawing? ",
            "catchKey": -1,
            "catchResponse": -1,
            "catchTime": 1681099380225,
            "trialTime": 0
        },
        {
            "exptPart": "trial",
            "trialNumber": 94,
            "roleCurrent": "receiver",
            "marblesSampled": 100,
            "probRed": 0.5,
            "practiceLambda": 5,
            "trialLambda": 8.1,
            "instructedLambda": "honest",
            "drawnRed": 46,
            "reportedRed": 55,
            "inferredRed": 57,
            "playerTrialScore": -11,
            "oppTrialScore": 11,
            "playerTotalScore": -1126,
            "oppTotalScore": 969,
            "waitTime": 5510.954702681474,
            "responseTime": 1681099423698,
            "catchQuestion": "How many <b class=\"r\">red<\/b> marbles did your opponent report drawing? ",
            "catchKey": -1,
            "catchResponse": -1,
            "catchTime": 1681099380225,
            "trialTime": 0
        },
        {
            "exptPart": "trial",
            "trialNumber": 95,
            "roleCurrent": "receiver",
            "marblesSampled": 100,
            "probRed": 0.5,
            "practiceLambda": 5,
            "trialLambda": 8.1,
            "instructedLambda": "honest",
            "drawnRed": 94,
            "reportedRed": 98,
            "inferredRed": 70,
            "playerTrialScore": -24,
            "oppTrialScore": 0,
            "playerTotalScore": -1150,
            "oppTotalScore": 969,
            "waitTime": 5528.054689321718,
            "responseTime": 1681099435152,
            "catchQuestion": "How many <b class=\"r\">red<\/b> marbles did your opponent report drawing? ",
            "catchKey": -1,
            "catchResponse": -1,
            "catchTime": 1681099380225,
            "trialTime": 0
        },
        {
            "exptPart": "trial",
            "trialNumber": 96,
            "roleCurrent": "receiver",
            "marblesSampled": 100,
            "probRed": 0.5,
            "practiceLambda": 5,
            "trialLambda": 8.1,
            "instructedLambda": "honest",
            "drawnRed": 64,
            "reportedRed": 76,
            "inferredRed": 66,
            "playerTrialScore": -2,
            "oppTrialScore": 2,
            "playerTotalScore": -1152,
            "oppTotalScore": 971,
            "waitTime": 5860.919552531237,
            "responseTime": 1681099447366,
            "catchQuestion": "How many <b class=\"r\">red<\/b> marbles did your opponent report drawing? ",
            "catchKey": -1,
            "catchResponse": -1,
            "catchTime": 1681099380225,
            "trialTime": 0
        },
        {
            "exptPart": "trial",
            "trialNumber": 97,
            "roleCurrent": "receiver",
            "marblesSampled": 100,
            "probRed": 0.5,
            "practiceLambda": 5,
            "trialLambda": 8.1,
            "instructedLambda": "honest",
            "drawnRed": 69,
            "reportedRed": 72,
            "inferredRed": 68,
            "playerTrialScore": -1,
            "oppTrialScore": 0,
            "playerTotalScore": -1153,
            "oppTotalScore": 971,
            "waitTime": 6121.780651236095,
            "responseTime": 1681099456704,
            "catchQuestion": "How many <b class=\"r\">red<\/b> marbles did your opponent report drawing? ",
            "catchKey": -1,
            "catchResponse": -1,
            "catchTime": 1681099380225,
            "trialTime": 0
        },
        {
            "exptPart": "trial",
            "trialNumber": 98,
            "roleCurrent": "receiver",
            "marblesSampled": 100,
            "probRed": 0.5,
            "practiceLambda": 5,
            "trialLambda": 8.1,
            "instructedLambda": "honest",
            "drawnRed": 11,
            "reportedRed": 18,
            "inferredRed": 40,
            "playerTrialScore": -29,
            "oppTrialScore": 29,
            "playerTotalScore": -1182,
            "oppTotalScore": 1000,
            "waitTime": 6153.992828855536,
            "responseTime": 1681099467062,
            "catchQuestion": "How many <b class=\"r\">red<\/b> marbles did your opponent report drawing? ",
            "catchKey": -1,
            "catchResponse": -1,
            "catchTime": 1681099380225,
            "trialTime": 0
        },
        {
            "exptPart": "trial",
            "trialNumber": 99,
            "roleCurrent": "receiver",
            "marblesSampled": 100,
            "probRed": 0.5,
            "practiceLambda": 5,
            "trialLambda": 8.1,
            "instructedLambda": "honest",
            "drawnRed": 53,
            "reportedRed": 56,
            "inferredRed": 56,
            "playerTrialScore": -3,
            "oppTrialScore": 3,
            "playerTotalScore": -1185,
            "oppTotalScore": 1003,
            "waitTime": 7144.446039439015,
            "responseTime": 1681099477375,
            "catchQuestion": "How many <b class=\"r\">red<\/b> marbles did your opponent report drawing? ",
            "catchKey": -1,
            "catchResponse": -1,
            "catchTime": 1681099380225,
            "trialTime": 0
        },
        {
            "exptPart": "trial",
            "trialNumber": 100,
            "roleCurrent": "receiver",
            "marblesSampled": 100,
            "probRed": 0.5,
            "practiceLambda": 5,
            "trialLambda": 8.1,
            "instructedLambda": "honest",
            "drawnRed": 71,
            "reportedRed": 83,
            "inferredRed": 79,
            "playerTrialScore": -8,
            "oppTrialScore": 8,
            "playerTotalScore": -1193,
            "oppTotalScore": 1011,
            "waitTime": 6357.56813388821,
            "responseTime": 1681099489995,
            "catchQuestion": "How many <b class=\"r\">red<\/b> marbles did your opponent report drawing? ",
            "catchKey": -1,
            "catchResponse": -1,
            "catchTime": 1681099489995,
            "trialTime": 0
        }
    ]
}