{
    "client": {
        "type": "sona",
        "experiment_id": 2228,
        "credit_token": "b315147ae43241ea9c65086cb510cfb7",
        "survey_code": "45281",
        "sid": "sona-45281",
        "window": {
            "width": 1382,
            "height": 764
        },
        "screen": {
            "width": 1440,
            "height": 900
        },
        "userAgent": "Mozilla\/5.0 (Macintosh; Intel Mac OS X 10_15_7) AppleWebKit\/537.36 (KHTML, like Gecko) Chrome\/111.0.0.0 Safari\/537.36",
        "score": 0,
        "bonus": 0
    },
    "expt": {
        "saveURL": "submit.simple.php",
        "trials": 100,
        "practiceTrials": 2,
        "marblesSampled": 100,
        "probRed": 0.5,
        "practiceLambdaAI": 5,
        "lambdaAI": 8.1,
        "roles": [
            "sender",
            "receiver"
        ],
        "cost": "unif",
        "goal": "over",
        "oppDishonesty": "honest",
        "catchTrials": [
            96,
            35,
            78,
            83,
            43,
            33,
            4,
            13,
            97,
            86
        ],
        "scoreTotal": {
            "player": -1270,
            "opp": 124
        },
        "sona": {
            "experiment_id": 2228,
            "credit_token": "b315147ae43241ea9c65086cb510cfb7"
        },
        "pilot": false,
        "debug": false
    },
    "trials": [
        {
            "exptPart": "practice",
            "trialNumber": 1,
            "roleCurrent": "sender",
            "marblesSampled": 100,
            "probRed": 0.5,
            "practiceLambda": 5,
            "trialLambda": 8.1,
            "instructedLambda": "honest",
            "drawnRed": 25,
            "reportedRed": 30,
            "inferredRed": 27,
            "playerTrialScore": 2,
            "oppTrialScore": -2,
            "playerTotalScore": 2,
            "oppTotalScore": -2,
            "waitTime": 2897.575733354942,
            "responseTime": 1681142961918,
            "catchQuestion": "How many <b class=\"r\">red<\/b> marbles did you actually draw (before any changes)? ",
            "catchKey": 25,
            "catchResponse": 25,
            "catchTime": 1681142961919,
            "trialTime": 0
        },
        {
            "exptPart": "practice",
            "trialNumber": 2,
            "roleCurrent": "receiver",
            "marblesSampled": 100,
            "probRed": 0.5,
            "practiceLambda": 5,
            "trialLambda": 8.1,
            "instructedLambda": "honest",
            "drawnRed": 57,
            "reportedRed": 66,
            "inferredRed": 60,
            "playerTrialScore": -3,
            "oppTrialScore": 3,
            "playerTotalScore": -1,
            "oppTotalScore": 1,
            "waitTime": 6678.456318781249,
            "responseTime": 1681143022951,
            "catchQuestion": "How many <b class=\"r\">red<\/b> marbles did your opponent report drawing? ",
            "catchKey": 66,
            "catchResponse": 66,
            "catchTime": 1681143022951,
            "trialTime": 0
        },
        {
            "exptPart": "trial",
            "trialNumber": 1,
            "roleCurrent": "receiver",
            "marblesSampled": 100,
            "probRed": 0.5,
            "practiceLambda": 5,
            "trialLambda": 8.1,
            "instructedLambda": "honest",
            "drawnRed": 76,
            "reportedRed": 85,
            "inferredRed": 75,
            "playerTrialScore": -1,
            "oppTrialScore": 0,
            "playerTotalScore": -1,
            "oppTotalScore": 0,
            "waitTime": 6271.474230437476,
            "responseTime": 1681143123985,
            "catchQuestion": "How many <b class=\"r\">red<\/b> marbles did your opponent report drawing? ",
            "catchKey": -1,
            "catchResponse": -1,
            "catchTime": 1681143022951,
            "trialTime": 0
        },
        {
            "exptPart": "trial",
            "trialNumber": 2,
            "roleCurrent": "receiver",
            "marblesSampled": 100,
            "probRed": 0.5,
            "practiceLambda": 5,
            "trialLambda": 8.1,
            "instructedLambda": "honest",
            "drawnRed": 54,
            "reportedRed": 62,
            "inferredRed": 57,
            "playerTrialScore": -3,
            "oppTrialScore": 3,
            "playerTotalScore": -4,
            "oppTotalScore": 3,
            "waitTime": 5183.97480458762,
            "responseTime": 1681143147902,
            "catchQuestion": "How many <b class=\"r\">red<\/b> marbles did your opponent report drawing? ",
            "catchKey": -1,
            "catchResponse": -1,
            "catchTime": 1681143022951,
            "trialTime": 0
        },
        {
            "exptPart": "trial",
            "trialNumber": 3,
            "roleCurrent": "receiver",
            "marblesSampled": 100,
            "probRed": 0.5,
            "practiceLambda": 5,
            "trialLambda": 8.1,
            "instructedLambda": "honest",
            "drawnRed": 28,
            "reportedRed": 36,
            "inferredRed": 28,
            "playerTrialScore": 0,
            "oppTrialScore": 0,
            "playerTotalScore": -4,
            "oppTotalScore": 3,
            "waitTime": 5673.366155483587,
            "responseTime": 1681143958293,
            "catchQuestion": "How many <b class=\"r\">red<\/b> marbles did your opponent report drawing? ",
            "catchKey": -1,
            "catchResponse": -1,
            "catchTime": 1681143022951,
            "trialTime": 0
        },
        {
            "exptPart": "trial",
            "trialNumber": 4,
            "roleCurrent": "receiver",
            "marblesSampled": 100,
            "probRed": 0.5,
            "practiceLambda": 5,
            "trialLambda": 8.1,
            "instructedLambda": "honest",
            "drawnRed": 53,
            "reportedRed": 59,
            "inferredRed": 42,
            "playerTrialScore": -11,
            "oppTrialScore": 0,
            "playerTotalScore": -15,
            "oppTotalScore": 3,
            "waitTime": 6288.510090972237,
            "responseTime": 1681143975044,
            "catchQuestion": "How many <b class=\"r\">red<\/b> marbles did your opponent report drawing? ",
            "catchKey": -1,
            "catchResponse": -1,
            "catchTime": 1681143022951,
            "trialTime": 0
        },
        {
            "exptPart": "trial",
            "trialNumber": 5,
            "roleCurrent": "receiver",
            "marblesSampled": 100,
            "probRed": 0.5,
            "practiceLambda": 5,
            "trialLambda": 8.1,
            "instructedLambda": "honest",
            "drawnRed": 23,
            "reportedRed": 29,
            "inferredRed": 15,
            "playerTrialScore": -8,
            "oppTrialScore": 0,
            "playerTotalScore": -23,
            "oppTotalScore": 3,
            "waitTime": 6808.8284150018035,
            "responseTime": 1681143988709,
            "catchQuestion": "How many <b class=\"r\">red<\/b> marbles did your opponent report drawing? ",
            "catchKey": 29,
            "catchResponse": 29,
            "catchTime": 1681143988709,
            "trialTime": 0
        },
        {
            "exptPart": "trial",
            "trialNumber": 6,
            "roleCurrent": "receiver",
            "marblesSampled": 100,
            "probRed": 0.5,
            "practiceLambda": 5,
            "trialLambda": 8.1,
            "instructedLambda": "honest",
            "drawnRed": 54,
            "reportedRed": 63,
            "inferredRed": 15,
            "playerTrialScore": -39,
            "oppTrialScore": 0,
            "playerTotalScore": -62,
            "oppTotalScore": 3,
            "waitTime": 5497.934977242217,
            "responseTime": 1681144030130,
            "catchQuestion": "How many <b class=\"r\">red<\/b> marbles did your opponent report drawing? ",
            "catchKey": -1,
            "catchResponse": -1,
            "catchTime": 1681143988709,
            "trialTime": 0
        },
        {
            "exptPart": "trial",
            "trialNumber": 7,
            "roleCurrent": "receiver",
            "marblesSampled": 100,
            "probRed": 0.5,
            "practiceLambda": 5,
            "trialLambda": 8.1,
            "instructedLambda": "honest",
            "drawnRed": 23,
            "reportedRed": 31,
            "inferredRed": 12,
            "playerTrialScore": -11,
            "oppTrialScore": 0,
            "playerTotalScore": -73,
            "oppTotalScore": 3,
            "waitTime": 5185.766157908487,
            "responseTime": 1681144041812,
            "catchQuestion": "How many <b class=\"r\">red<\/b> marbles did your opponent report drawing? ",
            "catchKey": -1,
            "catchResponse": -1,
            "catchTime": 1681143988709,
            "trialTime": 0
        },
        {
            "exptPart": "trial",
            "trialNumber": 8,
            "roleCurrent": "receiver",
            "marblesSampled": 100,
            "probRed": 0.5,
            "practiceLambda": 5,
            "trialLambda": 8.1,
            "instructedLambda": "honest",
            "drawnRed": 37,
            "reportedRed": 42,
            "inferredRed": 36,
            "playerTrialScore": -1,
            "oppTrialScore": 0,
            "playerTotalScore": -74,
            "oppTotalScore": 3,
            "waitTime": 5309.701537034407,
            "responseTime": 1681144052707,
            "catchQuestion": "How many <b class=\"r\">red<\/b> marbles did your opponent report drawing? ",
            "catchKey": -1,
            "catchResponse": -1,
            "catchTime": 1681143988709,
            "trialTime": 0
        },
        {
            "exptPart": "trial",
            "trialNumber": 9,
            "roleCurrent": "receiver",
            "marblesSampled": 100,
            "probRed": 0.5,
            "practiceLambda": 5,
            "trialLambda": 8.1,
            "instructedLambda": "honest",
            "drawnRed": 32,
            "reportedRed": 38,
            "inferredRed": 26,
            "playerTrialScore": -6,
            "oppTrialScore": 0,
            "playerTotalScore": -80,
            "oppTotalScore": 3,
            "waitTime": 6789.226768357474,
            "responseTime": 1681144074651,
            "catchQuestion": "How many <b class=\"r\">red<\/b> marbles did your opponent report drawing? ",
            "catchKey": -1,
            "catchResponse": -1,
            "catchTime": 1681143988709,
            "trialTime": 0
        },
        {
            "exptPart": "trial",
            "trialNumber": 10,
            "roleCurrent": "receiver",
            "marblesSampled": 100,
            "probRed": 0.5,
            "practiceLambda": 5,
            "trialLambda": 8.1,
            "instructedLambda": "honest",
            "drawnRed": 41,
            "reportedRed": 49,
            "inferredRed": 36,
            "playerTrialScore": -5,
            "oppTrialScore": 0,
            "playerTotalScore": -85,
            "oppTotalScore": 3,
            "waitTime": 7461.340152546467,
            "responseTime": 1681144093554,
            "catchQuestion": "How many <b class=\"r\">red<\/b> marbles did your opponent report drawing? ",
            "catchKey": -1,
            "catchResponse": -1,
            "catchTime": 1681144093554,
            "trialTime": 0
        },
        {
            "exptPart": "trial",
            "trialNumber": 11,
            "roleCurrent": "receiver",
            "marblesSampled": 100,
            "probRed": 0.5,
            "practiceLambda": 5,
            "trialLambda": 8.1,
            "instructedLambda": "honest",
            "drawnRed": 48,
            "reportedRed": 56,
            "inferredRed": 52,
            "playerTrialScore": -4,
            "oppTrialScore": 4,
            "playerTotalScore": -89,
            "oppTotalScore": 7,
            "waitTime": 5233.09017163265,
            "responseTime": 1681144123871,
            "catchQuestion": "How many <b class=\"r\">red<\/b> marbles did your opponent report drawing? ",
            "catchKey": -1,
            "catchResponse": -1,
            "catchTime": 1681144093554,
            "trialTime": 0
        },
        {
            "exptPart": "trial",
            "trialNumber": 12,
            "roleCurrent": "receiver",
            "marblesSampled": 100,
            "probRed": 0.5,
            "practiceLambda": 5,
            "trialLambda": 8.1,
            "instructedLambda": "honest",
            "drawnRed": 61,
            "reportedRed": 68,
            "inferredRed": 61,
            "playerTrialScore": 0,
            "oppTrialScore": 0,
            "playerTotalScore": -89,
            "oppTotalScore": 7,
            "waitTime": 7327.2990526982285,
            "responseTime": 1681144134269,
            "catchQuestion": "How many <b class=\"r\">red<\/b> marbles did your opponent report drawing? ",
            "catchKey": -1,
            "catchResponse": -1,
            "catchTime": 1681144093554,
            "trialTime": 0
        },
        {
            "exptPart": "trial",
            "trialNumber": 13,
            "roleCurrent": "receiver",
            "marblesSampled": 100,
            "probRed": 0.5,
            "practiceLambda": 5,
            "trialLambda": 8.1,
            "instructedLambda": "honest",
            "drawnRed": 25,
            "reportedRed": 30,
            "inferredRed": 28,
            "playerTrialScore": -3,
            "oppTrialScore": 3,
            "playerTotalScore": -92,
            "oppTotalScore": 10,
            "waitTime": 6378.975172300154,
            "responseTime": 1681144151838,
            "catchQuestion": "How many <b class=\"r\">red<\/b> marbles did your opponent report drawing? ",
            "catchKey": -1,
            "catchResponse": -1,
            "catchTime": 1681144093554,
            "trialTime": 0
        },
        {
            "exptPart": "trial",
            "trialNumber": 14,
            "roleCurrent": "receiver",
            "marblesSampled": 100,
            "probRed": 0.5,
            "practiceLambda": 5,
            "trialLambda": 8.1,
            "instructedLambda": "honest",
            "drawnRed": 51,
            "reportedRed": 65,
            "inferredRed": 63,
            "playerTrialScore": -12,
            "oppTrialScore": 12,
            "playerTotalScore": -104,
            "oppTotalScore": 22,
            "waitTime": 6610.734273516287,
            "responseTime": 1681144168300,
            "catchQuestion": "How many <b class=\"r\">red<\/b> marbles did your opponent report drawing? ",
            "catchKey": 65,
            "catchResponse": 65,
            "catchTime": 1681144168301,
            "trialTime": 0
        },
        {
            "exptPart": "trial",
            "trialNumber": 15,
            "roleCurrent": "receiver",
            "marblesSampled": 100,
            "probRed": 0.5,
            "practiceLambda": 5,
            "trialLambda": 8.1,
            "instructedLambda": "honest",
            "drawnRed": 51,
            "reportedRed": 59,
            "inferredRed": 42,
            "playerTrialScore": -9,
            "oppTrialScore": 0,
            "playerTotalScore": -113,
            "oppTotalScore": 22,
            "waitTime": 5656.637296036241,
            "responseTime": 1681144187583,
            "catchQuestion": "How many <b class=\"r\">red<\/b> marbles did your opponent report drawing? ",
            "catchKey": -1,
            "catchResponse": -1,
            "catchTime": 1681144168301,
            "trialTime": 0
        },
        {
            "exptPart": "trial",
            "trialNumber": 16,
            "roleCurrent": "receiver",
            "marblesSampled": 100,
            "probRed": 0.5,
            "practiceLambda": 5,
            "trialLambda": 8.1,
            "instructedLambda": "honest",
            "drawnRed": 51,
            "reportedRed": 60,
            "inferredRed": 59,
            "playerTrialScore": -8,
            "oppTrialScore": 8,
            "playerTotalScore": -121,
            "oppTotalScore": 30,
            "waitTime": 6724.067251576997,
            "responseTime": 1681144200846,
            "catchQuestion": "How many <b class=\"r\">red<\/b> marbles did your opponent report drawing? ",
            "catchKey": -1,
            "catchResponse": -1,
            "catchTime": 1681144168301,
            "trialTime": 0
        },
        {
            "exptPart": "trial",
            "trialNumber": 17,
            "roleCurrent": "receiver",
            "marblesSampled": 100,
            "probRed": 0.5,
            "practiceLambda": 5,
            "trialLambda": 8.1,
            "instructedLambda": "honest",
            "drawnRed": 58,
            "reportedRed": 63,
            "inferredRed": 61,
            "playerTrialScore": -3,
            "oppTrialScore": 3,
            "playerTotalScore": -124,
            "oppTotalScore": 33,
            "waitTime": 6773.521927930675,
            "responseTime": 1681144213009,
            "catchQuestion": "How many <b class=\"r\">red<\/b> marbles did your opponent report drawing? ",
            "catchKey": -1,
            "catchResponse": -1,
            "catchTime": 1681144168301,
            "trialTime": 0
        },
        {
            "exptPart": "trial",
            "trialNumber": 18,
            "roleCurrent": "receiver",
            "marblesSampled": 100,
            "probRed": 0.5,
            "practiceLambda": 5,
            "trialLambda": 8.1,
            "instructedLambda": "honest",
            "drawnRed": 43,
            "reportedRed": 53,
            "inferredRed": 45,
            "playerTrialScore": -2,
            "oppTrialScore": 2,
            "playerTotalScore": -126,
            "oppTotalScore": 35,
            "waitTime": 6852.4714719217645,
            "responseTime": 1681144228806,
            "catchQuestion": "How many <b class=\"r\">red<\/b> marbles did your opponent report drawing? ",
            "catchKey": -1,
            "catchResponse": -1,
            "catchTime": 1681144168301,
            "trialTime": 0
        },
        {
            "exptPart": "trial",
            "trialNumber": 19,
            "roleCurrent": "receiver",
            "marblesSampled": 100,
            "probRed": 0.5,
            "practiceLambda": 5,
            "trialLambda": 8.1,
            "instructedLambda": "honest",
            "drawnRed": 45,
            "reportedRed": 50,
            "inferredRed": 36,
            "playerTrialScore": -9,
            "oppTrialScore": 0,
            "playerTotalScore": -135,
            "oppTotalScore": 35,
            "waitTime": 5785.873588520757,
            "responseTime": 1681144244086,
            "catchQuestion": "How many <b class=\"r\">red<\/b> marbles did your opponent report drawing? ",
            "catchKey": -1,
            "catchResponse": -1,
            "catchTime": 1681144168301,
            "trialTime": 0
        },
        {
            "exptPart": "trial",
            "trialNumber": 20,
            "roleCurrent": "receiver",
            "marblesSampled": 100,
            "probRed": 0.5,
            "practiceLambda": 5,
            "trialLambda": 8.1,
            "instructedLambda": "honest",
            "drawnRed": 54,
            "reportedRed": 66,
            "inferredRed": 59,
            "playerTrialScore": -5,
            "oppTrialScore": 5,
            "playerTotalScore": -140,
            "oppTotalScore": 40,
            "waitTime": 6571.392869772098,
            "responseTime": 1681144259530,
            "catchQuestion": "How many <b class=\"r\">red<\/b> marbles did your opponent report drawing? ",
            "catchKey": -1,
            "catchResponse": -1,
            "catchTime": 1681144259530,
            "trialTime": 0
        },
        {
            "exptPart": "trial",
            "trialNumber": 21,
            "roleCurrent": "receiver",
            "marblesSampled": 100,
            "probRed": 0.5,
            "practiceLambda": 5,
            "trialLambda": 8.1,
            "instructedLambda": "honest",
            "drawnRed": 57,
            "reportedRed": 67,
            "inferredRed": 62,
            "playerTrialScore": -5,
            "oppTrialScore": 5,
            "playerTotalScore": -145,
            "oppTotalScore": 45,
            "waitTime": 5318.4129047714305,
            "responseTime": 1681144309590,
            "catchQuestion": "How many <b class=\"r\">red<\/b> marbles did your opponent report drawing? ",
            "catchKey": -1,
            "catchResponse": -1,
            "catchTime": 1681144259530,
            "trialTime": 0
        },
        {
            "exptPart": "trial",
            "trialNumber": 22,
            "roleCurrent": "receiver",
            "marblesSampled": 100,
            "probRed": 0.5,
            "practiceLambda": 5,
            "trialLambda": 8.1,
            "instructedLambda": "honest",
            "drawnRed": 43,
            "reportedRed": 57,
            "inferredRed": 48,
            "playerTrialScore": -5,
            "oppTrialScore": 5,
            "playerTotalScore": -150,
            "oppTotalScore": 50,
            "waitTime": 6961.811340250168,
            "responseTime": 1681144323187,
            "catchQuestion": "How many <b class=\"r\">red<\/b> marbles did your opponent report drawing? ",
            "catchKey": -1,
            "catchResponse": -1,
            "catchTime": 1681144259530,
            "trialTime": 0
        },
        {
            "exptPart": "trial",
            "trialNumber": 23,
            "roleCurrent": "receiver",
            "marblesSampled": 100,
            "probRed": 0.5,
            "practiceLambda": 5,
            "trialLambda": 8.1,
            "instructedLambda": "honest",
            "drawnRed": 28,
            "reportedRed": 37,
            "inferredRed": 11,
            "playerTrialScore": -17,
            "oppTrialScore": 0,
            "playerTotalScore": -167,
            "oppTotalScore": 50,
            "waitTime": 6262.69645481208,
            "responseTime": 1681144343634,
            "catchQuestion": "How many <b class=\"r\">red<\/b> marbles did your opponent report drawing? ",
            "catchKey": -1,
            "catchResponse": -1,
            "catchTime": 1681144259530,
            "trialTime": 0
        },
        {
            "exptPart": "trial",
            "trialNumber": 24,
            "roleCurrent": "receiver",
            "marblesSampled": 100,
            "probRed": 0.5,
            "practiceLambda": 5,
            "trialLambda": 8.1,
            "instructedLambda": "honest",
            "drawnRed": 31,
            "reportedRed": 37,
            "inferredRed": 21,
            "playerTrialScore": -10,
            "oppTrialScore": 0,
            "playerTotalScore": -177,
            "oppTotalScore": 50,
            "waitTime": 5360.585530308061,
            "responseTime": 1681144354864,
            "catchQuestion": "How many <b class=\"r\">red<\/b> marbles did your opponent report drawing? ",
            "catchKey": -1,
            "catchResponse": -1,
            "catchTime": 1681144259530,
            "trialTime": 0
        },
        {
            "exptPart": "trial",
            "trialNumber": 25,
            "roleCurrent": "receiver",
            "marblesSampled": 100,
            "probRed": 0.5,
            "practiceLambda": 5,
            "trialLambda": 8.1,
            "instructedLambda": "honest",
            "drawnRed": 35,
            "reportedRed": 45,
            "inferredRed": 43,
            "playerTrialScore": -8,
            "oppTrialScore": 8,
            "playerTotalScore": -185,
            "oppTotalScore": 58,
            "waitTime": 7072.6407301903255,
            "responseTime": 1681144392335,
            "catchQuestion": "How many <b class=\"r\">red<\/b> marbles did your opponent report drawing? ",
            "catchKey": -1,
            "catchResponse": -1,
            "catchTime": 1681144259530,
            "trialTime": 0
        },
        {
            "exptPart": "trial",
            "trialNumber": 26,
            "roleCurrent": "receiver",
            "marblesSampled": 100,
            "probRed": 0.5,
            "practiceLambda": 5,
            "trialLambda": 8.1,
            "instructedLambda": "honest",
            "drawnRed": 40,
            "reportedRed": 43,
            "inferredRed": 40,
            "playerTrialScore": 0,
            "oppTrialScore": 0,
            "playerTotalScore": -185,
            "oppTotalScore": 58,
            "waitTime": 6836.1960142189,
            "responseTime": 1681144418857,
            "catchQuestion": "How many <b class=\"r\">red<\/b> marbles did your opponent report drawing? ",
            "catchKey": -1,
            "catchResponse": -1,
            "catchTime": 1681144259530,
            "trialTime": 0
        },
        {
            "exptPart": "trial",
            "trialNumber": 27,
            "roleCurrent": "receiver",
            "marblesSampled": 100,
            "probRed": 0.5,
            "practiceLambda": 5,
            "trialLambda": 8.1,
            "instructedLambda": "honest",
            "drawnRed": 56,
            "reportedRed": 70,
            "inferredRed": 65,
            "playerTrialScore": -9,
            "oppTrialScore": 9,
            "playerTotalScore": -194,
            "oppTotalScore": 67,
            "waitTime": 6003.022306234234,
            "responseTime": 1681144439231,
            "catchQuestion": "How many <b class=\"r\">red<\/b> marbles did your opponent report drawing? ",
            "catchKey": -1,
            "catchResponse": -1,
            "catchTime": 1681144259530,
            "trialTime": 0
        },
        {
            "exptPart": "trial",
            "trialNumber": 28,
            "roleCurrent": "receiver",
            "marblesSampled": 100,
            "probRed": 0.5,
            "practiceLambda": 5,
            "trialLambda": 8.1,
            "instructedLambda": "honest",
            "drawnRed": 65,
            "reportedRed": 70,
            "inferredRed": 66,
            "playerTrialScore": -1,
            "oppTrialScore": 1,
            "playerTotalScore": -195,
            "oppTotalScore": 68,
            "waitTime": 6177.823803332825,
            "responseTime": 1681144451222,
            "catchQuestion": "How many <b class=\"r\">red<\/b> marbles did your opponent report drawing? ",
            "catchKey": -1,
            "catchResponse": -1,
            "catchTime": 1681144259530,
            "trialTime": 0
        },
        {
            "exptPart": "trial",
            "trialNumber": 29,
            "roleCurrent": "receiver",
            "marblesSampled": 100,
            "probRed": 0.5,
            "practiceLambda": 5,
            "trialLambda": 8.1,
            "instructedLambda": "honest",
            "drawnRed": 23,
            "reportedRed": 32,
            "inferredRed": 31,
            "playerTrialScore": -8,
            "oppTrialScore": 8,
            "playerTotalScore": -203,
            "oppTotalScore": 76,
            "waitTime": 6657.872924476091,
            "responseTime": 1681144460659,
            "catchQuestion": "How many <b class=\"r\">red<\/b> marbles did your opponent report drawing? ",
            "catchKey": -1,
            "catchResponse": -1,
            "catchTime": 1681144259530,
            "trialTime": 0
        },
        {
            "exptPart": "trial",
            "trialNumber": 30,
            "roleCurrent": "receiver",
            "marblesSampled": 100,
            "probRed": 0.5,
            "practiceLambda": 5,
            "trialLambda": 8.1,
            "instructedLambda": "honest",
            "drawnRed": 44,
            "reportedRed": 55,
            "inferredRed": 52,
            "playerTrialScore": -8,
            "oppTrialScore": 8,
            "playerTotalScore": -211,
            "oppTotalScore": 84,
            "waitTime": 5846.297912337489,
            "responseTime": 1681144470620,
            "catchQuestion": "How many <b class=\"r\">red<\/b> marbles did your opponent report drawing? ",
            "catchKey": -1,
            "catchResponse": -1,
            "catchTime": 1681144470620,
            "trialTime": 0
        },
        {
            "exptPart": "trial",
            "trialNumber": 31,
            "roleCurrent": "receiver",
            "marblesSampled": 100,
            "probRed": 0.5,
            "practiceLambda": 5,
            "trialLambda": 8.1,
            "instructedLambda": "honest",
            "drawnRed": 68,
            "reportedRed": 73,
            "inferredRed": 61,
            "playerTrialScore": -7,
            "oppTrialScore": 0,
            "playerTotalScore": -218,
            "oppTotalScore": 84,
            "waitTime": 7023.979980606853,
            "responseTime": 1681144488160,
            "catchQuestion": "How many <b class=\"r\">red<\/b> marbles did your opponent report drawing? ",
            "catchKey": -1,
            "catchResponse": -1,
            "catchTime": 1681144470620,
            "trialTime": 0
        },
        {
            "exptPart": "trial",
            "trialNumber": 32,
            "roleCurrent": "receiver",
            "marblesSampled": 100,
            "probRed": 0.5,
            "practiceLambda": 5,
            "trialLambda": 8.1,
            "instructedLambda": "honest",
            "drawnRed": 62,
            "reportedRed": 71,
            "inferredRed": 68,
            "playerTrialScore": -6,
            "oppTrialScore": 6,
            "playerTotalScore": -224,
            "oppTotalScore": 90,
            "waitTime": 5244.615699367385,
            "responseTime": 1681144498806,
            "catchQuestion": "How many <b class=\"r\">red<\/b> marbles did your opponent report drawing? ",
            "catchKey": -1,
            "catchResponse": -1,
            "catchTime": 1681144470620,
            "trialTime": 0
        },
        {
            "exptPart": "trial",
            "trialNumber": 33,
            "roleCurrent": "receiver",
            "marblesSampled": 100,
            "probRed": 0.5,
            "practiceLambda": 5,
            "trialLambda": 8.1,
            "instructedLambda": "honest",
            "drawnRed": 17,
            "reportedRed": 28,
            "inferredRed": 12,
            "playerTrialScore": -5,
            "oppTrialScore": 0,
            "playerTotalScore": -229,
            "oppTotalScore": 90,
            "waitTime": 6509.150341748656,
            "responseTime": 1681144546304,
            "catchQuestion": "How many <b class=\"r\">red<\/b> marbles did your opponent report drawing? ",
            "catchKey": -1,
            "catchResponse": -1,
            "catchTime": 1681144470620,
            "trialTime": 0
        },
        {
            "exptPart": "trial",
            "trialNumber": 34,
            "roleCurrent": "receiver",
            "marblesSampled": 100,
            "probRed": 0.5,
            "practiceLambda": 5,
            "trialLambda": 8.1,
            "instructedLambda": "honest",
            "drawnRed": 86,
            "reportedRed": 94,
            "inferredRed": 75,
            "playerTrialScore": -11,
            "oppTrialScore": 0,
            "playerTotalScore": -240,
            "oppTotalScore": 90,
            "waitTime": 6417.166562607863,
            "responseTime": 1681144560843,
            "catchQuestion": "How many <b class=\"r\">red<\/b> marbles did your opponent report drawing? ",
            "catchKey": 94,
            "catchResponse": 94,
            "catchTime": 1681144560843,
            "trialTime": 0
        },
        {
            "exptPart": "trial",
            "trialNumber": 35,
            "roleCurrent": "receiver",
            "marblesSampled": 100,
            "probRed": 0.5,
            "practiceLambda": 5,
            "trialLambda": 8.1,
            "instructedLambda": "honest",
            "drawnRed": 85,
            "reportedRed": 90,
            "inferredRed": 72,
            "playerTrialScore": -13,
            "oppTrialScore": 0,
            "playerTotalScore": -253,
            "oppTotalScore": 90,
            "waitTime": 7420.822857291028,
            "responseTime": 1681144583377,
            "catchQuestion": "How many <b class=\"r\">red<\/b> marbles did your opponent report drawing? ",
            "catchKey": -1,
            "catchResponse": -1,
            "catchTime": 1681144560843,
            "trialTime": 0
        },
        {
            "exptPart": "trial",
            "trialNumber": 36,
            "roleCurrent": "receiver",
            "marblesSampled": 100,
            "probRed": 0.5,
            "practiceLambda": 5,
            "trialLambda": 8.1,
            "instructedLambda": "honest",
            "drawnRed": 50,
            "reportedRed": 59,
            "inferredRed": 38,
            "playerTrialScore": -12,
            "oppTrialScore": 0,
            "playerTotalScore": -265,
            "oppTotalScore": 90,
            "waitTime": 6080.713817177486,
            "responseTime": 1681144595488,
            "catchQuestion": "How many <b class=\"r\">red<\/b> marbles did your opponent report drawing? ",
            "catchKey": 59,
            "catchResponse": 58,
            "catchTime": 1681144595488,
            "trialTime": 0
        },
        {
            "exptPart": "trial",
            "trialNumber": 37,
            "roleCurrent": "receiver",
            "marblesSampled": 100,
            "probRed": 0.5,
            "practiceLambda": 5,
            "trialLambda": 8.1,
            "instructedLambda": "honest",
            "drawnRed": 68,
            "reportedRed": 76,
            "inferredRed": 68,
            "playerTrialScore": 0,
            "oppTrialScore": 0,
            "playerTotalScore": -265,
            "oppTotalScore": 90,
            "waitTime": 5817.988066390821,
            "responseTime": 1681144626353,
            "catchQuestion": "How many <b class=\"r\">red<\/b> marbles did your opponent report drawing? ",
            "catchKey": -1,
            "catchResponse": -1,
            "catchTime": 1681144595488,
            "trialTime": 0
        },
        {
            "exptPart": "trial",
            "trialNumber": 38,
            "roleCurrent": "receiver",
            "marblesSampled": 100,
            "probRed": 0.5,
            "practiceLambda": 5,
            "trialLambda": 8.1,
            "instructedLambda": "honest",
            "drawnRed": 64,
            "reportedRed": 72,
            "inferredRed": 48,
            "playerTrialScore": -16,
            "oppTrialScore": 0,
            "playerTotalScore": -281,
            "oppTotalScore": 90,
            "waitTime": 5368.774861627078,
            "responseTime": 1681144646022,
            "catchQuestion": "How many <b class=\"r\">red<\/b> marbles did your opponent report drawing? ",
            "catchKey": -1,
            "catchResponse": -1,
            "catchTime": 1681144595488,
            "trialTime": 0
        },
        {
            "exptPart": "trial",
            "trialNumber": 39,
            "roleCurrent": "receiver",
            "marblesSampled": 100,
            "probRed": 0.5,
            "practiceLambda": 5,
            "trialLambda": 8.1,
            "instructedLambda": "honest",
            "drawnRed": 67,
            "reportedRed": 72,
            "inferredRed": 43,
            "playerTrialScore": -24,
            "oppTrialScore": 0,
            "playerTotalScore": -305,
            "oppTotalScore": 90,
            "waitTime": 7049.540749498259,
            "responseTime": 1681144658340,
            "catchQuestion": "How many <b class=\"r\">red<\/b> marbles did your opponent report drawing? ",
            "catchKey": -1,
            "catchResponse": -1,
            "catchTime": 1681144595488,
            "trialTime": 0
        },
        {
            "exptPart": "trial",
            "trialNumber": 40,
            "roleCurrent": "receiver",
            "marblesSampled": 100,
            "probRed": 0.5,
            "practiceLambda": 5,
            "trialLambda": 8.1,
            "instructedLambda": "honest",
            "drawnRed": 71,
            "reportedRed": 80,
            "inferredRed": 72,
            "playerTrialScore": -1,
            "oppTrialScore": 1,
            "playerTotalScore": -306,
            "oppTotalScore": 91,
            "waitTime": 5330.650750666015,
            "responseTime": 1681144669827,
            "catchQuestion": "How many <b class=\"r\">red<\/b> marbles did your opponent report drawing? ",
            "catchKey": -1,
            "catchResponse": -1,
            "catchTime": 1681144669828,
            "trialTime": 0
        },
        {
            "exptPart": "trial",
            "trialNumber": 41,
            "roleCurrent": "receiver",
            "marblesSampled": 100,
            "probRed": 0.5,
            "practiceLambda": 5,
            "trialLambda": 8.1,
            "instructedLambda": "honest",
            "drawnRed": 62,
            "reportedRed": 70,
            "inferredRed": 58,
            "playerTrialScore": -4,
            "oppTrialScore": 0,
            "playerTotalScore": -310,
            "oppTotalScore": 91,
            "waitTime": 5179.433493638327,
            "responseTime": 1681144703325,
            "catchQuestion": "How many <b class=\"r\">red<\/b> marbles did your opponent report drawing? ",
            "catchKey": -1,
            "catchResponse": -1,
            "catchTime": 1681144669828,
            "trialTime": 0
        },
        {
            "exptPart": "trial",
            "trialNumber": 42,
            "roleCurrent": "receiver",
            "marblesSampled": 100,
            "probRed": 0.5,
            "practiceLambda": 5,
            "trialLambda": 8.1,
            "instructedLambda": "honest",
            "drawnRed": 59,
            "reportedRed": 73,
            "inferredRed": 68,
            "playerTrialScore": -9,
            "oppTrialScore": 9,
            "playerTotalScore": -319,
            "oppTotalScore": 100,
            "waitTime": 6536.499874444618,
            "responseTime": 1681144713920,
            "catchQuestion": "How many <b class=\"r\">red<\/b> marbles did your opponent report drawing? ",
            "catchKey": -1,
            "catchResponse": -1,
            "catchTime": 1681144669828,
            "trialTime": 0
        },
        {
            "exptPart": "trial",
            "trialNumber": 43,
            "roleCurrent": "receiver",
            "marblesSampled": 100,
            "probRed": 0.5,
            "practiceLambda": 5,
            "trialLambda": 8.1,
            "instructedLambda": "honest",
            "drawnRed": 70,
            "reportedRed": 73,
            "inferredRed": 55,
            "playerTrialScore": -15,
            "oppTrialScore": 0,
            "playerTotalScore": -334,
            "oppTotalScore": 100,
            "waitTime": 6090.557976915334,
            "responseTime": 1681144732105,
            "catchQuestion": "How many <b class=\"r\">red<\/b> marbles did your opponent report drawing? ",
            "catchKey": -1,
            "catchResponse": -1,
            "catchTime": 1681144669828,
            "trialTime": 0
        },
        {
            "exptPart": "trial",
            "trialNumber": 44,
            "roleCurrent": "receiver",
            "marblesSampled": 100,
            "probRed": 0.5,
            "practiceLambda": 5,
            "trialLambda": 8.1,
            "instructedLambda": "honest",
            "drawnRed": 63,
            "reportedRed": 68,
            "inferredRed": 61,
            "playerTrialScore": -2,
            "oppTrialScore": 0,
            "playerTotalScore": -336,
            "oppTotalScore": 100,
            "waitTime": 6325.717178631252,
            "responseTime": 1681144744399,
            "catchQuestion": "How many <b class=\"r\">red<\/b> marbles did your opponent report drawing? ",
            "catchKey": 68,
            "catchResponse": 68,
            "catchTime": 1681144744399,
            "trialTime": 0
        },
        {
            "exptPart": "trial",
            "trialNumber": 45,
            "roleCurrent": "receiver",
            "marblesSampled": 100,
            "probRed": 0.5,
            "practiceLambda": 5,
            "trialLambda": 8.1,
            "instructedLambda": "honest",
            "drawnRed": 72,
            "reportedRed": 85,
            "inferredRed": 82,
            "playerTrialScore": -10,
            "oppTrialScore": 10,
            "playerTotalScore": -346,
            "oppTotalScore": 110,
            "waitTime": 6820.718357478765,
            "responseTime": 1681144771957,
            "catchQuestion": "How many <b class=\"r\">red<\/b> marbles did your opponent report drawing? ",
            "catchKey": -1,
            "catchResponse": -1,
            "catchTime": 1681144744399,
            "trialTime": 0
        },
        {
            "exptPart": "trial",
            "trialNumber": 46,
            "roleCurrent": "receiver",
            "marblesSampled": 100,
            "probRed": 0.5,
            "practiceLambda": 5,
            "trialLambda": 8.1,
            "instructedLambda": "honest",
            "drawnRed": 92,
            "reportedRed": 100,
            "inferredRed": 36,
            "playerTrialScore": -56,
            "oppTrialScore": 0,
            "playerTotalScore": -402,
            "oppTotalScore": 110,
            "waitTime": 5984.973725036909,
            "responseTime": 1681144792595,
            "catchQuestion": "How many <b class=\"r\">red<\/b> marbles did your opponent report drawing? ",
            "catchKey": -1,
            "catchResponse": -1,
            "catchTime": 1681144744399,
            "trialTime": 0
        },
        {
            "exptPart": "trial",
            "trialNumber": 47,
            "roleCurrent": "receiver",
            "marblesSampled": 100,
            "probRed": 0.5,
            "practiceLambda": 5,
            "trialLambda": 8.1,
            "instructedLambda": "honest",
            "drawnRed": 17,
            "reportedRed": 24,
            "inferredRed": 11,
            "playerTrialScore": -6,
            "oppTrialScore": 0,
            "playerTotalScore": -408,
            "oppTotalScore": 110,
            "waitTime": 5926.549359877414,
            "responseTime": 1681144809096,
            "catchQuestion": "How many <b class=\"r\">red<\/b> marbles did your opponent report drawing? ",
            "catchKey": -1,
            "catchResponse": -1,
            "catchTime": 1681144744399,
            "trialTime": 0
        },
        {
            "exptPart": "trial",
            "trialNumber": 48,
            "roleCurrent": "receiver",
            "marblesSampled": 100,
            "probRed": 0.5,
            "practiceLambda": 5,
            "trialLambda": 8.1,
            "instructedLambda": "honest",
            "drawnRed": 9,
            "reportedRed": 14,
            "inferredRed": 16,
            "playerTrialScore": -7,
            "oppTrialScore": 7,
            "playerTotalScore": -415,
            "oppTotalScore": 117,
            "waitTime": 5990.793810152394,
            "responseTime": 1681144843365,
            "catchQuestion": "How many <b class=\"r\">red<\/b> marbles did your opponent report drawing? ",
            "catchKey": -1,
            "catchResponse": -1,
            "catchTime": 1681144744399,
            "trialTime": 0
        },
        {
            "exptPart": "trial",
            "trialNumber": 49,
            "roleCurrent": "receiver",
            "marblesSampled": 100,
            "probRed": 0.5,
            "practiceLambda": 5,
            "trialLambda": 8.1,
            "instructedLambda": "honest",
            "drawnRed": 59,
            "reportedRed": 67,
            "inferredRed": 62,
            "playerTrialScore": -3,
            "oppTrialScore": 3,
            "playerTotalScore": -418,
            "oppTotalScore": 120,
            "waitTime": 7140.1658107588,
            "responseTime": 1681144859206,
            "catchQuestion": "How many <b class=\"r\">red<\/b> marbles did your opponent report drawing? ",
            "catchKey": -1,
            "catchResponse": -1,
            "catchTime": 1681144744399,
            "trialTime": 0
        },
        {
            "exptPart": "trial",
            "trialNumber": 50,
            "roleCurrent": "receiver",
            "marblesSampled": 100,
            "probRed": 0.5,
            "practiceLambda": 5,
            "trialLambda": 8.1,
            "instructedLambda": "honest",
            "drawnRed": 32,
            "reportedRed": 37,
            "inferredRed": 21,
            "playerTrialScore": -11,
            "oppTrialScore": 0,
            "playerTotalScore": -429,
            "oppTotalScore": 120,
            "waitTime": 6530.857177022648,
            "responseTime": 1681144889780,
            "catchQuestion": "How many <b class=\"r\">red<\/b> marbles did your opponent report drawing? ",
            "catchKey": -1,
            "catchResponse": -1,
            "catchTime": 1681144889780,
            "trialTime": 0
        },
        {
            "exptPart": "trial",
            "trialNumber": 51,
            "roleCurrent": "receiver",
            "marblesSampled": 100,
            "probRed": 0.5,
            "practiceLambda": 5,
            "trialLambda": 8.1,
            "instructedLambda": "honest",
            "drawnRed": 26,
            "reportedRed": 35,
            "inferredRed": 15,
            "playerTrialScore": -11,
            "oppTrialScore": 0,
            "playerTotalScore": -440,
            "oppTotalScore": 120,
            "waitTime": 7127.532209372943,
            "responseTime": 1681144906476,
            "catchQuestion": "How many <b class=\"r\">red<\/b> marbles did your opponent report drawing? ",
            "catchKey": -1,
            "catchResponse": -1,
            "catchTime": 1681144889780,
            "trialTime": 0
        },
        {
            "exptPart": "trial",
            "trialNumber": 52,
            "roleCurrent": "receiver",
            "marblesSampled": 100,
            "probRed": 0.5,
            "practiceLambda": 5,
            "trialLambda": 8.1,
            "instructedLambda": "honest",
            "drawnRed": 46,
            "reportedRed": 51,
            "inferredRed": 36,
            "playerTrialScore": -10,
            "oppTrialScore": 0,
            "playerTotalScore": -450,
            "oppTotalScore": 120,
            "waitTime": 6020.15734448179,
            "responseTime": 1681144920648,
            "catchQuestion": "How many <b class=\"r\">red<\/b> marbles did your opponent report drawing? ",
            "catchKey": -1,
            "catchResponse": -1,
            "catchTime": 1681144889780,
            "trialTime": 0
        },
        {
            "exptPart": "trial",
            "trialNumber": 53,
            "roleCurrent": "receiver",
            "marblesSampled": 100,
            "probRed": 0.5,
            "practiceLambda": 5,
            "trialLambda": 8.1,
            "instructedLambda": "honest",
            "drawnRed": 62,
            "reportedRed": 66,
            "inferredRed": 26,
            "playerTrialScore": -36,
            "oppTrialScore": 0,
            "playerTotalScore": -486,
            "oppTotalScore": 120,
            "waitTime": 6842.619227225481,
            "responseTime": 1681144932470,
            "catchQuestion": "How many <b class=\"r\">red<\/b> marbles did your opponent report drawing? ",
            "catchKey": -1,
            "catchResponse": -1,
            "catchTime": 1681144889780,
            "trialTime": 0
        },
        {
            "exptPart": "trial",
            "trialNumber": 54,
            "roleCurrent": "receiver",
            "marblesSampled": 100,
            "probRed": 0.5,
            "practiceLambda": 5,
            "trialLambda": 8.1,
            "instructedLambda": "honest",
            "drawnRed": 19,
            "reportedRed": 29,
            "inferredRed": 11,
            "playerTrialScore": -8,
            "oppTrialScore": 0,
            "playerTotalScore": -494,
            "oppTotalScore": 120,
            "waitTime": 5878.910945775226,
            "responseTime": 1681144941964,
            "catchQuestion": "How many <b class=\"r\">red<\/b> marbles did your opponent report drawing? ",
            "catchKey": -1,
            "catchResponse": -1,
            "catchTime": 1681144889780,
            "trialTime": 0
        },
        {
            "exptPart": "trial",
            "trialNumber": 55,
            "roleCurrent": "receiver",
            "marblesSampled": 100,
            "probRed": 0.5,
            "practiceLambda": 5,
            "trialLambda": 8.1,
            "instructedLambda": "honest",
            "drawnRed": 50,
            "reportedRed": 57,
            "inferredRed": 31,
            "playerTrialScore": -19,
            "oppTrialScore": 0,
            "playerTotalScore": -513,
            "oppTotalScore": 120,
            "waitTime": 6679.835606250255,
            "responseTime": 1681144958789,
            "catchQuestion": "How many <b class=\"r\">red<\/b> marbles did your opponent report drawing? ",
            "catchKey": -1,
            "catchResponse": -1,
            "catchTime": 1681144889780,
            "trialTime": 0
        },
        {
            "exptPart": "trial",
            "trialNumber": 56,
            "roleCurrent": "receiver",
            "marblesSampled": 100,
            "probRed": 0.5,
            "practiceLambda": 5,
            "trialLambda": 8.1,
            "instructedLambda": "honest",
            "drawnRed": 18,
            "reportedRed": 26,
            "inferredRed": 11,
            "playerTrialScore": -7,
            "oppTrialScore": 0,
            "playerTotalScore": -520,
            "oppTotalScore": 120,
            "waitTime": 6727.082992706542,
            "responseTime": 1681144970442,
            "catchQuestion": "How many <b class=\"r\">red<\/b> marbles did your opponent report drawing? ",
            "catchKey": -1,
            "catchResponse": -1,
            "catchTime": 1681144889780,
            "trialTime": 0
        },
        {
            "exptPart": "trial",
            "trialNumber": 57,
            "roleCurrent": "receiver",
            "marblesSampled": 100,
            "probRed": 0.5,
            "practiceLambda": 5,
            "trialLambda": 8.1,
            "instructedLambda": "honest",
            "drawnRed": 70,
            "reportedRed": 81,
            "inferredRed": 38,
            "playerTrialScore": -32,
            "oppTrialScore": 0,
            "playerTotalScore": -552,
            "oppTotalScore": 120,
            "waitTime": 7150.301432596049,
            "responseTime": 1681144985089,
            "catchQuestion": "How many <b class=\"r\">red<\/b> marbles did your opponent report drawing? ",
            "catchKey": -1,
            "catchResponse": -1,
            "catchTime": 1681144889780,
            "trialTime": 0
        },
        {
            "exptPart": "trial",
            "trialNumber": 58,
            "roleCurrent": "receiver",
            "marblesSampled": 100,
            "probRed": 0.5,
            "practiceLambda": 5,
            "trialLambda": 8.1,
            "instructedLambda": "honest",
            "drawnRed": 55,
            "reportedRed": 63,
            "inferredRed": 42,
            "playerTrialScore": -13,
            "oppTrialScore": 0,
            "playerTotalScore": -565,
            "oppTotalScore": 120,
            "waitTime": 5707.929363378589,
            "responseTime": 1681144999040,
            "catchQuestion": "How many <b class=\"r\">red<\/b> marbles did your opponent report drawing? ",
            "catchKey": -1,
            "catchResponse": -1,
            "catchTime": 1681144889780,
            "trialTime": 0
        },
        {
            "exptPart": "trial",
            "trialNumber": 59,
            "roleCurrent": "receiver",
            "marblesSampled": 100,
            "probRed": 0.5,
            "practiceLambda": 5,
            "trialLambda": 8.1,
            "instructedLambda": "honest",
            "drawnRed": 66,
            "reportedRed": 72,
            "inferredRed": 55,
            "playerTrialScore": -11,
            "oppTrialScore": 0,
            "playerTotalScore": -576,
            "oppTotalScore": 120,
            "waitTime": 6492.961378247414,
            "responseTime": 1681145013099,
            "catchQuestion": "How many <b class=\"r\">red<\/b> marbles did your opponent report drawing? ",
            "catchKey": -1,
            "catchResponse": -1,
            "catchTime": 1681144889780,
            "trialTime": 0
        },
        {
            "exptPart": "trial",
            "trialNumber": 60,
            "roleCurrent": "receiver",
            "marblesSampled": 100,
            "probRed": 0.5,
            "practiceLambda": 5,
            "trialLambda": 8.1,
            "instructedLambda": "honest",
            "drawnRed": 36,
            "reportedRed": 48,
            "inferredRed": 26,
            "playerTrialScore": -10,
            "oppTrialScore": 0,
            "playerTotalScore": -586,
            "oppTotalScore": 120,
            "waitTime": 5496.769807667295,
            "responseTime": 1681145042128,
            "catchQuestion": "How many <b class=\"r\">red<\/b> marbles did your opponent report drawing? ",
            "catchKey": -1,
            "catchResponse": -1,
            "catchTime": 1681145042128,
            "trialTime": 0
        },
        {
            "exptPart": "trial",
            "trialNumber": 61,
            "roleCurrent": "receiver",
            "marblesSampled": 100,
            "probRed": 0.5,
            "practiceLambda": 5,
            "trialLambda": 8.1,
            "instructedLambda": "honest",
            "drawnRed": 66,
            "reportedRed": 75,
            "inferredRed": 52,
            "playerTrialScore": -14,
            "oppTrialScore": 0,
            "playerTotalScore": -600,
            "oppTotalScore": 120,
            "waitTime": 5325.92640420078,
            "responseTime": 1681145057445,
            "catchQuestion": "How many <b class=\"r\">red<\/b> marbles did your opponent report drawing? ",
            "catchKey": -1,
            "catchResponse": -1,
            "catchTime": 1681145042128,
            "trialTime": 0
        },
        {
            "exptPart": "trial",
            "trialNumber": 62,
            "roleCurrent": "receiver",
            "marblesSampled": 100,
            "probRed": 0.5,
            "practiceLambda": 5,
            "trialLambda": 8.1,
            "instructedLambda": "honest",
            "drawnRed": 60,
            "reportedRed": 69,
            "inferredRed": 15,
            "playerTrialScore": -45,
            "oppTrialScore": 0,
            "playerTotalScore": -645,
            "oppTotalScore": 120,
            "waitTime": 5197.503775719693,
            "responseTime": 1681145069391,
            "catchQuestion": "How many <b class=\"r\">red<\/b> marbles did your opponent report drawing? ",
            "catchKey": -1,
            "catchResponse": -1,
            "catchTime": 1681145042128,
            "trialTime": 0
        },
        {
            "exptPart": "trial",
            "trialNumber": 63,
            "roleCurrent": "receiver",
            "marblesSampled": 100,
            "probRed": 0.5,
            "practiceLambda": 5,
            "trialLambda": 8.1,
            "instructedLambda": "honest",
            "drawnRed": 57,
            "reportedRed": 65,
            "inferredRed": 26,
            "playerTrialScore": -31,
            "oppTrialScore": 0,
            "playerTotalScore": -676,
            "oppTotalScore": 120,
            "waitTime": 5373.533634498585,
            "responseTime": 1681145079017,
            "catchQuestion": "How many <b class=\"r\">red<\/b> marbles did your opponent report drawing? ",
            "catchKey": -1,
            "catchResponse": -1,
            "catchTime": 1681145042128,
            "trialTime": 0
        },
        {
            "exptPart": "trial",
            "trialNumber": 64,
            "roleCurrent": "receiver",
            "marblesSampled": 100,
            "probRed": 0.5,
            "practiceLambda": 5,
            "trialLambda": 8.1,
            "instructedLambda": "honest",
            "drawnRed": 18,
            "reportedRed": 28,
            "inferredRed": 12,
            "playerTrialScore": -6,
            "oppTrialScore": 0,
            "playerTotalScore": -682,
            "oppTotalScore": 120,
            "waitTime": 5408.905198294454,
            "responseTime": 1681145092968,
            "catchQuestion": "How many <b class=\"r\">red<\/b> marbles did your opponent report drawing? ",
            "catchKey": -1,
            "catchResponse": -1,
            "catchTime": 1681145042128,
            "trialTime": 0
        },
        {
            "exptPart": "trial",
            "trialNumber": 65,
            "roleCurrent": "receiver",
            "marblesSampled": 100,
            "probRed": 0.5,
            "practiceLambda": 5,
            "trialLambda": 8.1,
            "instructedLambda": "honest",
            "drawnRed": 45,
            "reportedRed": 52,
            "inferredRed": 23,
            "playerTrialScore": -22,
            "oppTrialScore": 0,
            "playerTotalScore": -704,
            "oppTotalScore": 120,
            "waitTime": 5598.9532829341,
            "responseTime": 1681145105021,
            "catchQuestion": "How many <b class=\"r\">red<\/b> marbles did your opponent report drawing? ",
            "catchKey": -1,
            "catchResponse": -1,
            "catchTime": 1681145042128,
            "trialTime": 0
        },
        {
            "exptPart": "trial",
            "trialNumber": 66,
            "roleCurrent": "receiver",
            "marblesSampled": 100,
            "probRed": 0.5,
            "practiceLambda": 5,
            "trialLambda": 8.1,
            "instructedLambda": "honest",
            "drawnRed": 13,
            "reportedRed": 21,
            "inferredRed": 11,
            "playerTrialScore": -2,
            "oppTrialScore": 0,
            "playerTotalScore": -706,
            "oppTotalScore": 120,
            "waitTime": 5199.911166669604,
            "responseTime": 1681145130979,
            "catchQuestion": "How many <b class=\"r\">red<\/b> marbles did your opponent report drawing? ",
            "catchKey": -1,
            "catchResponse": -1,
            "catchTime": 1681145042128,
            "trialTime": 0
        },
        {
            "exptPart": "trial",
            "trialNumber": 67,
            "roleCurrent": "receiver",
            "marblesSampled": 100,
            "probRed": 0.5,
            "practiceLambda": 5,
            "trialLambda": 8.1,
            "instructedLambda": "honest",
            "drawnRed": 56,
            "reportedRed": 65,
            "inferredRed": 52,
            "playerTrialScore": -4,
            "oppTrialScore": 0,
            "playerTotalScore": -710,
            "oppTotalScore": 120,
            "waitTime": 6446.063629890233,
            "responseTime": 1681145164458,
            "catchQuestion": "How many <b class=\"r\">red<\/b> marbles did your opponent report drawing? ",
            "catchKey": -1,
            "catchResponse": -1,
            "catchTime": 1681145042128,
            "trialTime": 0
        },
        {
            "exptPart": "trial",
            "trialNumber": 68,
            "roleCurrent": "receiver",
            "marblesSampled": 100,
            "probRed": 0.5,
            "practiceLambda": 5,
            "trialLambda": 8.1,
            "instructedLambda": "honest",
            "drawnRed": 26,
            "reportedRed": 33,
            "inferredRed": 21,
            "playerTrialScore": -5,
            "oppTrialScore": 0,
            "playerTotalScore": -715,
            "oppTotalScore": 120,
            "waitTime": 6405.984079025286,
            "responseTime": 1681145174602,
            "catchQuestion": "How many <b class=\"r\">red<\/b> marbles did your opponent report drawing? ",
            "catchKey": -1,
            "catchResponse": -1,
            "catchTime": 1681145042128,
            "trialTime": 0
        },
        {
            "exptPart": "trial",
            "trialNumber": 69,
            "roleCurrent": "receiver",
            "marblesSampled": 100,
            "probRed": 0.5,
            "practiceLambda": 5,
            "trialLambda": 8.1,
            "instructedLambda": "honest",
            "drawnRed": 24,
            "reportedRed": 28,
            "inferredRed": 12,
            "playerTrialScore": -12,
            "oppTrialScore": 0,
            "playerTotalScore": -727,
            "oppTotalScore": 120,
            "waitTime": 6145.875454812591,
            "responseTime": 1681145242031,
            "catchQuestion": "How many <b class=\"r\">red<\/b> marbles did your opponent report drawing? ",
            "catchKey": -1,
            "catchResponse": -1,
            "catchTime": 1681145042128,
            "trialTime": 0
        },
        {
            "exptPart": "trial",
            "trialNumber": 70,
            "roleCurrent": "receiver",
            "marblesSampled": 100,
            "probRed": 0.5,
            "practiceLambda": 5,
            "trialLambda": 8.1,
            "instructedLambda": "honest",
            "drawnRed": 72,
            "reportedRed": 85,
            "inferredRed": 76,
            "playerTrialScore": -4,
            "oppTrialScore": 4,
            "playerTotalScore": -731,
            "oppTotalScore": 124,
            "waitTime": 7272.7433208335515,
            "responseTime": 1681145275302,
            "catchQuestion": "How many <b class=\"r\">red<\/b> marbles did your opponent report drawing? ",
            "catchKey": -1,
            "catchResponse": -1,
            "catchTime": 1681145275302,
            "trialTime": 0
        },
        {
            "exptPart": "trial",
            "trialNumber": 71,
            "roleCurrent": "receiver",
            "marblesSampled": 100,
            "probRed": 0.5,
            "practiceLambda": 5,
            "trialLambda": 8.1,
            "instructedLambda": "honest",
            "drawnRed": 96,
            "reportedRed": 100,
            "inferredRed": 26,
            "playerTrialScore": -70,
            "oppTrialScore": 0,
            "playerTotalScore": -801,
            "oppTotalScore": 124,
            "waitTime": 5950.28177081388,
            "responseTime": 1681145291511,
            "catchQuestion": "How many <b class=\"r\">red<\/b> marbles did your opponent report drawing? ",
            "catchKey": -1,
            "catchResponse": -1,
            "catchTime": 1681145275302,
            "trialTime": 0
        },
        {
            "exptPart": "trial",
            "trialNumber": 72,
            "roleCurrent": "receiver",
            "marblesSampled": 100,
            "probRed": 0.5,
            "practiceLambda": 5,
            "trialLambda": 8.1,
            "instructedLambda": "honest",
            "drawnRed": 52,
            "reportedRed": 59,
            "inferredRed": 31,
            "playerTrialScore": -21,
            "oppTrialScore": 0,
            "playerTotalScore": -822,
            "oppTotalScore": 124,
            "waitTime": 6659.671788451928,
            "responseTime": 1681145304539,
            "catchQuestion": "How many <b class=\"r\">red<\/b> marbles did your opponent report drawing? ",
            "catchKey": -1,
            "catchResponse": -1,
            "catchTime": 1681145275302,
            "trialTime": 0
        },
        {
            "exptPart": "trial",
            "trialNumber": 73,
            "roleCurrent": "receiver",
            "marblesSampled": 100,
            "probRed": 0.5,
            "practiceLambda": 5,
            "trialLambda": 8.1,
            "instructedLambda": "honest",
            "drawnRed": 55,
            "reportedRed": 61,
            "inferredRed": 32,
            "playerTrialScore": -23,
            "oppTrialScore": 0,
            "playerTotalScore": -845,
            "oppTotalScore": 124,
            "waitTime": 5893.784289528237,
            "responseTime": 1681145318696,
            "catchQuestion": "How many <b class=\"r\">red<\/b> marbles did your opponent report drawing? ",
            "catchKey": -1,
            "catchResponse": -1,
            "catchTime": 1681145275302,
            "trialTime": 0
        },
        {
            "exptPart": "trial",
            "trialNumber": 74,
            "roleCurrent": "receiver",
            "marblesSampled": 100,
            "probRed": 0.5,
            "practiceLambda": 5,
            "trialLambda": 8.1,
            "instructedLambda": "honest",
            "drawnRed": 47,
            "reportedRed": 54,
            "inferredRed": 37,
            "playerTrialScore": -10,
            "oppTrialScore": 0,
            "playerTotalScore": -855,
            "oppTotalScore": 124,
            "waitTime": 5212.546907329814,
            "responseTime": 1681145333285,
            "catchQuestion": "How many <b class=\"r\">red<\/b> marbles did your opponent report drawing? ",
            "catchKey": -1,
            "catchResponse": -1,
            "catchTime": 1681145275302,
            "trialTime": 0
        },
        {
            "exptPart": "trial",
            "trialNumber": 75,
            "roleCurrent": "receiver",
            "marblesSampled": 100,
            "probRed": 0.5,
            "practiceLambda": 5,
            "trialLambda": 8.1,
            "instructedLambda": "honest",
            "drawnRed": 35,
            "reportedRed": 43,
            "inferredRed": 18,
            "playerTrialScore": -17,
            "oppTrialScore": 0,
            "playerTotalScore": -872,
            "oppTotalScore": 124,
            "waitTime": 5644.468652793309,
            "responseTime": 1681145345392,
            "catchQuestion": "How many <b class=\"r\">red<\/b> marbles did your opponent report drawing? ",
            "catchKey": -1,
            "catchResponse": -1,
            "catchTime": 1681145275302,
            "trialTime": 0
        },
        {
            "exptPart": "trial",
            "trialNumber": 76,
            "roleCurrent": "receiver",
            "marblesSampled": 100,
            "probRed": 0.5,
            "practiceLambda": 5,
            "trialLambda": 8.1,
            "instructedLambda": "honest",
            "drawnRed": 25,
            "reportedRed": 36,
            "inferredRed": 12,
            "playerTrialScore": -13,
            "oppTrialScore": 0,
            "playerTotalScore": -885,
            "oppTotalScore": 124,
            "waitTime": 5395.674345590793,
            "responseTime": 1681145363281,
            "catchQuestion": "How many <b class=\"r\">red<\/b> marbles did your opponent report drawing? ",
            "catchKey": -1,
            "catchResponse": -1,
            "catchTime": 1681145275302,
            "trialTime": 0
        },
        {
            "exptPart": "trial",
            "trialNumber": 77,
            "roleCurrent": "receiver",
            "marblesSampled": 100,
            "probRed": 0.5,
            "practiceLambda": 5,
            "trialLambda": 8.1,
            "instructedLambda": "honest",
            "drawnRed": 74,
            "reportedRed": 85,
            "inferredRed": 64,
            "playerTrialScore": -10,
            "oppTrialScore": 0,
            "playerTotalScore": -895,
            "oppTotalScore": 124,
            "waitTime": 6334.144438877492,
            "responseTime": 1681145377383,
            "catchQuestion": "How many <b class=\"r\">red<\/b> marbles did your opponent report drawing? ",
            "catchKey": -1,
            "catchResponse": -1,
            "catchTime": 1681145275302,
            "trialTime": 0
        },
        {
            "exptPart": "trial",
            "trialNumber": 78,
            "roleCurrent": "receiver",
            "marblesSampled": 100,
            "probRed": 0.5,
            "practiceLambda": 5,
            "trialLambda": 8.1,
            "instructedLambda": "honest",
            "drawnRed": 54,
            "reportedRed": 59,
            "inferredRed": 34,
            "playerTrialScore": -20,
            "oppTrialScore": 0,
            "playerTotalScore": -915,
            "oppTotalScore": 124,
            "waitTime": 5900.992646115315,
            "responseTime": 1681145400040,
            "catchQuestion": "How many <b class=\"r\">red<\/b> marbles did your opponent report drawing? ",
            "catchKey": -1,
            "catchResponse": -1,
            "catchTime": 1681145275302,
            "trialTime": 0
        },
        {
            "exptPart": "trial",
            "trialNumber": 79,
            "roleCurrent": "receiver",
            "marblesSampled": 100,
            "probRed": 0.5,
            "practiceLambda": 5,
            "trialLambda": 8.1,
            "instructedLambda": "honest",
            "drawnRed": 33,
            "reportedRed": 44,
            "inferredRed": 15,
            "playerTrialScore": -18,
            "oppTrialScore": 0,
            "playerTotalScore": -933,
            "oppTotalScore": 124,
            "waitTime": 5631.028706646348,
            "responseTime": 1681145412843,
            "catchQuestion": "How many <b class=\"r\">red<\/b> marbles did your opponent report drawing? ",
            "catchKey": 44,
            "catchResponse": 44,
            "catchTime": 1681145412844,
            "trialTime": 0
        },
        {
            "exptPart": "trial",
            "trialNumber": 80,
            "roleCurrent": "receiver",
            "marblesSampled": 100,
            "probRed": 0.5,
            "practiceLambda": 5,
            "trialLambda": 8.1,
            "instructedLambda": "honest",
            "drawnRed": 55,
            "reportedRed": 65,
            "inferredRed": 42,
            "playerTrialScore": -13,
            "oppTrialScore": 0,
            "playerTotalScore": -946,
            "oppTotalScore": 124,
            "waitTime": 5647.284326407313,
            "responseTime": 1681145429294,
            "catchQuestion": "How many <b class=\"r\">red<\/b> marbles did your opponent report drawing? ",
            "catchKey": -1,
            "catchResponse": -1,
            "catchTime": 1681145429294,
            "trialTime": 0
        },
        {
            "exptPart": "trial",
            "trialNumber": 81,
            "roleCurrent": "receiver",
            "marblesSampled": 100,
            "probRed": 0.5,
            "practiceLambda": 5,
            "trialLambda": 8.1,
            "instructedLambda": "honest",
            "drawnRed": 50,
            "reportedRed": 55,
            "inferredRed": 23,
            "playerTrialScore": -27,
            "oppTrialScore": 0,
            "playerTotalScore": -973,
            "oppTotalScore": 124,
            "waitTime": 6847.3264681007695,
            "responseTime": 1681145444875,
            "catchQuestion": "How many <b class=\"r\">red<\/b> marbles did your opponent report drawing? ",
            "catchKey": -1,
            "catchResponse": -1,
            "catchTime": 1681145429294,
            "trialTime": 0
        },
        {
            "exptPart": "trial",
            "trialNumber": 82,
            "roleCurrent": "receiver",
            "marblesSampled": 100,
            "probRed": 0.5,
            "practiceLambda": 5,
            "trialLambda": 8.1,
            "instructedLambda": "honest",
            "drawnRed": 69,
            "reportedRed": 79,
            "inferredRed": 53,
            "playerTrialScore": -16,
            "oppTrialScore": 0,
            "playerTotalScore": -989,
            "oppTotalScore": 124,
            "waitTime": 5708.42634199514,
            "responseTime": 1681145465563,
            "catchQuestion": "How many <b class=\"r\">red<\/b> marbles did your opponent report drawing? ",
            "catchKey": -1,
            "catchResponse": -1,
            "catchTime": 1681145429294,
            "trialTime": 0
        },
        {
            "exptPart": "trial",
            "trialNumber": 83,
            "roleCurrent": "receiver",
            "marblesSampled": 100,
            "probRed": 0.5,
            "practiceLambda": 5,
            "trialLambda": 8.1,
            "instructedLambda": "honest",
            "drawnRed": 34,
            "reportedRed": 44,
            "inferredRed": 14,
            "playerTrialScore": -20,
            "oppTrialScore": 0,
            "playerTotalScore": -1009,
            "oppTotalScore": 124,
            "waitTime": 7088.942163878564,
            "responseTime": 1681145477234,
            "catchQuestion": "How many <b class=\"r\">red<\/b> marbles did your opponent report drawing? ",
            "catchKey": -1,
            "catchResponse": -1,
            "catchTime": 1681145429294,
            "trialTime": 0
        },
        {
            "exptPart": "trial",
            "trialNumber": 84,
            "roleCurrent": "receiver",
            "marblesSampled": 100,
            "probRed": 0.5,
            "practiceLambda": 5,
            "trialLambda": 8.1,
            "instructedLambda": "honest",
            "drawnRed": 52,
            "reportedRed": 57,
            "inferredRed": 28,
            "playerTrialScore": -24,
            "oppTrialScore": 0,
            "playerTotalScore": -1033,
            "oppTotalScore": 124,
            "waitTime": 5737.51026051289,
            "responseTime": 1681145502005,
            "catchQuestion": "How many <b class=\"r\">red<\/b> marbles did your opponent report drawing? ",
            "catchKey": 57,
            "catchResponse": 57,
            "catchTime": 1681145502005,
            "trialTime": 0
        },
        {
            "exptPart": "trial",
            "trialNumber": 85,
            "roleCurrent": "receiver",
            "marblesSampled": 100,
            "probRed": 0.5,
            "practiceLambda": 5,
            "trialLambda": 8.1,
            "instructedLambda": "honest",
            "drawnRed": 69,
            "reportedRed": 75,
            "inferredRed": 54,
            "playerTrialScore": -15,
            "oppTrialScore": 0,
            "playerTotalScore": -1048,
            "oppTotalScore": 124,
            "waitTime": 5272.511959459093,
            "responseTime": 1681145528606,
            "catchQuestion": "How many <b class=\"r\">red<\/b> marbles did your opponent report drawing? ",
            "catchKey": -1,
            "catchResponse": -1,
            "catchTime": 1681145502005,
            "trialTime": 0
        },
        {
            "exptPart": "trial",
            "trialNumber": 86,
            "roleCurrent": "receiver",
            "marblesSampled": 100,
            "probRed": 0.5,
            "practiceLambda": 5,
            "trialLambda": 8.1,
            "instructedLambda": "honest",
            "drawnRed": 44,
            "reportedRed": 48,
            "inferredRed": 32,
            "playerTrialScore": -12,
            "oppTrialScore": 0,
            "playerTotalScore": -1060,
            "oppTotalScore": 124,
            "waitTime": 6279.610239605014,
            "responseTime": 1681145542427,
            "catchQuestion": "How many <b class=\"r\">red<\/b> marbles did your opponent report drawing? ",
            "catchKey": -1,
            "catchResponse": -1,
            "catchTime": 1681145502005,
            "trialTime": 0
        },
        {
            "exptPart": "trial",
            "trialNumber": 87,
            "roleCurrent": "receiver",
            "marblesSampled": 100,
            "probRed": 0.5,
            "practiceLambda": 5,
            "trialLambda": 8.1,
            "instructedLambda": "honest",
            "drawnRed": 56,
            "reportedRed": 59,
            "inferredRed": 38,
            "playerTrialScore": -18,
            "oppTrialScore": 0,
            "playerTotalScore": -1078,
            "oppTotalScore": 124,
            "waitTime": 5483.058371837984,
            "responseTime": 1681145563481,
            "catchQuestion": "How many <b class=\"r\">red<\/b> marbles did your opponent report drawing? ",
            "catchKey": 59,
            "catchResponse": 59,
            "catchTime": 1681145563481,
            "trialTime": 0
        },
        {
            "exptPart": "trial",
            "trialNumber": 88,
            "roleCurrent": "receiver",
            "marblesSampled": 100,
            "probRed": 0.5,
            "practiceLambda": 5,
            "trialLambda": 8.1,
            "instructedLambda": "honest",
            "drawnRed": 17,
            "reportedRed": 26,
            "inferredRed": 5,
            "playerTrialScore": -12,
            "oppTrialScore": 0,
            "playerTotalScore": -1090,
            "oppTotalScore": 124,
            "waitTime": 5215.69754172901,
            "responseTime": 1681145578609,
            "catchQuestion": "How many <b class=\"r\">red<\/b> marbles did your opponent report drawing? ",
            "catchKey": -1,
            "catchResponse": -1,
            "catchTime": 1681145563481,
            "trialTime": 0
        },
        {
            "exptPart": "trial",
            "trialNumber": 89,
            "roleCurrent": "receiver",
            "marblesSampled": 100,
            "probRed": 0.5,
            "practiceLambda": 5,
            "trialLambda": 8.1,
            "instructedLambda": "honest",
            "drawnRed": 53,
            "reportedRed": 59,
            "inferredRed": 46,
            "playerTrialScore": -7,
            "oppTrialScore": 0,
            "playerTotalScore": -1097,
            "oppTotalScore": 124,
            "waitTime": 7042.096157529879,
            "responseTime": 1681145594113,
            "catchQuestion": "How many <b class=\"r\">red<\/b> marbles did your opponent report drawing? ",
            "catchKey": -1,
            "catchResponse": -1,
            "catchTime": 1681145563481,
            "trialTime": 0
        },
        {
            "exptPart": "trial",
            "trialNumber": 90,
            "roleCurrent": "receiver",
            "marblesSampled": 100,
            "probRed": 0.5,
            "practiceLambda": 5,
            "trialLambda": 8.1,
            "instructedLambda": "honest",
            "drawnRed": 32,
            "reportedRed": 34,
            "inferredRed": 14,
            "playerTrialScore": -18,
            "oppTrialScore": 0,
            "playerTotalScore": -1115,
            "oppTotalScore": 124,
            "waitTime": 6998.834294175671,
            "responseTime": 1681145607467,
            "catchQuestion": "How many <b class=\"r\">red<\/b> marbles did your opponent report drawing? ",
            "catchKey": -1,
            "catchResponse": -1,
            "catchTime": 1681145607467,
            "trialTime": 0
        },
        {
            "exptPart": "trial",
            "trialNumber": 91,
            "roleCurrent": "receiver",
            "marblesSampled": 100,
            "probRed": 0.5,
            "practiceLambda": 5,
            "trialLambda": 8.1,
            "instructedLambda": "honest",
            "drawnRed": 77,
            "reportedRed": 84,
            "inferredRed": 56,
            "playerTrialScore": -21,
            "oppTrialScore": 0,
            "playerTotalScore": -1136,
            "oppTotalScore": 124,
            "waitTime": 5800.098234851538,
            "responseTime": 1681145626716,
            "catchQuestion": "How many <b class=\"r\">red<\/b> marbles did your opponent report drawing? ",
            "catchKey": -1,
            "catchResponse": -1,
            "catchTime": 1681145607467,
            "trialTime": 0
        },
        {
            "exptPart": "trial",
            "trialNumber": 92,
            "roleCurrent": "receiver",
            "marblesSampled": 100,
            "probRed": 0.5,
            "practiceLambda": 5,
            "trialLambda": 8.1,
            "instructedLambda": "honest",
            "drawnRed": 56,
            "reportedRed": 68,
            "inferredRed": 46,
            "playerTrialScore": -10,
            "oppTrialScore": 0,
            "playerTotalScore": -1146,
            "oppTotalScore": 124,
            "waitTime": 6688.3623059909605,
            "responseTime": 1681145641197,
            "catchQuestion": "How many <b class=\"r\">red<\/b> marbles did your opponent report drawing? ",
            "catchKey": -1,
            "catchResponse": -1,
            "catchTime": 1681145607467,
            "trialTime": 0
        },
        {
            "exptPart": "trial",
            "trialNumber": 93,
            "roleCurrent": "receiver",
            "marblesSampled": 100,
            "probRed": 0.5,
            "practiceLambda": 5,
            "trialLambda": 8.1,
            "instructedLambda": "honest",
            "drawnRed": 67,
            "reportedRed": 72,
            "inferredRed": 54,
            "playerTrialScore": -13,
            "oppTrialScore": 0,
            "playerTotalScore": -1159,
            "oppTotalScore": 124,
            "waitTime": 5453.272472747838,
            "responseTime": 1681145653935,
            "catchQuestion": "How many <b class=\"r\">red<\/b> marbles did your opponent report drawing? ",
            "catchKey": -1,
            "catchResponse": -1,
            "catchTime": 1681145607467,
            "trialTime": 0
        },
        {
            "exptPart": "trial",
            "trialNumber": 94,
            "roleCurrent": "receiver",
            "marblesSampled": 100,
            "probRed": 0.5,
            "practiceLambda": 5,
            "trialLambda": 8.1,
            "instructedLambda": "honest",
            "drawnRed": 65,
            "reportedRed": 74,
            "inferredRed": 38,
            "playerTrialScore": -27,
            "oppTrialScore": 0,
            "playerTotalScore": -1186,
            "oppTotalScore": 124,
            "waitTime": 5970.9189590523565,
            "responseTime": 1681145672052,
            "catchQuestion": "How many <b class=\"r\">red<\/b> marbles did your opponent report drawing? ",
            "catchKey": -1,
            "catchResponse": -1,
            "catchTime": 1681145607467,
            "trialTime": 0
        },
        {
            "exptPart": "trial",
            "trialNumber": 95,
            "roleCurrent": "receiver",
            "marblesSampled": 100,
            "probRed": 0.5,
            "practiceLambda": 5,
            "trialLambda": 8.1,
            "instructedLambda": "honest",
            "drawnRed": 45,
            "reportedRed": 57,
            "inferredRed": 38,
            "playerTrialScore": -7,
            "oppTrialScore": 0,
            "playerTotalScore": -1193,
            "oppTotalScore": 124,
            "waitTime": 6211.914645753495,
            "responseTime": 1681145686842,
            "catchQuestion": "How many <b class=\"r\">red<\/b> marbles did your opponent report drawing? ",
            "catchKey": -1,
            "catchResponse": -1,
            "catchTime": 1681145607467,
            "trialTime": 0
        },
        {
            "exptPart": "trial",
            "trialNumber": 96,
            "roleCurrent": "receiver",
            "marblesSampled": 100,
            "probRed": 0.5,
            "practiceLambda": 5,
            "trialLambda": 8.1,
            "instructedLambda": "honest",
            "drawnRed": 38,
            "reportedRed": 43,
            "inferredRed": 19,
            "playerTrialScore": -19,
            "oppTrialScore": 0,
            "playerTotalScore": -1212,
            "oppTotalScore": 124,
            "waitTime": 5656.065631266149,
            "responseTime": 1681145699615,
            "catchQuestion": "How many <b class=\"r\">red<\/b> marbles did your opponent report drawing? ",
            "catchKey": -1,
            "catchResponse": -1,
            "catchTime": 1681145607467,
            "trialTime": 0
        },
        {
            "exptPart": "trial",
            "trialNumber": 97,
            "roleCurrent": "receiver",
            "marblesSampled": 100,
            "probRed": 0.5,
            "practiceLambda": 5,
            "trialLambda": 8.1,
            "instructedLambda": "honest",
            "drawnRed": 33,
            "reportedRed": 39,
            "inferredRed": 12,
            "playerTrialScore": -21,
            "oppTrialScore": 0,
            "playerTotalScore": -1233,
            "oppTotalScore": 124,
            "waitTime": 5177.021881493538,
            "responseTime": 1681145709248,
            "catchQuestion": "How many <b class=\"r\">red<\/b> marbles did your opponent report drawing? ",
            "catchKey": 39,
            "catchResponse": 39,
            "catchTime": 1681145709249,
            "trialTime": 0
        },
        {
            "exptPart": "trial",
            "trialNumber": 98,
            "roleCurrent": "receiver",
            "marblesSampled": 100,
            "probRed": 0.5,
            "practiceLambda": 5,
            "trialLambda": 8.1,
            "instructedLambda": "honest",
            "drawnRed": 38,
            "reportedRed": 47,
            "inferredRed": 15,
            "playerTrialScore": -23,
            "oppTrialScore": 0,
            "playerTotalScore": -1256,
            "oppTotalScore": 124,
            "waitTime": 5229.2004452146375,
            "responseTime": 1681145728756,
            "catchQuestion": "How many <b class=\"r\">red<\/b> marbles did your opponent report drawing? ",
            "catchKey": 47,
            "catchResponse": 47,
            "catchTime": 1681145728756,
            "trialTime": 0
        },
        {
            "exptPart": "trial",
            "trialNumber": 99,
            "roleCurrent": "receiver",
            "marblesSampled": 100,
            "probRed": 0.5,
            "practiceLambda": 5,
            "trialLambda": 8.1,
            "instructedLambda": "honest",
            "drawnRed": 62,
            "reportedRed": 71,
            "inferredRed": 56,
            "playerTrialScore": -6,
            "oppTrialScore": 0,
            "playerTotalScore": -1262,
            "oppTotalScore": 124,
            "waitTime": 5377.169797275892,
            "responseTime": 1681145742843,
            "catchQuestion": "How many <b class=\"r\">red<\/b> marbles did your opponent report drawing? ",
            "catchKey": -1,
            "catchResponse": -1,
            "catchTime": 1681145728756,
            "trialTime": 0
        },
        {
            "exptPart": "trial",
            "trialNumber": 100,
            "roleCurrent": "receiver",
            "marblesSampled": 100,
            "probRed": 0.5,
            "practiceLambda": 5,
            "trialLambda": 8.1,
            "instructedLambda": "honest",
            "drawnRed": 62,
            "reportedRed": 71,
            "inferredRed": 54,
            "playerTrialScore": -8,
            "oppTrialScore": 0,
            "playerTotalScore": -1270,
            "oppTotalScore": 124,
            "waitTime": 6438.222623838876,
            "responseTime": 1681145753970,
            "catchQuestion": "How many <b class=\"r\">red<\/b> marbles did your opponent report drawing? ",
            "catchKey": -1,
            "catchResponse": -1,
            "catchTime": 1681145753970,
            "trialTime": 0
        }
    ]
}