{
    "client": {
        "type": "sona",
        "experiment_id": 2228,
        "credit_token": "b315147ae43241ea9c65086cb510cfb7",
        "survey_code": "43359",
        "sid": "sona-43359",
        "window": {
            "width": 1920,
            "height": 969
        },
        "screen": {
            "width": 1920,
            "height": 1080
        },
        "userAgent": "Mozilla\/5.0 (Windows NT 10.0; Win64; x64) AppleWebKit\/537.36 (KHTML, like Gecko) Chrome\/111.0.0.0 Safari\/537.36",
        "score": 0,
        "bonus": 0
    },
    "expt": {
        "saveURL": "submit.simple.php",
        "trials": 100,
        "practiceTrials": 2,
        "marblesSampled": 100,
        "probRed": 0.5,
        "practiceLambdaAI": 5,
        "lambdaAI": 8.1,
        "roles": [
            "sender",
            "receiver"
        ],
        "cost": "unif",
        "goal": "over",
        "oppDishonesty": "dishonest_small",
        "catchTrials": [
            68,
            95,
            8,
            32,
            52,
            54,
            50,
            74,
            25,
            37
        ],
        "scoreTotal": {
            "player": -1637,
            "opp": 848
        },
        "sona": {
            "experiment_id": 2228,
            "credit_token": "b315147ae43241ea9c65086cb510cfb7"
        },
        "pilot": false,
        "debug": false
    },
    "trials": [
        {
            "exptPart": "practice",
            "trialNumber": 1,
            "roleCurrent": "sender",
            "marblesSampled": 100,
            "probRed": 0.5,
            "practiceLambda": 5,
            "trialLambda": 8.1,
            "instructedLambda": "dishonest_small",
            "drawnRed": 47,
            "reportedRed": 8,
            "inferredRed": 6,
            "playerTrialScore": 0,
            "oppTrialScore": -41,
            "playerTotalScore": 0,
            "oppTotalScore": -41,
            "waitTime": 2305.058940064252,
            "responseTime": 1680814767168,
            "catchQuestion": "How many <b class=\"r\">red<\/b> marbles did you actually draw (before any changes)? ",
            "catchKey": 47,
            "catchResponse": 55,
            "catchTime": 1680814767168,
            "trialTime": 0
        },
        {
            "exptPart": "practice",
            "trialNumber": 2,
            "roleCurrent": "receiver",
            "marblesSampled": 100,
            "probRed": 0.5,
            "practiceLambda": 5,
            "trialLambda": 8.1,
            "instructedLambda": "dishonest_small",
            "drawnRed": 42,
            "reportedRed": 51,
            "inferredRed": 50,
            "playerTrialScore": -8,
            "oppTrialScore": 8,
            "playerTotalScore": -8,
            "oppTotalScore": -33,
            "waitTime": 5985.583874755526,
            "responseTime": 1680814824692,
            "catchQuestion": "How many <b class=\"r\">red<\/b> marbles did your opponent report drawing? ",
            "catchKey": 51,
            "catchResponse": 54,
            "catchTime": 1680814824692,
            "trialTime": 0
        },
        {
            "exptPart": "trial",
            "trialNumber": 1,
            "roleCurrent": "receiver",
            "marblesSampled": 100,
            "probRed": 0.5,
            "practiceLambda": 5,
            "trialLambda": 8.1,
            "instructedLambda": "dishonest_small",
            "drawnRed": 87,
            "reportedRed": 95,
            "inferredRed": 50,
            "playerTrialScore": -37,
            "oppTrialScore": 0,
            "playerTotalScore": -37,
            "oppTotalScore": 0,
            "waitTime": 5267.973846864901,
            "responseTime": 1680814865633,
            "catchQuestion": "How many <b class=\"r\">red<\/b> marbles did your opponent report drawing? ",
            "catchKey": -1,
            "catchResponse": -1,
            "catchTime": 1680814824692,
            "trialTime": 0
        },
        {
            "exptPart": "trial",
            "trialNumber": 2,
            "roleCurrent": "receiver",
            "marblesSampled": 100,
            "probRed": 0.5,
            "practiceLambda": 5,
            "trialLambda": 8.1,
            "instructedLambda": "dishonest_small",
            "drawnRed": 82,
            "reportedRed": 89,
            "inferredRed": 50,
            "playerTrialScore": -32,
            "oppTrialScore": 0,
            "playerTotalScore": -69,
            "oppTotalScore": 0,
            "waitTime": 5744.721068036064,
            "responseTime": 1680814875897,
            "catchQuestion": "How many <b class=\"r\">red<\/b> marbles did your opponent report drawing? ",
            "catchKey": -1,
            "catchResponse": -1,
            "catchTime": 1680814824692,
            "trialTime": 0
        },
        {
            "exptPart": "trial",
            "trialNumber": 3,
            "roleCurrent": "receiver",
            "marblesSampled": 100,
            "probRed": 0.5,
            "practiceLambda": 5,
            "trialLambda": 8.1,
            "instructedLambda": "dishonest_small",
            "drawnRed": 31,
            "reportedRed": 44,
            "inferredRed": 50,
            "playerTrialScore": -19,
            "oppTrialScore": 19,
            "playerTotalScore": -88,
            "oppTotalScore": 19,
            "waitTime": 5976.741079718424,
            "responseTime": 1680814885579,
            "catchQuestion": "How many <b class=\"r\">red<\/b> marbles did your opponent report drawing? ",
            "catchKey": -1,
            "catchResponse": -1,
            "catchTime": 1680814824692,
            "trialTime": 0
        },
        {
            "exptPart": "trial",
            "trialNumber": 4,
            "roleCurrent": "receiver",
            "marblesSampled": 100,
            "probRed": 0.5,
            "practiceLambda": 5,
            "trialLambda": 8.1,
            "instructedLambda": "dishonest_small",
            "drawnRed": 62,
            "reportedRed": 68,
            "inferredRed": 50,
            "playerTrialScore": -12,
            "oppTrialScore": 0,
            "playerTotalScore": -100,
            "oppTotalScore": 19,
            "waitTime": 6237.740212006693,
            "responseTime": 1680814894769,
            "catchQuestion": "How many <b class=\"r\">red<\/b> marbles did your opponent report drawing? ",
            "catchKey": -1,
            "catchResponse": -1,
            "catchTime": 1680814824692,
            "trialTime": 0
        },
        {
            "exptPart": "trial",
            "trialNumber": 5,
            "roleCurrent": "receiver",
            "marblesSampled": 100,
            "probRed": 0.5,
            "practiceLambda": 5,
            "trialLambda": 8.1,
            "instructedLambda": "dishonest_small",
            "drawnRed": 66,
            "reportedRed": 76,
            "inferredRed": 50,
            "playerTrialScore": -16,
            "oppTrialScore": 0,
            "playerTotalScore": -116,
            "oppTotalScore": 19,
            "waitTime": 6933.718685420445,
            "responseTime": 1680814904794,
            "catchQuestion": "How many <b class=\"r\">red<\/b> marbles did your opponent report drawing? ",
            "catchKey": -1,
            "catchResponse": -1,
            "catchTime": 1680814824692,
            "trialTime": 0
        },
        {
            "exptPart": "trial",
            "trialNumber": 6,
            "roleCurrent": "receiver",
            "marblesSampled": 100,
            "probRed": 0.5,
            "practiceLambda": 5,
            "trialLambda": 8.1,
            "instructedLambda": "dishonest_small",
            "drawnRed": 61,
            "reportedRed": 70,
            "inferredRed": 50,
            "playerTrialScore": -11,
            "oppTrialScore": 0,
            "playerTotalScore": -127,
            "oppTotalScore": 19,
            "waitTime": 7310.62746553037,
            "responseTime": 1680814915233,
            "catchQuestion": "How many <b class=\"r\">red<\/b> marbles did your opponent report drawing? ",
            "catchKey": -1,
            "catchResponse": -1,
            "catchTime": 1680814824692,
            "trialTime": 0
        },
        {
            "exptPart": "trial",
            "trialNumber": 7,
            "roleCurrent": "receiver",
            "marblesSampled": 100,
            "probRed": 0.5,
            "practiceLambda": 5,
            "trialLambda": 8.1,
            "instructedLambda": "dishonest_small",
            "drawnRed": 84,
            "reportedRed": 91,
            "inferredRed": 50,
            "playerTrialScore": -34,
            "oppTrialScore": 0,
            "playerTotalScore": -161,
            "oppTotalScore": 19,
            "waitTime": 6290.486161903874,
            "responseTime": 1680814924051,
            "catchQuestion": "How many <b class=\"r\">red<\/b> marbles did your opponent report drawing? ",
            "catchKey": -1,
            "catchResponse": -1,
            "catchTime": 1680814824692,
            "trialTime": 0
        },
        {
            "exptPart": "trial",
            "trialNumber": 8,
            "roleCurrent": "receiver",
            "marblesSampled": 100,
            "probRed": 0.5,
            "practiceLambda": 5,
            "trialLambda": 8.1,
            "instructedLambda": "dishonest_small",
            "drawnRed": 37,
            "reportedRed": 49,
            "inferredRed": 50,
            "playerTrialScore": -13,
            "oppTrialScore": 13,
            "playerTotalScore": -174,
            "oppTotalScore": 32,
            "waitTime": 7323.329658101001,
            "responseTime": 1680814936796,
            "catchQuestion": "How many <b class=\"r\">red<\/b> marbles did your opponent report drawing? ",
            "catchKey": -1,
            "catchResponse": -1,
            "catchTime": 1680814824692,
            "trialTime": 0
        },
        {
            "exptPart": "trial",
            "trialNumber": 9,
            "roleCurrent": "receiver",
            "marblesSampled": 100,
            "probRed": 0.5,
            "practiceLambda": 5,
            "trialLambda": 8.1,
            "instructedLambda": "dishonest_small",
            "drawnRed": 55,
            "reportedRed": 63,
            "inferredRed": 50,
            "playerTrialScore": -5,
            "oppTrialScore": 0,
            "playerTotalScore": -179,
            "oppTotalScore": 32,
            "waitTime": 5728.265742118455,
            "responseTime": 1680814945762,
            "catchQuestion": "How many <b class=\"r\">red<\/b> marbles did your opponent report drawing? ",
            "catchKey": 63,
            "catchResponse": 60,
            "catchTime": 1680814945762,
            "trialTime": 0
        },
        {
            "exptPart": "trial",
            "trialNumber": 10,
            "roleCurrent": "receiver",
            "marblesSampled": 100,
            "probRed": 0.5,
            "practiceLambda": 5,
            "trialLambda": 8.1,
            "instructedLambda": "dishonest_small",
            "drawnRed": 72,
            "reportedRed": 80,
            "inferredRed": 50,
            "playerTrialScore": -22,
            "oppTrialScore": 0,
            "playerTotalScore": -201,
            "oppTotalScore": 32,
            "waitTime": 5411.237171758863,
            "responseTime": 1680814969579,
            "catchQuestion": "How many <b class=\"r\">red<\/b> marbles did your opponent report drawing? ",
            "catchKey": -1,
            "catchResponse": -1,
            "catchTime": 1680814969579,
            "trialTime": 0
        },
        {
            "exptPart": "trial",
            "trialNumber": 11,
            "roleCurrent": "receiver",
            "marblesSampled": 100,
            "probRed": 0.5,
            "practiceLambda": 5,
            "trialLambda": 8.1,
            "instructedLambda": "dishonest_small",
            "drawnRed": 37,
            "reportedRed": 48,
            "inferredRed": 50,
            "playerTrialScore": -13,
            "oppTrialScore": 13,
            "playerTotalScore": -214,
            "oppTotalScore": 45,
            "waitTime": 5636.249567755858,
            "responseTime": 1680814986405,
            "catchQuestion": "How many <b class=\"r\">red<\/b> marbles did your opponent report drawing? ",
            "catchKey": -1,
            "catchResponse": -1,
            "catchTime": 1680814969579,
            "trialTime": 0
        },
        {
            "exptPart": "trial",
            "trialNumber": 12,
            "roleCurrent": "receiver",
            "marblesSampled": 100,
            "probRed": 0.5,
            "practiceLambda": 5,
            "trialLambda": 8.1,
            "instructedLambda": "dishonest_small",
            "drawnRed": 57,
            "reportedRed": 62,
            "inferredRed": 50,
            "playerTrialScore": -7,
            "oppTrialScore": 0,
            "playerTotalScore": -221,
            "oppTotalScore": 45,
            "waitTime": 6065.028246747103,
            "responseTime": 1680815000235,
            "catchQuestion": "How many <b class=\"r\">red<\/b> marbles did your opponent report drawing? ",
            "catchKey": -1,
            "catchResponse": -1,
            "catchTime": 1680814969579,
            "trialTime": 0
        },
        {
            "exptPart": "trial",
            "trialNumber": 13,
            "roleCurrent": "receiver",
            "marblesSampled": 100,
            "probRed": 0.5,
            "practiceLambda": 5,
            "trialLambda": 8.1,
            "instructedLambda": "dishonest_small",
            "drawnRed": 89,
            "reportedRed": 100,
            "inferredRed": 50,
            "playerTrialScore": -39,
            "oppTrialScore": 0,
            "playerTotalScore": -260,
            "oppTotalScore": 45,
            "waitTime": 5444.579164693145,
            "responseTime": 1680815009402,
            "catchQuestion": "How many <b class=\"r\">red<\/b> marbles did your opponent report drawing? ",
            "catchKey": -1,
            "catchResponse": -1,
            "catchTime": 1680814969579,
            "trialTime": 0
        },
        {
            "exptPart": "trial",
            "trialNumber": 14,
            "roleCurrent": "receiver",
            "marblesSampled": 100,
            "probRed": 0.5,
            "practiceLambda": 5,
            "trialLambda": 8.1,
            "instructedLambda": "dishonest_small",
            "drawnRed": 50,
            "reportedRed": 52,
            "inferredRed": 50,
            "playerTrialScore": 0,
            "oppTrialScore": 0,
            "playerTotalScore": -260,
            "oppTotalScore": 45,
            "waitTime": 7076.681335361515,
            "responseTime": 1680815021067,
            "catchQuestion": "How many <b class=\"r\">red<\/b> marbles did your opponent report drawing? ",
            "catchKey": -1,
            "catchResponse": -1,
            "catchTime": 1680814969579,
            "trialTime": 0
        },
        {
            "exptPart": "trial",
            "trialNumber": 15,
            "roleCurrent": "receiver",
            "marblesSampled": 100,
            "probRed": 0.5,
            "practiceLambda": 5,
            "trialLambda": 8.1,
            "instructedLambda": "dishonest_small",
            "drawnRed": 79,
            "reportedRed": 88,
            "inferredRed": 50,
            "playerTrialScore": -29,
            "oppTrialScore": 0,
            "playerTotalScore": -289,
            "oppTotalScore": 45,
            "waitTime": 5685.342029931979,
            "responseTime": 1680815031062,
            "catchQuestion": "How many <b class=\"r\">red<\/b> marbles did your opponent report drawing? ",
            "catchKey": -1,
            "catchResponse": -1,
            "catchTime": 1680814969579,
            "trialTime": 0
        },
        {
            "exptPart": "trial",
            "trialNumber": 16,
            "roleCurrent": "receiver",
            "marblesSampled": 100,
            "probRed": 0.5,
            "practiceLambda": 5,
            "trialLambda": 8.1,
            "instructedLambda": "dishonest_small",
            "drawnRed": 33,
            "reportedRed": 44,
            "inferredRed": 50,
            "playerTrialScore": -17,
            "oppTrialScore": 17,
            "playerTotalScore": -306,
            "oppTotalScore": 62,
            "waitTime": 6306.393070690974,
            "responseTime": 1680815041524,
            "catchQuestion": "How many <b class=\"r\">red<\/b> marbles did your opponent report drawing? ",
            "catchKey": -1,
            "catchResponse": -1,
            "catchTime": 1680814969579,
            "trialTime": 0
        },
        {
            "exptPart": "trial",
            "trialNumber": 17,
            "roleCurrent": "receiver",
            "marblesSampled": 100,
            "probRed": 0.5,
            "practiceLambda": 5,
            "trialLambda": 8.1,
            "instructedLambda": "dishonest_small",
            "drawnRed": 42,
            "reportedRed": 51,
            "inferredRed": 50,
            "playerTrialScore": -8,
            "oppTrialScore": 8,
            "playerTotalScore": -314,
            "oppTotalScore": 70,
            "waitTime": 5160.877945333096,
            "responseTime": 1680815049991,
            "catchQuestion": "How many <b class=\"r\">red<\/b> marbles did your opponent report drawing? ",
            "catchKey": -1,
            "catchResponse": -1,
            "catchTime": 1680814969579,
            "trialTime": 0
        },
        {
            "exptPart": "trial",
            "trialNumber": 18,
            "roleCurrent": "receiver",
            "marblesSampled": 100,
            "probRed": 0.5,
            "practiceLambda": 5,
            "trialLambda": 8.1,
            "instructedLambda": "dishonest_small",
            "drawnRed": 71,
            "reportedRed": 76,
            "inferredRed": 50,
            "playerTrialScore": -21,
            "oppTrialScore": 0,
            "playerTotalScore": -335,
            "oppTotalScore": 70,
            "waitTime": 6394.135594769917,
            "responseTime": 1680815058813,
            "catchQuestion": "How many <b class=\"r\">red<\/b> marbles did your opponent report drawing? ",
            "catchKey": -1,
            "catchResponse": -1,
            "catchTime": 1680814969579,
            "trialTime": 0
        },
        {
            "exptPart": "trial",
            "trialNumber": 19,
            "roleCurrent": "receiver",
            "marblesSampled": 100,
            "probRed": 0.5,
            "practiceLambda": 5,
            "trialLambda": 8.1,
            "instructedLambda": "dishonest_small",
            "drawnRed": 34,
            "reportedRed": 45,
            "inferredRed": 50,
            "playerTrialScore": -16,
            "oppTrialScore": 16,
            "playerTotalScore": -351,
            "oppTotalScore": 86,
            "waitTime": 5381.439762304975,
            "responseTime": 1680815066936,
            "catchQuestion": "How many <b class=\"r\">red<\/b> marbles did your opponent report drawing? ",
            "catchKey": -1,
            "catchResponse": -1,
            "catchTime": 1680814969579,
            "trialTime": 0
        },
        {
            "exptPart": "trial",
            "trialNumber": 20,
            "roleCurrent": "receiver",
            "marblesSampled": 100,
            "probRed": 0.5,
            "practiceLambda": 5,
            "trialLambda": 8.1,
            "instructedLambda": "dishonest_small",
            "drawnRed": 70,
            "reportedRed": 82,
            "inferredRed": 50,
            "playerTrialScore": -20,
            "oppTrialScore": 0,
            "playerTotalScore": -371,
            "oppTotalScore": 86,
            "waitTime": 5897.472659655605,
            "responseTime": 1680815075951,
            "catchQuestion": "How many <b class=\"r\">red<\/b> marbles did your opponent report drawing? ",
            "catchKey": -1,
            "catchResponse": -1,
            "catchTime": 1680815075951,
            "trialTime": 0
        },
        {
            "exptPart": "trial",
            "trialNumber": 21,
            "roleCurrent": "receiver",
            "marblesSampled": 100,
            "probRed": 0.5,
            "practiceLambda": 5,
            "trialLambda": 8.1,
            "instructedLambda": "dishonest_small",
            "drawnRed": 38,
            "reportedRed": 48,
            "inferredRed": 50,
            "playerTrialScore": -12,
            "oppTrialScore": 12,
            "playerTotalScore": -383,
            "oppTotalScore": 98,
            "waitTime": 5581.00994539165,
            "responseTime": 1680815089522,
            "catchQuestion": "How many <b class=\"r\">red<\/b> marbles did your opponent report drawing? ",
            "catchKey": -1,
            "catchResponse": -1,
            "catchTime": 1680815075951,
            "trialTime": 0
        },
        {
            "exptPart": "trial",
            "trialNumber": 22,
            "roleCurrent": "receiver",
            "marblesSampled": 100,
            "probRed": 0.5,
            "practiceLambda": 5,
            "trialLambda": 8.1,
            "instructedLambda": "dishonest_small",
            "drawnRed": 64,
            "reportedRed": 76,
            "inferredRed": 50,
            "playerTrialScore": -14,
            "oppTrialScore": 0,
            "playerTotalScore": -397,
            "oppTotalScore": 98,
            "waitTime": 7208.046797994208,
            "responseTime": 1680815100137,
            "catchQuestion": "How many <b class=\"r\">red<\/b> marbles did your opponent report drawing? ",
            "catchKey": -1,
            "catchResponse": -1,
            "catchTime": 1680815075951,
            "trialTime": 0
        },
        {
            "exptPart": "trial",
            "trialNumber": 23,
            "roleCurrent": "receiver",
            "marblesSampled": 100,
            "probRed": 0.5,
            "practiceLambda": 5,
            "trialLambda": 8.1,
            "instructedLambda": "dishonest_small",
            "drawnRed": 30,
            "reportedRed": 38,
            "inferredRed": 50,
            "playerTrialScore": -20,
            "oppTrialScore": 20,
            "playerTotalScore": -417,
            "oppTotalScore": 118,
            "waitTime": 5128.803784115489,
            "responseTime": 1680815108003,
            "catchQuestion": "How many <b class=\"r\">red<\/b> marbles did your opponent report drawing? ",
            "catchKey": -1,
            "catchResponse": -1,
            "catchTime": 1680815075951,
            "trialTime": 0
        },
        {
            "exptPart": "trial",
            "trialNumber": 24,
            "roleCurrent": "receiver",
            "marblesSampled": 100,
            "probRed": 0.5,
            "practiceLambda": 5,
            "trialLambda": 8.1,
            "instructedLambda": "dishonest_small",
            "drawnRed": 26,
            "reportedRed": 36,
            "inferredRed": 50,
            "playerTrialScore": -24,
            "oppTrialScore": 24,
            "playerTotalScore": -441,
            "oppTotalScore": 142,
            "waitTime": 5579.192057287797,
            "responseTime": 1680815116869,
            "catchQuestion": "How many <b class=\"r\">red<\/b> marbles did your opponent report drawing? ",
            "catchKey": -1,
            "catchResponse": -1,
            "catchTime": 1680815075951,
            "trialTime": 0
        },
        {
            "exptPart": "trial",
            "trialNumber": 25,
            "roleCurrent": "receiver",
            "marblesSampled": 100,
            "probRed": 0.5,
            "practiceLambda": 5,
            "trialLambda": 8.1,
            "instructedLambda": "dishonest_small",
            "drawnRed": 40,
            "reportedRed": 45,
            "inferredRed": 50,
            "playerTrialScore": -10,
            "oppTrialScore": 10,
            "playerTotalScore": -451,
            "oppTotalScore": 152,
            "waitTime": 5941.296593095796,
            "responseTime": 1680815125461,
            "catchQuestion": "How many <b class=\"r\">red<\/b> marbles did your opponent report drawing? ",
            "catchKey": -1,
            "catchResponse": -1,
            "catchTime": 1680815075951,
            "trialTime": 0
        },
        {
            "exptPart": "trial",
            "trialNumber": 26,
            "roleCurrent": "receiver",
            "marblesSampled": 100,
            "probRed": 0.5,
            "practiceLambda": 5,
            "trialLambda": 8.1,
            "instructedLambda": "dishonest_small",
            "drawnRed": 45,
            "reportedRed": 55,
            "inferredRed": 50,
            "playerTrialScore": -5,
            "oppTrialScore": 5,
            "playerTotalScore": -456,
            "oppTotalScore": 157,
            "waitTime": 6634.40552446128,
            "responseTime": 1680815136456,
            "catchQuestion": "How many <b class=\"r\">red<\/b> marbles did your opponent report drawing? ",
            "catchKey": 55,
            "catchResponse": 55,
            "catchTime": 1680815136456,
            "trialTime": 0
        },
        {
            "exptPart": "trial",
            "trialNumber": 27,
            "roleCurrent": "receiver",
            "marblesSampled": 100,
            "probRed": 0.5,
            "practiceLambda": 5,
            "trialLambda": 8.1,
            "instructedLambda": "dishonest_small",
            "drawnRed": 76,
            "reportedRed": 81,
            "inferredRed": 50,
            "playerTrialScore": -26,
            "oppTrialScore": 0,
            "playerTotalScore": -482,
            "oppTotalScore": 157,
            "waitTime": 6604.367251045619,
            "responseTime": 1680815150574,
            "catchQuestion": "How many <b class=\"r\">red<\/b> marbles did your opponent report drawing? ",
            "catchKey": -1,
            "catchResponse": -1,
            "catchTime": 1680815136456,
            "trialTime": 0
        },
        {
            "exptPart": "trial",
            "trialNumber": 28,
            "roleCurrent": "receiver",
            "marblesSampled": 100,
            "probRed": 0.5,
            "practiceLambda": 5,
            "trialLambda": 8.1,
            "instructedLambda": "dishonest_small",
            "drawnRed": 49,
            "reportedRed": 54,
            "inferredRed": 50,
            "playerTrialScore": -1,
            "oppTrialScore": 1,
            "playerTotalScore": -483,
            "oppTotalScore": 158,
            "waitTime": 5697.735383801086,
            "responseTime": 1680815159274,
            "catchQuestion": "How many <b class=\"r\">red<\/b> marbles did your opponent report drawing? ",
            "catchKey": -1,
            "catchResponse": -1,
            "catchTime": 1680815136456,
            "trialTime": 0
        },
        {
            "exptPart": "trial",
            "trialNumber": 29,
            "roleCurrent": "receiver",
            "marblesSampled": 100,
            "probRed": 0.5,
            "practiceLambda": 5,
            "trialLambda": 8.1,
            "instructedLambda": "dishonest_small",
            "drawnRed": 41,
            "reportedRed": 52,
            "inferredRed": 50,
            "playerTrialScore": -9,
            "oppTrialScore": 9,
            "playerTotalScore": -492,
            "oppTotalScore": 167,
            "waitTime": 5391.084066077157,
            "responseTime": 1680815167358,
            "catchQuestion": "How many <b class=\"r\">red<\/b> marbles did your opponent report drawing? ",
            "catchKey": -1,
            "catchResponse": -1,
            "catchTime": 1680815136456,
            "trialTime": 0
        },
        {
            "exptPart": "trial",
            "trialNumber": 30,
            "roleCurrent": "receiver",
            "marblesSampled": 100,
            "probRed": 0.5,
            "practiceLambda": 5,
            "trialLambda": 8.1,
            "instructedLambda": "dishonest_small",
            "drawnRed": 85,
            "reportedRed": 97,
            "inferredRed": 50,
            "playerTrialScore": -35,
            "oppTrialScore": 0,
            "playerTotalScore": -527,
            "oppTotalScore": 167,
            "waitTime": 6479.300711694652,
            "responseTime": 1680815177019,
            "catchQuestion": "How many <b class=\"r\">red<\/b> marbles did your opponent report drawing? ",
            "catchKey": -1,
            "catchResponse": -1,
            "catchTime": 1680815177019,
            "trialTime": 0
        },
        {
            "exptPart": "trial",
            "trialNumber": 31,
            "roleCurrent": "receiver",
            "marblesSampled": 100,
            "probRed": 0.5,
            "practiceLambda": 5,
            "trialLambda": 8.1,
            "instructedLambda": "dishonest_small",
            "drawnRed": 33,
            "reportedRed": 38,
            "inferredRed": 50,
            "playerTrialScore": -17,
            "oppTrialScore": 17,
            "playerTotalScore": -544,
            "oppTotalScore": 184,
            "waitTime": 5893.81166554879,
            "responseTime": 1680815189029,
            "catchQuestion": "How many <b class=\"r\">red<\/b> marbles did your opponent report drawing? ",
            "catchKey": -1,
            "catchResponse": -1,
            "catchTime": 1680815177019,
            "trialTime": 0
        },
        {
            "exptPart": "trial",
            "trialNumber": 32,
            "roleCurrent": "receiver",
            "marblesSampled": 100,
            "probRed": 0.5,
            "practiceLambda": 5,
            "trialLambda": 8.1,
            "instructedLambda": "dishonest_small",
            "drawnRed": 57,
            "reportedRed": 67,
            "inferredRed": 50,
            "playerTrialScore": -7,
            "oppTrialScore": 0,
            "playerTotalScore": -551,
            "oppTotalScore": 184,
            "waitTime": 5208.869268925345,
            "responseTime": 1680815196447,
            "catchQuestion": "How many <b class=\"r\">red<\/b> marbles did your opponent report drawing? ",
            "catchKey": -1,
            "catchResponse": -1,
            "catchTime": 1680815177019,
            "trialTime": 0
        },
        {
            "exptPart": "trial",
            "trialNumber": 33,
            "roleCurrent": "receiver",
            "marblesSampled": 100,
            "probRed": 0.5,
            "practiceLambda": 5,
            "trialLambda": 8.1,
            "instructedLambda": "dishonest_small",
            "drawnRed": 19,
            "reportedRed": 28,
            "inferredRed": 50,
            "playerTrialScore": -31,
            "oppTrialScore": 31,
            "playerTotalScore": -582,
            "oppTotalScore": 215,
            "waitTime": 7370.865511156961,
            "responseTime": 1680815208018,
            "catchQuestion": "How many <b class=\"r\">red<\/b> marbles did your opponent report drawing? ",
            "catchKey": 28,
            "catchResponse": 28,
            "catchTime": 1680815208018,
            "trialTime": 0
        },
        {
            "exptPart": "trial",
            "trialNumber": 34,
            "roleCurrent": "receiver",
            "marblesSampled": 100,
            "probRed": 0.5,
            "practiceLambda": 5,
            "trialLambda": 8.1,
            "instructedLambda": "dishonest_small",
            "drawnRed": 56,
            "reportedRed": 65,
            "inferredRed": 50,
            "playerTrialScore": -6,
            "oppTrialScore": 0,
            "playerTotalScore": -588,
            "oppTotalScore": 215,
            "waitTime": 6028.9570708785195,
            "responseTime": 1680815221325,
            "catchQuestion": "How many <b class=\"r\">red<\/b> marbles did your opponent report drawing? ",
            "catchKey": -1,
            "catchResponse": -1,
            "catchTime": 1680815208018,
            "trialTime": 0
        },
        {
            "exptPart": "trial",
            "trialNumber": 35,
            "roleCurrent": "receiver",
            "marblesSampled": 100,
            "probRed": 0.5,
            "practiceLambda": 5,
            "trialLambda": 8.1,
            "instructedLambda": "dishonest_small",
            "drawnRed": 73,
            "reportedRed": 81,
            "inferredRed": 50,
            "playerTrialScore": -23,
            "oppTrialScore": 0,
            "playerTotalScore": -611,
            "oppTotalScore": 215,
            "waitTime": 6660.866068836129,
            "responseTime": 1680815231227,
            "catchQuestion": "How many <b class=\"r\">red<\/b> marbles did your opponent report drawing? ",
            "catchKey": -1,
            "catchResponse": -1,
            "catchTime": 1680815208018,
            "trialTime": 0
        },
        {
            "exptPart": "trial",
            "trialNumber": 36,
            "roleCurrent": "receiver",
            "marblesSampled": 100,
            "probRed": 0.5,
            "practiceLambda": 5,
            "trialLambda": 8.1,
            "instructedLambda": "dishonest_small",
            "drawnRed": 22,
            "reportedRed": 34,
            "inferredRed": 50,
            "playerTrialScore": -28,
            "oppTrialScore": 28,
            "playerTotalScore": -639,
            "oppTotalScore": 243,
            "waitTime": 7470.248632635944,
            "responseTime": 1680815242300,
            "catchQuestion": "How many <b class=\"r\">red<\/b> marbles did your opponent report drawing? ",
            "catchKey": -1,
            "catchResponse": -1,
            "catchTime": 1680815208018,
            "trialTime": 0
        },
        {
            "exptPart": "trial",
            "trialNumber": 37,
            "roleCurrent": "receiver",
            "marblesSampled": 100,
            "probRed": 0.5,
            "practiceLambda": 5,
            "trialLambda": 8.1,
            "instructedLambda": "dishonest_small",
            "drawnRed": 49,
            "reportedRed": 60,
            "inferredRed": 50,
            "playerTrialScore": -1,
            "oppTrialScore": 1,
            "playerTotalScore": -640,
            "oppTotalScore": 244,
            "waitTime": 5377.729689465421,
            "responseTime": 1680815251416,
            "catchQuestion": "How many <b class=\"r\">red<\/b> marbles did your opponent report drawing? ",
            "catchKey": -1,
            "catchResponse": -1,
            "catchTime": 1680815208018,
            "trialTime": 0
        },
        {
            "exptPart": "trial",
            "trialNumber": 38,
            "roleCurrent": "receiver",
            "marblesSampled": 100,
            "probRed": 0.5,
            "practiceLambda": 5,
            "trialLambda": 8.1,
            "instructedLambda": "dishonest_small",
            "drawnRed": 20,
            "reportedRed": 29,
            "inferredRed": 50,
            "playerTrialScore": -30,
            "oppTrialScore": 30,
            "playerTotalScore": -670,
            "oppTotalScore": 274,
            "waitTime": 5348.5717225702465,
            "responseTime": 1680815273259,
            "catchQuestion": "How many <b class=\"r\">red<\/b> marbles did your opponent report drawing? ",
            "catchKey": 29,
            "catchResponse": 29,
            "catchTime": 1680815273259,
            "trialTime": 0
        },
        {
            "exptPart": "trial",
            "trialNumber": 39,
            "roleCurrent": "receiver",
            "marblesSampled": 100,
            "probRed": 0.5,
            "practiceLambda": 5,
            "trialLambda": 8.1,
            "instructedLambda": "dishonest_small",
            "drawnRed": 43,
            "reportedRed": 53,
            "inferredRed": 50,
            "playerTrialScore": -7,
            "oppTrialScore": 7,
            "playerTotalScore": -677,
            "oppTotalScore": 281,
            "waitTime": 5945.604466973444,
            "responseTime": 1680815290344,
            "catchQuestion": "How many <b class=\"r\">red<\/b> marbles did your opponent report drawing? ",
            "catchKey": -1,
            "catchResponse": -1,
            "catchTime": 1680815273259,
            "trialTime": 0
        },
        {
            "exptPart": "trial",
            "trialNumber": 40,
            "roleCurrent": "receiver",
            "marblesSampled": 100,
            "probRed": 0.5,
            "practiceLambda": 5,
            "trialLambda": 8.1,
            "instructedLambda": "dishonest_small",
            "drawnRed": 28,
            "reportedRed": 33,
            "inferredRed": 50,
            "playerTrialScore": -22,
            "oppTrialScore": 22,
            "playerTotalScore": -699,
            "oppTotalScore": 303,
            "waitTime": 6769.2500694672935,
            "responseTime": 1680815300882,
            "catchQuestion": "How many <b class=\"r\">red<\/b> marbles did your opponent report drawing? ",
            "catchKey": -1,
            "catchResponse": -1,
            "catchTime": 1680815300882,
            "trialTime": 0
        },
        {
            "exptPart": "trial",
            "trialNumber": 41,
            "roleCurrent": "receiver",
            "marblesSampled": 100,
            "probRed": 0.5,
            "practiceLambda": 5,
            "trialLambda": 8.1,
            "instructedLambda": "dishonest_small",
            "drawnRed": 65,
            "reportedRed": 71,
            "inferredRed": 50,
            "playerTrialScore": -15,
            "oppTrialScore": 0,
            "playerTotalScore": -714,
            "oppTotalScore": 303,
            "waitTime": 6132.537600587186,
            "responseTime": 1680815311907,
            "catchQuestion": "How many <b class=\"r\">red<\/b> marbles did your opponent report drawing? ",
            "catchKey": -1,
            "catchResponse": -1,
            "catchTime": 1680815300882,
            "trialTime": 0
        },
        {
            "exptPart": "trial",
            "trialNumber": 42,
            "roleCurrent": "receiver",
            "marblesSampled": 100,
            "probRed": 0.5,
            "practiceLambda": 5,
            "trialLambda": 8.1,
            "instructedLambda": "dishonest_small",
            "drawnRed": 42,
            "reportedRed": 49,
            "inferredRed": 50,
            "playerTrialScore": -8,
            "oppTrialScore": 8,
            "playerTotalScore": -722,
            "oppTotalScore": 311,
            "waitTime": 5694.10782796237,
            "responseTime": 1680815320451,
            "catchQuestion": "How many <b class=\"r\">red<\/b> marbles did your opponent report drawing? ",
            "catchKey": -1,
            "catchResponse": -1,
            "catchTime": 1680815300882,
            "trialTime": 0
        },
        {
            "exptPart": "trial",
            "trialNumber": 43,
            "roleCurrent": "receiver",
            "marblesSampled": 100,
            "probRed": 0.5,
            "practiceLambda": 5,
            "trialLambda": 8.1,
            "instructedLambda": "dishonest_small",
            "drawnRed": 69,
            "reportedRed": 79,
            "inferredRed": 50,
            "playerTrialScore": -19,
            "oppTrialScore": 0,
            "playerTotalScore": -741,
            "oppTotalScore": 311,
            "waitTime": 5859.547741407234,
            "responseTime": 1680815329787,
            "catchQuestion": "How many <b class=\"r\">red<\/b> marbles did your opponent report drawing? ",
            "catchKey": -1,
            "catchResponse": -1,
            "catchTime": 1680815300882,
            "trialTime": 0
        },
        {
            "exptPart": "trial",
            "trialNumber": 44,
            "roleCurrent": "receiver",
            "marblesSampled": 100,
            "probRed": 0.5,
            "practiceLambda": 5,
            "trialLambda": 8.1,
            "instructedLambda": "dishonest_small",
            "drawnRed": 61,
            "reportedRed": 74,
            "inferredRed": 50,
            "playerTrialScore": -11,
            "oppTrialScore": 0,
            "playerTotalScore": -752,
            "oppTotalScore": 311,
            "waitTime": 7196.253954010796,
            "responseTime": 1680815340596,
            "catchQuestion": "How many <b class=\"r\">red<\/b> marbles did your opponent report drawing? ",
            "catchKey": -1,
            "catchResponse": -1,
            "catchTime": 1680815300882,
            "trialTime": 0
        },
        {
            "exptPart": "trial",
            "trialNumber": 45,
            "roleCurrent": "receiver",
            "marblesSampled": 100,
            "probRed": 0.5,
            "practiceLambda": 5,
            "trialLambda": 8.1,
            "instructedLambda": "dishonest_small",
            "drawnRed": 29,
            "reportedRed": 31,
            "inferredRed": 50,
            "playerTrialScore": -21,
            "oppTrialScore": 21,
            "playerTotalScore": -773,
            "oppTotalScore": 332,
            "waitTime": 6973.930342174146,
            "responseTime": 1680815350906,
            "catchQuestion": "How many <b class=\"r\">red<\/b> marbles did your opponent report drawing? ",
            "catchKey": -1,
            "catchResponse": -1,
            "catchTime": 1680815300882,
            "trialTime": 0
        },
        {
            "exptPart": "trial",
            "trialNumber": 46,
            "roleCurrent": "receiver",
            "marblesSampled": 100,
            "probRed": 0.5,
            "practiceLambda": 5,
            "trialLambda": 8.1,
            "instructedLambda": "dishonest_small",
            "drawnRed": 76,
            "reportedRed": 81,
            "inferredRed": 50,
            "playerTrialScore": -26,
            "oppTrialScore": 0,
            "playerTotalScore": -799,
            "oppTotalScore": 332,
            "waitTime": 5536.049968880446,
            "responseTime": 1680815359608,
            "catchQuestion": "How many <b class=\"r\">red<\/b> marbles did your opponent report drawing? ",
            "catchKey": -1,
            "catchResponse": -1,
            "catchTime": 1680815300882,
            "trialTime": 0
        },
        {
            "exptPart": "trial",
            "trialNumber": 47,
            "roleCurrent": "receiver",
            "marblesSampled": 100,
            "probRed": 0.5,
            "practiceLambda": 5,
            "trialLambda": 8.1,
            "instructedLambda": "dishonest_small",
            "drawnRed": 41,
            "reportedRed": 50,
            "inferredRed": 50,
            "playerTrialScore": -9,
            "oppTrialScore": 9,
            "playerTotalScore": -808,
            "oppTotalScore": 341,
            "waitTime": 6538.574714572273,
            "responseTime": 1680815369826,
            "catchQuestion": "How many <b class=\"r\">red<\/b> marbles did your opponent report drawing? ",
            "catchKey": -1,
            "catchResponse": -1,
            "catchTime": 1680815300882,
            "trialTime": 0
        },
        {
            "exptPart": "trial",
            "trialNumber": 48,
            "roleCurrent": "receiver",
            "marblesSampled": 100,
            "probRed": 0.5,
            "practiceLambda": 5,
            "trialLambda": 8.1,
            "instructedLambda": "dishonest_small",
            "drawnRed": 40,
            "reportedRed": 48,
            "inferredRed": 50,
            "playerTrialScore": -10,
            "oppTrialScore": 10,
            "playerTotalScore": -818,
            "oppTotalScore": 351,
            "waitTime": 5198.535835961512,
            "responseTime": 1680815395781,
            "catchQuestion": "How many <b class=\"r\">red<\/b> marbles did your opponent report drawing? ",
            "catchKey": -1,
            "catchResponse": -1,
            "catchTime": 1680815300882,
            "trialTime": 0
        },
        {
            "exptPart": "trial",
            "trialNumber": 49,
            "roleCurrent": "receiver",
            "marblesSampled": 100,
            "probRed": 0.5,
            "practiceLambda": 5,
            "trialLambda": 8.1,
            "instructedLambda": "dishonest_small",
            "drawnRed": 64,
            "reportedRed": 72,
            "inferredRed": 50,
            "playerTrialScore": -14,
            "oppTrialScore": 0,
            "playerTotalScore": -832,
            "oppTotalScore": 351,
            "waitTime": 6646.514962511994,
            "responseTime": 1680815406520,
            "catchQuestion": "How many <b class=\"r\">red<\/b> marbles did your opponent report drawing? ",
            "catchKey": -1,
            "catchResponse": -1,
            "catchTime": 1680815300882,
            "trialTime": 0
        },
        {
            "exptPart": "trial",
            "trialNumber": 50,
            "roleCurrent": "receiver",
            "marblesSampled": 100,
            "probRed": 0.5,
            "practiceLambda": 5,
            "trialLambda": 8.1,
            "instructedLambda": "dishonest_small",
            "drawnRed": 55,
            "reportedRed": 62,
            "inferredRed": 50,
            "playerTrialScore": -5,
            "oppTrialScore": 0,
            "playerTotalScore": -837,
            "oppTotalScore": 351,
            "waitTime": 7481.9352984239185,
            "responseTime": 1680815417395,
            "catchQuestion": "How many <b class=\"r\">red<\/b> marbles did your opponent report drawing? ",
            "catchKey": -1,
            "catchResponse": -1,
            "catchTime": 1680815417395,
            "trialTime": 0
        },
        {
            "exptPart": "trial",
            "trialNumber": 51,
            "roleCurrent": "receiver",
            "marblesSampled": 100,
            "probRed": 0.5,
            "practiceLambda": 5,
            "trialLambda": 8.1,
            "instructedLambda": "dishonest_small",
            "drawnRed": 46,
            "reportedRed": 59,
            "inferredRed": 50,
            "playerTrialScore": -4,
            "oppTrialScore": 4,
            "playerTotalScore": -841,
            "oppTotalScore": 355,
            "waitTime": 6004.651461636897,
            "responseTime": 1680815428808,
            "catchQuestion": "How many <b class=\"r\">red<\/b> marbles did your opponent report drawing? ",
            "catchKey": 59,
            "catchResponse": 59,
            "catchTime": 1680815428808,
            "trialTime": 0
        },
        {
            "exptPart": "trial",
            "trialNumber": 52,
            "roleCurrent": "receiver",
            "marblesSampled": 100,
            "probRed": 0.5,
            "practiceLambda": 5,
            "trialLambda": 8.1,
            "instructedLambda": "dishonest_small",
            "drawnRed": 54,
            "reportedRed": 68,
            "inferredRed": 50,
            "playerTrialScore": -4,
            "oppTrialScore": 0,
            "playerTotalScore": -845,
            "oppTotalScore": 355,
            "waitTime": 6206.643109610144,
            "responseTime": 1680815441990,
            "catchQuestion": "How many <b class=\"r\">red<\/b> marbles did your opponent report drawing? ",
            "catchKey": -1,
            "catchResponse": -1,
            "catchTime": 1680815428808,
            "trialTime": 0
        },
        {
            "exptPart": "trial",
            "trialNumber": 53,
            "roleCurrent": "receiver",
            "marblesSampled": 100,
            "probRed": 0.5,
            "practiceLambda": 5,
            "trialLambda": 8.1,
            "instructedLambda": "dishonest_small",
            "drawnRed": 43,
            "reportedRed": 52,
            "inferredRed": 50,
            "playerTrialScore": -7,
            "oppTrialScore": 7,
            "playerTotalScore": -852,
            "oppTotalScore": 362,
            "waitTime": 7132.239608673701,
            "responseTime": 1680815451954,
            "catchQuestion": "How many <b class=\"r\">red<\/b> marbles did your opponent report drawing? ",
            "catchKey": 52,
            "catchResponse": 68,
            "catchTime": 1680815451954,
            "trialTime": 0
        },
        {
            "exptPart": "trial",
            "trialNumber": 54,
            "roleCurrent": "receiver",
            "marblesSampled": 100,
            "probRed": 0.5,
            "practiceLambda": 5,
            "trialLambda": 8.1,
            "instructedLambda": "dishonest_small",
            "drawnRed": 9,
            "reportedRed": 15,
            "inferredRed": 50,
            "playerTrialScore": -41,
            "oppTrialScore": 41,
            "playerTotalScore": -893,
            "oppTotalScore": 403,
            "waitTime": 6281.794275952663,
            "responseTime": 1680815471047,
            "catchQuestion": "How many <b class=\"r\">red<\/b> marbles did your opponent report drawing? ",
            "catchKey": -1,
            "catchResponse": -1,
            "catchTime": 1680815451954,
            "trialTime": 0
        },
        {
            "exptPart": "trial",
            "trialNumber": 55,
            "roleCurrent": "receiver",
            "marblesSampled": 100,
            "probRed": 0.5,
            "practiceLambda": 5,
            "trialLambda": 8.1,
            "instructedLambda": "dishonest_small",
            "drawnRed": 20,
            "reportedRed": 30,
            "inferredRed": 50,
            "playerTrialScore": -30,
            "oppTrialScore": 30,
            "playerTotalScore": -923,
            "oppTotalScore": 433,
            "waitTime": 6356.951822419478,
            "responseTime": 1680815481031,
            "catchQuestion": "How many <b class=\"r\">red<\/b> marbles did your opponent report drawing? ",
            "catchKey": 30,
            "catchResponse": 30,
            "catchTime": 1680815481031,
            "trialTime": 0
        },
        {
            "exptPart": "trial",
            "trialNumber": 56,
            "roleCurrent": "receiver",
            "marblesSampled": 100,
            "probRed": 0.5,
            "practiceLambda": 5,
            "trialLambda": 8.1,
            "instructedLambda": "dishonest_small",
            "drawnRed": 40,
            "reportedRed": 49,
            "inferredRed": 50,
            "playerTrialScore": -10,
            "oppTrialScore": 10,
            "playerTotalScore": -933,
            "oppTotalScore": 443,
            "waitTime": 5207.964316163378,
            "responseTime": 1680815495120,
            "catchQuestion": "How many <b class=\"r\">red<\/b> marbles did your opponent report drawing? ",
            "catchKey": -1,
            "catchResponse": -1,
            "catchTime": 1680815481031,
            "trialTime": 0
        },
        {
            "exptPart": "trial",
            "trialNumber": 57,
            "roleCurrent": "receiver",
            "marblesSampled": 100,
            "probRed": 0.5,
            "practiceLambda": 5,
            "trialLambda": 8.1,
            "instructedLambda": "dishonest_small",
            "drawnRed": 48,
            "reportedRed": 61,
            "inferredRed": 50,
            "playerTrialScore": -2,
            "oppTrialScore": 2,
            "playerTotalScore": -935,
            "oppTotalScore": 445,
            "waitTime": 5713.427273755623,
            "responseTime": 1680815504737,
            "catchQuestion": "How many <b class=\"r\">red<\/b> marbles did your opponent report drawing? ",
            "catchKey": -1,
            "catchResponse": -1,
            "catchTime": 1680815481031,
            "trialTime": 0
        },
        {
            "exptPart": "trial",
            "trialNumber": 58,
            "roleCurrent": "receiver",
            "marblesSampled": 100,
            "probRed": 0.5,
            "practiceLambda": 5,
            "trialLambda": 8.1,
            "instructedLambda": "dishonest_small",
            "drawnRed": 66,
            "reportedRed": 76,
            "inferredRed": 50,
            "playerTrialScore": -16,
            "oppTrialScore": 0,
            "playerTotalScore": -951,
            "oppTotalScore": 445,
            "waitTime": 5271.02145886532,
            "responseTime": 1680815512671,
            "catchQuestion": "How many <b class=\"r\">red<\/b> marbles did your opponent report drawing? ",
            "catchKey": -1,
            "catchResponse": -1,
            "catchTime": 1680815481031,
            "trialTime": 0
        },
        {
            "exptPart": "trial",
            "trialNumber": 59,
            "roleCurrent": "receiver",
            "marblesSampled": 100,
            "probRed": 0.5,
            "practiceLambda": 5,
            "trialLambda": 8.1,
            "instructedLambda": "dishonest_small",
            "drawnRed": 46,
            "reportedRed": 49,
            "inferredRed": 50,
            "playerTrialScore": -4,
            "oppTrialScore": 4,
            "playerTotalScore": -955,
            "oppTotalScore": 449,
            "waitTime": 5805.934582648095,
            "responseTime": 1680815524715,
            "catchQuestion": "How many <b class=\"r\">red<\/b> marbles did your opponent report drawing? ",
            "catchKey": -1,
            "catchResponse": -1,
            "catchTime": 1680815481031,
            "trialTime": 0
        },
        {
            "exptPart": "trial",
            "trialNumber": 60,
            "roleCurrent": "receiver",
            "marblesSampled": 100,
            "probRed": 0.5,
            "practiceLambda": 5,
            "trialLambda": 8.1,
            "instructedLambda": "dishonest_small",
            "drawnRed": 66,
            "reportedRed": 72,
            "inferredRed": 50,
            "playerTrialScore": -16,
            "oppTrialScore": 0,
            "playerTotalScore": -971,
            "oppTotalScore": 449,
            "waitTime": 6840.883948126715,
            "responseTime": 1680815535436,
            "catchQuestion": "How many <b class=\"r\">red<\/b> marbles did your opponent report drawing? ",
            "catchKey": -1,
            "catchResponse": -1,
            "catchTime": 1680815535436,
            "trialTime": 0
        },
        {
            "exptPart": "trial",
            "trialNumber": 61,
            "roleCurrent": "receiver",
            "marblesSampled": 100,
            "probRed": 0.5,
            "practiceLambda": 5,
            "trialLambda": 8.1,
            "instructedLambda": "dishonest_small",
            "drawnRed": 11,
            "reportedRed": 19,
            "inferredRed": 50,
            "playerTrialScore": -39,
            "oppTrialScore": 39,
            "playerTotalScore": -1010,
            "oppTotalScore": 488,
            "waitTime": 5930.3543851742215,
            "responseTime": 1680815547730,
            "catchQuestion": "How many <b class=\"r\">red<\/b> marbles did your opponent report drawing? ",
            "catchKey": -1,
            "catchResponse": -1,
            "catchTime": 1680815535436,
            "trialTime": 0
        },
        {
            "exptPart": "trial",
            "trialNumber": 62,
            "roleCurrent": "receiver",
            "marblesSampled": 100,
            "probRed": 0.5,
            "practiceLambda": 5,
            "trialLambda": 8.1,
            "instructedLambda": "dishonest_small",
            "drawnRed": 35,
            "reportedRed": 45,
            "inferredRed": 50,
            "playerTrialScore": -15,
            "oppTrialScore": 15,
            "playerTotalScore": -1025,
            "oppTotalScore": 503,
            "waitTime": 5378.503448601381,
            "responseTime": 1680815559494,
            "catchQuestion": "How many <b class=\"r\">red<\/b> marbles did your opponent report drawing? ",
            "catchKey": -1,
            "catchResponse": -1,
            "catchTime": 1680815535436,
            "trialTime": 0
        },
        {
            "exptPart": "trial",
            "trialNumber": 63,
            "roleCurrent": "receiver",
            "marblesSampled": 100,
            "probRed": 0.5,
            "practiceLambda": 5,
            "trialLambda": 8.1,
            "instructedLambda": "dishonest_small",
            "drawnRed": 70,
            "reportedRed": 77,
            "inferredRed": 50,
            "playerTrialScore": -20,
            "oppTrialScore": 0,
            "playerTotalScore": -1045,
            "oppTotalScore": 503,
            "waitTime": 6614.90480916818,
            "responseTime": 1680815569797,
            "catchQuestion": "How many <b class=\"r\">red<\/b> marbles did your opponent report drawing? ",
            "catchKey": -1,
            "catchResponse": -1,
            "catchTime": 1680815535436,
            "trialTime": 0
        },
        {
            "exptPart": "trial",
            "trialNumber": 64,
            "roleCurrent": "receiver",
            "marblesSampled": 100,
            "probRed": 0.5,
            "practiceLambda": 5,
            "trialLambda": 8.1,
            "instructedLambda": "dishonest_small",
            "drawnRed": 66,
            "reportedRed": 71,
            "inferredRed": 50,
            "playerTrialScore": -16,
            "oppTrialScore": 0,
            "playerTotalScore": -1061,
            "oppTotalScore": 503,
            "waitTime": 7135.396416551374,
            "responseTime": 1680815579802,
            "catchQuestion": "How many <b class=\"r\">red<\/b> marbles did your opponent report drawing? ",
            "catchKey": -1,
            "catchResponse": -1,
            "catchTime": 1680815535436,
            "trialTime": 0
        },
        {
            "exptPart": "trial",
            "trialNumber": 65,
            "roleCurrent": "receiver",
            "marblesSampled": 100,
            "probRed": 0.5,
            "practiceLambda": 5,
            "trialLambda": 8.1,
            "instructedLambda": "dishonest_small",
            "drawnRed": 69,
            "reportedRed": 74,
            "inferredRed": 50,
            "playerTrialScore": -19,
            "oppTrialScore": 0,
            "playerTotalScore": -1080,
            "oppTotalScore": 503,
            "waitTime": 6793.391201694629,
            "responseTime": 1680815589159,
            "catchQuestion": "How many <b class=\"r\">red<\/b> marbles did your opponent report drawing? ",
            "catchKey": -1,
            "catchResponse": -1,
            "catchTime": 1680815535436,
            "trialTime": 0
        },
        {
            "exptPart": "trial",
            "trialNumber": 66,
            "roleCurrent": "receiver",
            "marblesSampled": 100,
            "probRed": 0.5,
            "practiceLambda": 5,
            "trialLambda": 8.1,
            "instructedLambda": "dishonest_small",
            "drawnRed": 55,
            "reportedRed": 64,
            "inferredRed": 50,
            "playerTrialScore": -5,
            "oppTrialScore": 0,
            "playerTotalScore": -1085,
            "oppTotalScore": 503,
            "waitTime": 5525.592839885663,
            "responseTime": 1680815597625,
            "catchQuestion": "How many <b class=\"r\">red<\/b> marbles did your opponent report drawing? ",
            "catchKey": -1,
            "catchResponse": -1,
            "catchTime": 1680815535436,
            "trialTime": 0
        },
        {
            "exptPart": "trial",
            "trialNumber": 67,
            "roleCurrent": "receiver",
            "marblesSampled": 100,
            "probRed": 0.5,
            "practiceLambda": 5,
            "trialLambda": 8.1,
            "instructedLambda": "dishonest_small",
            "drawnRed": 62,
            "reportedRed": 69,
            "inferredRed": 50,
            "playerTrialScore": -12,
            "oppTrialScore": 0,
            "playerTotalScore": -1097,
            "oppTotalScore": 503,
            "waitTime": 6759.950654399656,
            "responseTime": 1680815607778,
            "catchQuestion": "How many <b class=\"r\">red<\/b> marbles did your opponent report drawing? ",
            "catchKey": -1,
            "catchResponse": -1,
            "catchTime": 1680815535436,
            "trialTime": 0
        },
        {
            "exptPart": "trial",
            "trialNumber": 68,
            "roleCurrent": "receiver",
            "marblesSampled": 100,
            "probRed": 0.5,
            "practiceLambda": 5,
            "trialLambda": 8.1,
            "instructedLambda": "dishonest_small",
            "drawnRed": 38,
            "reportedRed": 45,
            "inferredRed": 50,
            "playerTrialScore": -12,
            "oppTrialScore": 12,
            "playerTotalScore": -1109,
            "oppTotalScore": 515,
            "waitTime": 5383.909342768085,
            "responseTime": 1680815617481,
            "catchQuestion": "How many <b class=\"r\">red<\/b> marbles did your opponent report drawing? ",
            "catchKey": -1,
            "catchResponse": -1,
            "catchTime": 1680815535436,
            "trialTime": 0
        },
        {
            "exptPart": "trial",
            "trialNumber": 69,
            "roleCurrent": "receiver",
            "marblesSampled": 100,
            "probRed": 0.5,
            "practiceLambda": 5,
            "trialLambda": 8.1,
            "instructedLambda": "dishonest_small",
            "drawnRed": 77,
            "reportedRed": 84,
            "inferredRed": 50,
            "playerTrialScore": -27,
            "oppTrialScore": 0,
            "playerTotalScore": -1136,
            "oppTotalScore": 515,
            "waitTime": 5201.78458201416,
            "responseTime": 1680815629449,
            "catchQuestion": "How many <b class=\"r\">red<\/b> marbles did your opponent report drawing? ",
            "catchKey": 84,
            "catchResponse": 49,
            "catchTime": 1680815629449,
            "trialTime": 0
        },
        {
            "exptPart": "trial",
            "trialNumber": 70,
            "roleCurrent": "receiver",
            "marblesSampled": 100,
            "probRed": 0.5,
            "practiceLambda": 5,
            "trialLambda": 8.1,
            "instructedLambda": "dishonest_small",
            "drawnRed": 38,
            "reportedRed": 44,
            "inferredRed": 50,
            "playerTrialScore": -12,
            "oppTrialScore": 12,
            "playerTotalScore": -1148,
            "oppTotalScore": 527,
            "waitTime": 5486.8830301582975,
            "responseTime": 1680815648670,
            "catchQuestion": "How many <b class=\"r\">red<\/b> marbles did your opponent report drawing? ",
            "catchKey": -1,
            "catchResponse": -1,
            "catchTime": 1680815648670,
            "trialTime": 0
        },
        {
            "exptPart": "trial",
            "trialNumber": 71,
            "roleCurrent": "receiver",
            "marblesSampled": 100,
            "probRed": 0.5,
            "practiceLambda": 5,
            "trialLambda": 8.1,
            "instructedLambda": "dishonest_small",
            "drawnRed": 58,
            "reportedRed": 70,
            "inferredRed": 50,
            "playerTrialScore": -8,
            "oppTrialScore": 0,
            "playerTotalScore": -1156,
            "oppTotalScore": 527,
            "waitTime": 7028.66100778462,
            "responseTime": 1680815729390,
            "catchQuestion": "How many <b class=\"r\">red<\/b> marbles did your opponent report drawing? ",
            "catchKey": -1,
            "catchResponse": -1,
            "catchTime": 1680815648670,
            "trialTime": 0
        },
        {
            "exptPart": "trial",
            "trialNumber": 72,
            "roleCurrent": "receiver",
            "marblesSampled": 100,
            "probRed": 0.5,
            "practiceLambda": 5,
            "trialLambda": 8.1,
            "instructedLambda": "dishonest_small",
            "drawnRed": 34,
            "reportedRed": 39,
            "inferredRed": 50,
            "playerTrialScore": -16,
            "oppTrialScore": 16,
            "playerTotalScore": -1172,
            "oppTotalScore": 543,
            "waitTime": 5183.087437985629,
            "responseTime": 1680815744153,
            "catchQuestion": "How many <b class=\"r\">red<\/b> marbles did your opponent report drawing? ",
            "catchKey": -1,
            "catchResponse": -1,
            "catchTime": 1680815648670,
            "trialTime": 0
        },
        {
            "exptPart": "trial",
            "trialNumber": 73,
            "roleCurrent": "receiver",
            "marblesSampled": 100,
            "probRed": 0.5,
            "practiceLambda": 5,
            "trialLambda": 8.1,
            "instructedLambda": "dishonest_small",
            "drawnRed": 43,
            "reportedRed": 53,
            "inferredRed": 50,
            "playerTrialScore": -7,
            "oppTrialScore": 7,
            "playerTotalScore": -1179,
            "oppTotalScore": 550,
            "waitTime": 6241.122501384536,
            "responseTime": 1680815755613,
            "catchQuestion": "How many <b class=\"r\">red<\/b> marbles did your opponent report drawing? ",
            "catchKey": -1,
            "catchResponse": -1,
            "catchTime": 1680815648670,
            "trialTime": 0
        },
        {
            "exptPart": "trial",
            "trialNumber": 74,
            "roleCurrent": "receiver",
            "marblesSampled": 100,
            "probRed": 0.5,
            "practiceLambda": 5,
            "trialLambda": 8.1,
            "instructedLambda": "dishonest_small",
            "drawnRed": 51,
            "reportedRed": 61,
            "inferredRed": 50,
            "playerTrialScore": -1,
            "oppTrialScore": 0,
            "playerTotalScore": -1180,
            "oppTotalScore": 550,
            "waitTime": 5927.652111281477,
            "responseTime": 1680815767843,
            "catchQuestion": "How many <b class=\"r\">red<\/b> marbles did your opponent report drawing? ",
            "catchKey": -1,
            "catchResponse": -1,
            "catchTime": 1680815648670,
            "trialTime": 0
        },
        {
            "exptPart": "trial",
            "trialNumber": 75,
            "roleCurrent": "receiver",
            "marblesSampled": 100,
            "probRed": 0.5,
            "practiceLambda": 5,
            "trialLambda": 8.1,
            "instructedLambda": "dishonest_small",
            "drawnRed": 30,
            "reportedRed": 43,
            "inferredRed": 50,
            "playerTrialScore": -20,
            "oppTrialScore": 20,
            "playerTotalScore": -1200,
            "oppTotalScore": 570,
            "waitTime": 7130.8898180611595,
            "responseTime": 1680815779581,
            "catchQuestion": "How many <b class=\"r\">red<\/b> marbles did your opponent report drawing? ",
            "catchKey": 43,
            "catchResponse": 43,
            "catchTime": 1680815779581,
            "trialTime": 0
        },
        {
            "exptPart": "trial",
            "trialNumber": 76,
            "roleCurrent": "receiver",
            "marblesSampled": 100,
            "probRed": 0.5,
            "practiceLambda": 5,
            "trialLambda": 8.1,
            "instructedLambda": "dishonest_small",
            "drawnRed": 6,
            "reportedRed": 12,
            "inferredRed": 50,
            "playerTrialScore": -44,
            "oppTrialScore": 44,
            "playerTotalScore": -1244,
            "oppTotalScore": 614,
            "waitTime": 5390.868968903695,
            "responseTime": 1680815795619,
            "catchQuestion": "How many <b class=\"r\">red<\/b> marbles did your opponent report drawing? ",
            "catchKey": -1,
            "catchResponse": -1,
            "catchTime": 1680815779581,
            "trialTime": 0
        },
        {
            "exptPart": "trial",
            "trialNumber": 77,
            "roleCurrent": "receiver",
            "marblesSampled": 100,
            "probRed": 0.5,
            "practiceLambda": 5,
            "trialLambda": 8.1,
            "instructedLambda": "dishonest_small",
            "drawnRed": 45,
            "reportedRed": 57,
            "inferredRed": 50,
            "playerTrialScore": -5,
            "oppTrialScore": 5,
            "playerTotalScore": -1249,
            "oppTotalScore": 619,
            "waitTime": 5409.121848143908,
            "responseTime": 1680815807421,
            "catchQuestion": "How many <b class=\"r\">red<\/b> marbles did your opponent report drawing? ",
            "catchKey": -1,
            "catchResponse": -1,
            "catchTime": 1680815779581,
            "trialTime": 0
        },
        {
            "exptPart": "trial",
            "trialNumber": 78,
            "roleCurrent": "receiver",
            "marblesSampled": 100,
            "probRed": 0.5,
            "practiceLambda": 5,
            "trialLambda": 8.1,
            "instructedLambda": "dishonest_small",
            "drawnRed": 48,
            "reportedRed": 50,
            "inferredRed": 50,
            "playerTrialScore": -2,
            "oppTrialScore": 2,
            "playerTotalScore": -1251,
            "oppTotalScore": 621,
            "waitTime": 6214.102113693827,
            "responseTime": 1680815817805,
            "catchQuestion": "How many <b class=\"r\">red<\/b> marbles did your opponent report drawing? ",
            "catchKey": -1,
            "catchResponse": -1,
            "catchTime": 1680815779581,
            "trialTime": 0
        },
        {
            "exptPart": "trial",
            "trialNumber": 79,
            "roleCurrent": "receiver",
            "marblesSampled": 100,
            "probRed": 0.5,
            "practiceLambda": 5,
            "trialLambda": 8.1,
            "instructedLambda": "dishonest_small",
            "drawnRed": 66,
            "reportedRed": 76,
            "inferredRed": 50,
            "playerTrialScore": -16,
            "oppTrialScore": 0,
            "playerTotalScore": -1267,
            "oppTotalScore": 621,
            "waitTime": 6639.30530086024,
            "responseTime": 1680815829158,
            "catchQuestion": "How many <b class=\"r\">red<\/b> marbles did your opponent report drawing? ",
            "catchKey": -1,
            "catchResponse": -1,
            "catchTime": 1680815779581,
            "trialTime": 0
        },
        {
            "exptPart": "trial",
            "trialNumber": 80,
            "roleCurrent": "receiver",
            "marblesSampled": 100,
            "probRed": 0.5,
            "practiceLambda": 5,
            "trialLambda": 8.1,
            "instructedLambda": "dishonest_small",
            "drawnRed": 24,
            "reportedRed": 32,
            "inferredRed": 50,
            "playerTrialScore": -26,
            "oppTrialScore": 26,
            "playerTotalScore": -1293,
            "oppTotalScore": 647,
            "waitTime": 5331.190804837858,
            "responseTime": 1680815838044,
            "catchQuestion": "How many <b class=\"r\">red<\/b> marbles did your opponent report drawing? ",
            "catchKey": -1,
            "catchResponse": -1,
            "catchTime": 1680815838045,
            "trialTime": 0
        },
        {
            "exptPart": "trial",
            "trialNumber": 81,
            "roleCurrent": "receiver",
            "marblesSampled": 100,
            "probRed": 0.5,
            "practiceLambda": 5,
            "trialLambda": 8.1,
            "instructedLambda": "dishonest_small",
            "drawnRed": 26,
            "reportedRed": 33,
            "inferredRed": 50,
            "playerTrialScore": -24,
            "oppTrialScore": 24,
            "playerTotalScore": -1317,
            "oppTotalScore": 671,
            "waitTime": 6447.8162848949,
            "responseTime": 1680815849452,
            "catchQuestion": "How many <b class=\"r\">red<\/b> marbles did your opponent report drawing? ",
            "catchKey": -1,
            "catchResponse": -1,
            "catchTime": 1680815838045,
            "trialTime": 0
        },
        {
            "exptPart": "trial",
            "trialNumber": 82,
            "roleCurrent": "receiver",
            "marblesSampled": 100,
            "probRed": 0.5,
            "practiceLambda": 5,
            "trialLambda": 8.1,
            "instructedLambda": "dishonest_small",
            "drawnRed": 25,
            "reportedRed": 34,
            "inferredRed": 50,
            "playerTrialScore": -25,
            "oppTrialScore": 25,
            "playerTotalScore": -1342,
            "oppTotalScore": 696,
            "waitTime": 5774.252614125155,
            "responseTime": 1680815858927,
            "catchQuestion": "How many <b class=\"r\">red<\/b> marbles did your opponent report drawing? ",
            "catchKey": -1,
            "catchResponse": -1,
            "catchTime": 1680815838045,
            "trialTime": 0
        },
        {
            "exptPart": "trial",
            "trialNumber": 83,
            "roleCurrent": "receiver",
            "marblesSampled": 100,
            "probRed": 0.5,
            "practiceLambda": 5,
            "trialLambda": 8.1,
            "instructedLambda": "dishonest_small",
            "drawnRed": 26,
            "reportedRed": 32,
            "inferredRed": 50,
            "playerTrialScore": -24,
            "oppTrialScore": 24,
            "playerTotalScore": -1366,
            "oppTotalScore": 720,
            "waitTime": 5839.3085371164325,
            "responseTime": 1680815870093,
            "catchQuestion": "How many <b class=\"r\">red<\/b> marbles did your opponent report drawing? ",
            "catchKey": -1,
            "catchResponse": -1,
            "catchTime": 1680815838045,
            "trialTime": 0
        },
        {
            "exptPart": "trial",
            "trialNumber": 84,
            "roleCurrent": "receiver",
            "marblesSampled": 100,
            "probRed": 0.5,
            "practiceLambda": 5,
            "trialLambda": 8.1,
            "instructedLambda": "dishonest_small",
            "drawnRed": 65,
            "reportedRed": 68,
            "inferredRed": 50,
            "playerTrialScore": -15,
            "oppTrialScore": 0,
            "playerTotalScore": -1381,
            "oppTotalScore": 720,
            "waitTime": 6009.026093208633,
            "responseTime": 1680815881212,
            "catchQuestion": "How many <b class=\"r\">red<\/b> marbles did your opponent report drawing? ",
            "catchKey": -1,
            "catchResponse": -1,
            "catchTime": 1680815838045,
            "trialTime": 0
        },
        {
            "exptPart": "trial",
            "trialNumber": 85,
            "roleCurrent": "receiver",
            "marblesSampled": 100,
            "probRed": 0.5,
            "practiceLambda": 5,
            "trialLambda": 8.1,
            "instructedLambda": "dishonest_small",
            "drawnRed": 82,
            "reportedRed": 93,
            "inferredRed": 50,
            "playerTrialScore": -32,
            "oppTrialScore": 0,
            "playerTotalScore": -1413,
            "oppTotalScore": 720,
            "waitTime": 6450.974292453366,
            "responseTime": 1680815891872,
            "catchQuestion": "How many <b class=\"r\">red<\/b> marbles did your opponent report drawing? ",
            "catchKey": -1,
            "catchResponse": -1,
            "catchTime": 1680815838045,
            "trialTime": 0
        },
        {
            "exptPart": "trial",
            "trialNumber": 86,
            "roleCurrent": "receiver",
            "marblesSampled": 100,
            "probRed": 0.5,
            "practiceLambda": 5,
            "trialLambda": 8.1,
            "instructedLambda": "dishonest_small",
            "drawnRed": 58,
            "reportedRed": 71,
            "inferredRed": 50,
            "playerTrialScore": -8,
            "oppTrialScore": 0,
            "playerTotalScore": -1421,
            "oppTotalScore": 720,
            "waitTime": 6845.110885632481,
            "responseTime": 1680815905396,
            "catchQuestion": "How many <b class=\"r\">red<\/b> marbles did your opponent report drawing? ",
            "catchKey": -1,
            "catchResponse": -1,
            "catchTime": 1680815838045,
            "trialTime": 0
        },
        {
            "exptPart": "trial",
            "trialNumber": 87,
            "roleCurrent": "receiver",
            "marblesSampled": 100,
            "probRed": 0.5,
            "practiceLambda": 5,
            "trialLambda": 8.1,
            "instructedLambda": "dishonest_small",
            "drawnRed": 34,
            "reportedRed": 39,
            "inferredRed": 50,
            "playerTrialScore": -16,
            "oppTrialScore": 16,
            "playerTotalScore": -1437,
            "oppTotalScore": 736,
            "waitTime": 7200.77498997432,
            "responseTime": 1680816039900,
            "catchQuestion": "How many <b class=\"r\">red<\/b> marbles did your opponent report drawing? ",
            "catchKey": -1,
            "catchResponse": -1,
            "catchTime": 1680815838045,
            "trialTime": 0
        },
        {
            "exptPart": "trial",
            "trialNumber": 88,
            "roleCurrent": "receiver",
            "marblesSampled": 100,
            "probRed": 0.5,
            "practiceLambda": 5,
            "trialLambda": 8.1,
            "instructedLambda": "dishonest_small",
            "drawnRed": 56,
            "reportedRed": 62,
            "inferredRed": 50,
            "playerTrialScore": -6,
            "oppTrialScore": 0,
            "playerTotalScore": -1443,
            "oppTotalScore": 736,
            "waitTime": 5917.30357609872,
            "responseTime": 1680816048703,
            "catchQuestion": "How many <b class=\"r\">red<\/b> marbles did your opponent report drawing? ",
            "catchKey": -1,
            "catchResponse": -1,
            "catchTime": 1680815838045,
            "trialTime": 0
        },
        {
            "exptPart": "trial",
            "trialNumber": 89,
            "roleCurrent": "receiver",
            "marblesSampled": 100,
            "probRed": 0.5,
            "practiceLambda": 5,
            "trialLambda": 8.1,
            "instructedLambda": "dishonest_small",
            "drawnRed": 60,
            "reportedRed": 72,
            "inferredRed": 50,
            "playerTrialScore": -10,
            "oppTrialScore": 0,
            "playerTotalScore": -1453,
            "oppTotalScore": 736,
            "waitTime": 5148.138909347743,
            "responseTime": 1680816056705,
            "catchQuestion": "How many <b class=\"r\">red<\/b> marbles did your opponent report drawing? ",
            "catchKey": -1,
            "catchResponse": -1,
            "catchTime": 1680815838045,
            "trialTime": 0
        },
        {
            "exptPart": "trial",
            "trialNumber": 90,
            "roleCurrent": "receiver",
            "marblesSampled": 100,
            "probRed": 0.5,
            "practiceLambda": 5,
            "trialLambda": 8.1,
            "instructedLambda": "dishonest_small",
            "drawnRed": 20,
            "reportedRed": 29,
            "inferredRed": 50,
            "playerTrialScore": -30,
            "oppTrialScore": 30,
            "playerTotalScore": -1483,
            "oppTotalScore": 766,
            "waitTime": 6114.370410291622,
            "responseTime": 1680816067091,
            "catchQuestion": "How many <b class=\"r\">red<\/b> marbles did your opponent report drawing? ",
            "catchKey": -1,
            "catchResponse": -1,
            "catchTime": 1680816067092,
            "trialTime": 0
        },
        {
            "exptPart": "trial",
            "trialNumber": 91,
            "roleCurrent": "receiver",
            "marblesSampled": 100,
            "probRed": 0.5,
            "practiceLambda": 5,
            "trialLambda": 8.1,
            "instructedLambda": "dishonest_small",
            "drawnRed": 27,
            "reportedRed": 36,
            "inferredRed": 50,
            "playerTrialScore": -23,
            "oppTrialScore": 23,
            "playerTotalScore": -1506,
            "oppTotalScore": 789,
            "waitTime": 6571.1241173209555,
            "responseTime": 1680816079262,
            "catchQuestion": "How many <b class=\"r\">red<\/b> marbles did your opponent report drawing? ",
            "catchKey": -1,
            "catchResponse": -1,
            "catchTime": 1680816067092,
            "trialTime": 0
        },
        {
            "exptPart": "trial",
            "trialNumber": 92,
            "roleCurrent": "receiver",
            "marblesSampled": 100,
            "probRed": 0.5,
            "practiceLambda": 5,
            "trialLambda": 8.1,
            "instructedLambda": "dishonest_small",
            "drawnRed": 67,
            "reportedRed": 75,
            "inferredRed": 50,
            "playerTrialScore": -17,
            "oppTrialScore": 0,
            "playerTotalScore": -1523,
            "oppTotalScore": 789,
            "waitTime": 6106.290385526966,
            "responseTime": 1680816089525,
            "catchQuestion": "How many <b class=\"r\">red<\/b> marbles did your opponent report drawing? ",
            "catchKey": -1,
            "catchResponse": -1,
            "catchTime": 1680816067092,
            "trialTime": 0
        },
        {
            "exptPart": "trial",
            "trialNumber": 93,
            "roleCurrent": "receiver",
            "marblesSampled": 100,
            "probRed": 0.5,
            "practiceLambda": 5,
            "trialLambda": 8.1,
            "instructedLambda": "dishonest_small",
            "drawnRed": 49,
            "reportedRed": 53,
            "inferredRed": 50,
            "playerTrialScore": -1,
            "oppTrialScore": 1,
            "playerTotalScore": -1524,
            "oppTotalScore": 790,
            "waitTime": 5993.33736780292,
            "responseTime": 1680816098771,
            "catchQuestion": "How many <b class=\"r\">red<\/b> marbles did your opponent report drawing? ",
            "catchKey": -1,
            "catchResponse": -1,
            "catchTime": 1680816067092,
            "trialTime": 0
        },
        {
            "exptPart": "trial",
            "trialNumber": 94,
            "roleCurrent": "receiver",
            "marblesSampled": 100,
            "probRed": 0.5,
            "practiceLambda": 5,
            "trialLambda": 8.1,
            "instructedLambda": "dishonest_small",
            "drawnRed": 50,
            "reportedRed": 60,
            "inferredRed": 50,
            "playerTrialScore": 0,
            "oppTrialScore": 0,
            "playerTotalScore": -1524,
            "oppTotalScore": 790,
            "waitTime": 5312.465075424597,
            "responseTime": 1680816110406,
            "catchQuestion": "How many <b class=\"r\">red<\/b> marbles did your opponent report drawing? ",
            "catchKey": -1,
            "catchResponse": -1,
            "catchTime": 1680816067092,
            "trialTime": 0
        },
        {
            "exptPart": "trial",
            "trialNumber": 95,
            "roleCurrent": "receiver",
            "marblesSampled": 100,
            "probRed": 0.5,
            "practiceLambda": 5,
            "trialLambda": 8.1,
            "instructedLambda": "dishonest_small",
            "drawnRed": 77,
            "reportedRed": 83,
            "inferredRed": 50,
            "playerTrialScore": -27,
            "oppTrialScore": 0,
            "playerTotalScore": -1551,
            "oppTotalScore": 790,
            "waitTime": 5545.317484488411,
            "responseTime": 1680816121463,
            "catchQuestion": "How many <b class=\"r\">red<\/b> marbles did your opponent report drawing? ",
            "catchKey": -1,
            "catchResponse": -1,
            "catchTime": 1680816067092,
            "trialTime": 0
        },
        {
            "exptPart": "trial",
            "trialNumber": 96,
            "roleCurrent": "receiver",
            "marblesSampled": 100,
            "probRed": 0.5,
            "practiceLambda": 5,
            "trialLambda": 8.1,
            "instructedLambda": "dishonest_small",
            "drawnRed": 20,
            "reportedRed": 25,
            "inferredRed": 50,
            "playerTrialScore": -30,
            "oppTrialScore": 30,
            "playerTotalScore": -1581,
            "oppTotalScore": 820,
            "waitTime": 5510.3704534897015,
            "responseTime": 1680816130777,
            "catchQuestion": "How many <b class=\"r\">red<\/b> marbles did your opponent report drawing? ",
            "catchKey": 25,
            "catchResponse": 25,
            "catchTime": 1680816130777,
            "trialTime": 0
        },
        {
            "exptPart": "trial",
            "trialNumber": 97,
            "roleCurrent": "receiver",
            "marblesSampled": 100,
            "probRed": 0.5,
            "practiceLambda": 5,
            "trialLambda": 8.1,
            "instructedLambda": "dishonest_small",
            "drawnRed": 56,
            "reportedRed": 65,
            "inferredRed": 50,
            "playerTrialScore": -6,
            "oppTrialScore": 0,
            "playerTotalScore": -1587,
            "oppTotalScore": 820,
            "waitTime": 5187.10268074972,
            "responseTime": 1680816147131,
            "catchQuestion": "How many <b class=\"r\">red<\/b> marbles did your opponent report drawing? ",
            "catchKey": -1,
            "catchResponse": -1,
            "catchTime": 1680816130777,
            "trialTime": 0
        },
        {
            "exptPart": "trial",
            "trialNumber": 98,
            "roleCurrent": "receiver",
            "marblesSampled": 100,
            "probRed": 0.5,
            "practiceLambda": 5,
            "trialLambda": 8.1,
            "instructedLambda": "dishonest_small",
            "drawnRed": 28,
            "reportedRed": 30,
            "inferredRed": 50,
            "playerTrialScore": -22,
            "oppTrialScore": 22,
            "playerTotalScore": -1609,
            "oppTotalScore": 842,
            "waitTime": 5805.619457422874,
            "responseTime": 1680816156239,
            "catchQuestion": "How many <b class=\"r\">red<\/b> marbles did your opponent report drawing? ",
            "catchKey": -1,
            "catchResponse": -1,
            "catchTime": 1680816130777,
            "trialTime": 0
        },
        {
            "exptPart": "trial",
            "trialNumber": 99,
            "roleCurrent": "receiver",
            "marblesSampled": 100,
            "probRed": 0.5,
            "practiceLambda": 5,
            "trialLambda": 8.1,
            "instructedLambda": "dishonest_small",
            "drawnRed": 72,
            "reportedRed": 79,
            "inferredRed": 50,
            "playerTrialScore": -22,
            "oppTrialScore": 0,
            "playerTotalScore": -1631,
            "oppTotalScore": 842,
            "waitTime": 6980.169424963518,
            "responseTime": 1680816168812,
            "catchQuestion": "How many <b class=\"r\">red<\/b> marbles did your opponent report drawing? ",
            "catchKey": -1,
            "catchResponse": -1,
            "catchTime": 1680816130777,
            "trialTime": 0
        },
        {
            "exptPart": "trial",
            "trialNumber": 100,
            "roleCurrent": "receiver",
            "marblesSampled": 100,
            "probRed": 0.5,
            "practiceLambda": 5,
            "trialLambda": 8.1,
            "instructedLambda": "dishonest_small",
            "drawnRed": 44,
            "reportedRed": 51,
            "inferredRed": 50,
            "playerTrialScore": -6,
            "oppTrialScore": 6,
            "playerTotalScore": -1637,
            "oppTotalScore": 848,
            "waitTime": 5611.950721584674,
            "responseTime": 1680816180268,
            "catchQuestion": "How many <b class=\"r\">red<\/b> marbles did your opponent report drawing? ",
            "catchKey": -1,
            "catchResponse": -1,
            "catchTime": 1680816180268,
            "trialTime": 0
        }
    ]
}