{
    "client": {
        "type": "sona",
        "experiment_id": 2488,
        "credit_token": "79d15902e9034cb6b65a542be205401c",
        "survey_code": "44799",
        "sid": "sona-44799",
        "window": {
            "width": 1470,
            "height": 809
        },
        "screen": {
            "width": 1470,
            "height": 956
        },
        "userAgent": "Mozilla\/5.0 (Macintosh; Intel Mac OS X 10_15_7) AppleWebKit\/537.36 (KHTML, like Gecko) Chrome\/110.0.0.0 Safari\/537.36",
        "score": 0,
        "bonus": 0
    },
    "expt": {
        "saveURL": "submit.simple.php",
        "trials": 100,
        "practiceTrials": 2,
        "marblesSampled": 100,
        "probRed": 0.5,
        "practiceLambdaAI": 5,
        "lambdaAI": 8.1,
        "roles": [
            "sender",
            "receiver"
        ],
        "cost": "unif",
        "goal": "over",
        "oppDishonesty": "dishonest_small",
        "catchTrials": [
            25,
            28,
            92,
            51,
            7,
            53,
            49,
            74,
            63,
            76
        ],
        "scoreTotal": {
            "player": -1564,
            "opp": 914
        },
        "sona": {
            "experiment_id": 2488,
            "credit_token": "79d15902e9034cb6b65a542be205401c"
        },
        "pilot": false,
        "debug": false
    },
    "trials": [
        {
            "exptPart": "practice",
            "trialNumber": 1,
            "roleCurrent": "sender",
            "marblesSampled": 100,
            "probRed": 0.5,
            "practiceLambda": 5,
            "trialLambda": 8.1,
            "instructedLambda": "dishonest_small",
            "drawnRed": 90,
            "reportedRed": 85,
            "inferredRed": 79,
            "playerTrialScore": 0,
            "oppTrialScore": -11,
            "playerTotalScore": 0,
            "oppTotalScore": -11,
            "waitTime": 2829.788095549468,
            "responseTime": 1678905156129,
            "catchQuestion": "How many <b class=\"r\">red<\/b> marbles did you actually draw (before any changes)? ",
            "catchKey": 90,
            "catchResponse": 90,
            "catchTime": 1678905156129,
            "trialTime": 0
        },
        {
            "exptPart": "practice",
            "trialNumber": 2,
            "roleCurrent": "receiver",
            "marblesSampled": 100,
            "probRed": 0.5,
            "practiceLambda": 5,
            "trialLambda": 8.1,
            "instructedLambda": "dishonest_small",
            "drawnRed": 77,
            "reportedRed": 81,
            "inferredRed": 90,
            "playerTrialScore": -13,
            "oppTrialScore": 13,
            "playerTotalScore": -13,
            "oppTotalScore": 2,
            "waitTime": 6628.952253959458,
            "responseTime": 1678905186925,
            "catchQuestion": "How many <b class=\"r\">red<\/b> marbles did your opponent report drawing? ",
            "catchKey": 81,
            "catchResponse": 90,
            "catchTime": 1678905186925,
            "trialTime": 0
        },
        {
            "exptPart": "trial",
            "trialNumber": 1,
            "roleCurrent": "receiver",
            "marblesSampled": 100,
            "probRed": 0.5,
            "practiceLambda": 5,
            "trialLambda": 8.1,
            "instructedLambda": "dishonest_small",
            "drawnRed": 51,
            "reportedRed": 57,
            "inferredRed": 48,
            "playerTrialScore": -3,
            "oppTrialScore": 0,
            "playerTotalScore": -3,
            "oppTotalScore": 0,
            "waitTime": 7302.013902339935,
            "responseTime": 1678905216732,
            "catchQuestion": "How many <b class=\"r\">red<\/b> marbles did your opponent report drawing? ",
            "catchKey": -1,
            "catchResponse": -1,
            "catchTime": 1678905186925,
            "trialTime": 0
        },
        {
            "exptPart": "trial",
            "trialNumber": 2,
            "roleCurrent": "receiver",
            "marblesSampled": 100,
            "probRed": 0.5,
            "practiceLambda": 5,
            "trialLambda": 8.1,
            "instructedLambda": "dishonest_small",
            "drawnRed": 66,
            "reportedRed": 72,
            "inferredRed": 52,
            "playerTrialScore": -14,
            "oppTrialScore": 0,
            "playerTotalScore": -17,
            "oppTotalScore": 0,
            "waitTime": 5252.053298551487,
            "responseTime": 1678905228938,
            "catchQuestion": "How many <b class=\"r\">red<\/b> marbles did your opponent report drawing? ",
            "catchKey": -1,
            "catchResponse": -1,
            "catchTime": 1678905186925,
            "trialTime": 0
        },
        {
            "exptPart": "trial",
            "trialNumber": 3,
            "roleCurrent": "receiver",
            "marblesSampled": 100,
            "probRed": 0.5,
            "practiceLambda": 5,
            "trialLambda": 8.1,
            "instructedLambda": "dishonest_small",
            "drawnRed": 62,
            "reportedRed": 73,
            "inferredRed": 12,
            "playerTrialScore": -50,
            "oppTrialScore": 0,
            "playerTotalScore": -67,
            "oppTotalScore": 0,
            "waitTime": 6975.5655566782725,
            "responseTime": 1678905240120,
            "catchQuestion": "How many <b class=\"r\">red<\/b> marbles did your opponent report drawing? ",
            "catchKey": -1,
            "catchResponse": -1,
            "catchTime": 1678905186925,
            "trialTime": 0
        },
        {
            "exptPart": "trial",
            "trialNumber": 4,
            "roleCurrent": "receiver",
            "marblesSampled": 100,
            "probRed": 0.5,
            "practiceLambda": 5,
            "trialLambda": 8.1,
            "instructedLambda": "dishonest_small",
            "drawnRed": 71,
            "reportedRed": 81,
            "inferredRed": 18,
            "playerTrialScore": -53,
            "oppTrialScore": 0,
            "playerTotalScore": -120,
            "oppTotalScore": 0,
            "waitTime": 6595.41623251541,
            "responseTime": 1678905250247,
            "catchQuestion": "How many <b class=\"r\">red<\/b> marbles did your opponent report drawing? ",
            "catchKey": -1,
            "catchResponse": -1,
            "catchTime": 1678905186925,
            "trialTime": 0
        },
        {
            "exptPart": "trial",
            "trialNumber": 5,
            "roleCurrent": "receiver",
            "marblesSampled": 100,
            "probRed": 0.5,
            "practiceLambda": 5,
            "trialLambda": 8.1,
            "instructedLambda": "dishonest_small",
            "drawnRed": 57,
            "reportedRed": 69,
            "inferredRed": 70,
            "playerTrialScore": -13,
            "oppTrialScore": 13,
            "playerTotalScore": -133,
            "oppTotalScore": 13,
            "waitTime": 5189.66828824272,
            "responseTime": 1678905259086,
            "catchQuestion": "How many <b class=\"r\">red<\/b> marbles did your opponent report drawing? ",
            "catchKey": -1,
            "catchResponse": -1,
            "catchTime": 1678905186925,
            "trialTime": 0
        },
        {
            "exptPart": "trial",
            "trialNumber": 6,
            "roleCurrent": "receiver",
            "marblesSampled": 100,
            "probRed": 0.5,
            "practiceLambda": 5,
            "trialLambda": 8.1,
            "instructedLambda": "dishonest_small",
            "drawnRed": 67,
            "reportedRed": 74,
            "inferredRed": 81,
            "playerTrialScore": -14,
            "oppTrialScore": 14,
            "playerTotalScore": -147,
            "oppTotalScore": 27,
            "waitTime": 6894.178864343167,
            "responseTime": 1678905269770,
            "catchQuestion": "How many <b class=\"r\">red<\/b> marbles did your opponent report drawing? ",
            "catchKey": -1,
            "catchResponse": -1,
            "catchTime": 1678905186925,
            "trialTime": 0
        },
        {
            "exptPart": "trial",
            "trialNumber": 7,
            "roleCurrent": "receiver",
            "marblesSampled": 100,
            "probRed": 0.5,
            "practiceLambda": 5,
            "trialLambda": 8.1,
            "instructedLambda": "dishonest_small",
            "drawnRed": 44,
            "reportedRed": 54,
            "inferredRed": 24,
            "playerTrialScore": -20,
            "oppTrialScore": 0,
            "playerTotalScore": -167,
            "oppTotalScore": 27,
            "waitTime": 6014.525928159055,
            "responseTime": 1678905279187,
            "catchQuestion": "How many <b class=\"r\">red<\/b> marbles did your opponent report drawing? ",
            "catchKey": -1,
            "catchResponse": -1,
            "catchTime": 1678905186925,
            "trialTime": 0
        },
        {
            "exptPart": "trial",
            "trialNumber": 8,
            "roleCurrent": "receiver",
            "marblesSampled": 100,
            "probRed": 0.5,
            "practiceLambda": 5,
            "trialLambda": 8.1,
            "instructedLambda": "dishonest_small",
            "drawnRed": 41,
            "reportedRed": 47,
            "inferredRed": 70,
            "playerTrialScore": -29,
            "oppTrialScore": 29,
            "playerTotalScore": -196,
            "oppTotalScore": 56,
            "waitTime": 5141.3411636654655,
            "responseTime": 1678905294978,
            "catchQuestion": "How many <b class=\"r\">red<\/b> marbles did your opponent report drawing? ",
            "catchKey": 47,
            "catchResponse": 41,
            "catchTime": 1678905294979,
            "trialTime": 0
        },
        {
            "exptPart": "trial",
            "trialNumber": 9,
            "roleCurrent": "receiver",
            "marblesSampled": 100,
            "probRed": 0.5,
            "practiceLambda": 5,
            "trialLambda": 8.1,
            "instructedLambda": "dishonest_small",
            "drawnRed": 26,
            "reportedRed": 29,
            "inferredRed": 29,
            "playerTrialScore": -3,
            "oppTrialScore": 3,
            "playerTotalScore": -199,
            "oppTotalScore": 59,
            "waitTime": 7325.744077158183,
            "responseTime": 1678905319745,
            "catchQuestion": "How many <b class=\"r\">red<\/b> marbles did your opponent report drawing? ",
            "catchKey": -1,
            "catchResponse": -1,
            "catchTime": 1678905294979,
            "trialTime": 0
        },
        {
            "exptPart": "trial",
            "trialNumber": 10,
            "roleCurrent": "receiver",
            "marblesSampled": 100,
            "probRed": 0.5,
            "practiceLambda": 5,
            "trialLambda": 8.1,
            "instructedLambda": "dishonest_small",
            "drawnRed": 49,
            "reportedRed": 58,
            "inferredRed": 60,
            "playerTrialScore": -11,
            "oppTrialScore": 11,
            "playerTotalScore": -210,
            "oppTotalScore": 70,
            "waitTime": 5153.877790744125,
            "responseTime": 1678905329449,
            "catchQuestion": "How many <b class=\"r\">red<\/b> marbles did your opponent report drawing? ",
            "catchKey": -1,
            "catchResponse": -1,
            "catchTime": 1678905329449,
            "trialTime": 0
        },
        {
            "exptPart": "trial",
            "trialNumber": 11,
            "roleCurrent": "receiver",
            "marblesSampled": 100,
            "probRed": 0.5,
            "practiceLambda": 5,
            "trialLambda": 8.1,
            "instructedLambda": "dishonest_small",
            "drawnRed": 72,
            "reportedRed": 80,
            "inferredRed": 50,
            "playerTrialScore": -22,
            "oppTrialScore": 0,
            "playerTotalScore": -232,
            "oppTotalScore": 70,
            "waitTime": 5533.2654617583285,
            "responseTime": 1678905345558,
            "catchQuestion": "How many <b class=\"r\">red<\/b> marbles did your opponent report drawing? ",
            "catchKey": -1,
            "catchResponse": -1,
            "catchTime": 1678905329449,
            "trialTime": 0
        },
        {
            "exptPart": "trial",
            "trialNumber": 12,
            "roleCurrent": "receiver",
            "marblesSampled": 100,
            "probRed": 0.5,
            "practiceLambda": 5,
            "trialLambda": 8.1,
            "instructedLambda": "dishonest_small",
            "drawnRed": 33,
            "reportedRed": 39,
            "inferredRed": 20,
            "playerTrialScore": -13,
            "oppTrialScore": 0,
            "playerTotalScore": -245,
            "oppTotalScore": 70,
            "waitTime": 5330.41404032768,
            "responseTime": 1678905357999,
            "catchQuestion": "How many <b class=\"r\">red<\/b> marbles did your opponent report drawing? ",
            "catchKey": -1,
            "catchResponse": -1,
            "catchTime": 1678905329449,
            "trialTime": 0
        },
        {
            "exptPart": "trial",
            "trialNumber": 13,
            "roleCurrent": "receiver",
            "marblesSampled": 100,
            "probRed": 0.5,
            "practiceLambda": 5,
            "trialLambda": 8.1,
            "instructedLambda": "dishonest_small",
            "drawnRed": 72,
            "reportedRed": 79,
            "inferredRed": 70,
            "playerTrialScore": -2,
            "oppTrialScore": 0,
            "playerTotalScore": -247,
            "oppTotalScore": 70,
            "waitTime": 6561.7532952612955,
            "responseTime": 1678905369875,
            "catchQuestion": "How many <b class=\"r\">red<\/b> marbles did your opponent report drawing? ",
            "catchKey": -1,
            "catchResponse": -1,
            "catchTime": 1678905329449,
            "trialTime": 0
        },
        {
            "exptPart": "trial",
            "trialNumber": 14,
            "roleCurrent": "receiver",
            "marblesSampled": 100,
            "probRed": 0.5,
            "practiceLambda": 5,
            "trialLambda": 8.1,
            "instructedLambda": "dishonest_small",
            "drawnRed": 47,
            "reportedRed": 52,
            "inferredRed": 50,
            "playerTrialScore": -3,
            "oppTrialScore": 3,
            "playerTotalScore": -250,
            "oppTotalScore": 73,
            "waitTime": 6637.402203167272,
            "responseTime": 1678905379319,
            "catchQuestion": "How many <b class=\"r\">red<\/b> marbles did your opponent report drawing? ",
            "catchKey": -1,
            "catchResponse": -1,
            "catchTime": 1678905329449,
            "trialTime": 0
        },
        {
            "exptPart": "trial",
            "trialNumber": 15,
            "roleCurrent": "receiver",
            "marblesSampled": 100,
            "probRed": 0.5,
            "practiceLambda": 5,
            "trialLambda": 8.1,
            "instructedLambda": "dishonest_small",
            "drawnRed": 43,
            "reportedRed": 53,
            "inferredRed": 50,
            "playerTrialScore": -7,
            "oppTrialScore": 7,
            "playerTotalScore": -257,
            "oppTotalScore": 80,
            "waitTime": 5765.386935826672,
            "responseTime": 1678905388141,
            "catchQuestion": "How many <b class=\"r\">red<\/b> marbles did your opponent report drawing? ",
            "catchKey": -1,
            "catchResponse": -1,
            "catchTime": 1678905329449,
            "trialTime": 0
        },
        {
            "exptPart": "trial",
            "trialNumber": 16,
            "roleCurrent": "receiver",
            "marblesSampled": 100,
            "probRed": 0.5,
            "practiceLambda": 5,
            "trialLambda": 8.1,
            "instructedLambda": "dishonest_small",
            "drawnRed": 54,
            "reportedRed": 71,
            "inferredRed": 60,
            "playerTrialScore": -6,
            "oppTrialScore": 6,
            "playerTotalScore": -263,
            "oppTotalScore": 86,
            "waitTime": 6530.111111654777,
            "responseTime": 1678905398197,
            "catchQuestion": "How many <b class=\"r\">red<\/b> marbles did your opponent report drawing? ",
            "catchKey": -1,
            "catchResponse": -1,
            "catchTime": 1678905329449,
            "trialTime": 0
        },
        {
            "exptPart": "trial",
            "trialNumber": 17,
            "roleCurrent": "receiver",
            "marblesSampled": 100,
            "probRed": 0.5,
            "practiceLambda": 5,
            "trialLambda": 8.1,
            "instructedLambda": "dishonest_small",
            "drawnRed": 80,
            "reportedRed": 84,
            "inferredRed": 80,
            "playerTrialScore": 0,
            "oppTrialScore": 0,
            "playerTotalScore": -263,
            "oppTotalScore": 86,
            "waitTime": 5630.3968557347835,
            "responseTime": 1678905406658,
            "catchQuestion": "How many <b class=\"r\">red<\/b> marbles did your opponent report drawing? ",
            "catchKey": -1,
            "catchResponse": -1,
            "catchTime": 1678905329449,
            "trialTime": 0
        },
        {
            "exptPart": "trial",
            "trialNumber": 18,
            "roleCurrent": "receiver",
            "marblesSampled": 100,
            "probRed": 0.5,
            "practiceLambda": 5,
            "trialLambda": 8.1,
            "instructedLambda": "dishonest_small",
            "drawnRed": 36,
            "reportedRed": 42,
            "inferredRed": 40,
            "playerTrialScore": -4,
            "oppTrialScore": 4,
            "playerTotalScore": -267,
            "oppTotalScore": 90,
            "waitTime": 6731.085102426705,
            "responseTime": 1678905417300,
            "catchQuestion": "How many <b class=\"r\">red<\/b> marbles did your opponent report drawing? ",
            "catchKey": -1,
            "catchResponse": -1,
            "catchTime": 1678905329449,
            "trialTime": 0
        },
        {
            "exptPart": "trial",
            "trialNumber": 19,
            "roleCurrent": "receiver",
            "marblesSampled": 100,
            "probRed": 0.5,
            "practiceLambda": 5,
            "trialLambda": 8.1,
            "instructedLambda": "dishonest_small",
            "drawnRed": 68,
            "reportedRed": 76,
            "inferredRed": 75,
            "playerTrialScore": -7,
            "oppTrialScore": 7,
            "playerTotalScore": -274,
            "oppTotalScore": 97,
            "waitTime": 6021.802615700819,
            "responseTime": 1678905428151,
            "catchQuestion": "How many <b class=\"r\">red<\/b> marbles did your opponent report drawing? ",
            "catchKey": -1,
            "catchResponse": -1,
            "catchTime": 1678905329449,
            "trialTime": 0
        },
        {
            "exptPart": "trial",
            "trialNumber": 20,
            "roleCurrent": "receiver",
            "marblesSampled": 100,
            "probRed": 0.5,
            "practiceLambda": 5,
            "trialLambda": 8.1,
            "instructedLambda": "dishonest_small",
            "drawnRed": 23,
            "reportedRed": 33,
            "inferredRed": 30,
            "playerTrialScore": -7,
            "oppTrialScore": 7,
            "playerTotalScore": -281,
            "oppTotalScore": 104,
            "waitTime": 7081.794253487204,
            "responseTime": 1678905439206,
            "catchQuestion": "How many <b class=\"r\">red<\/b> marbles did your opponent report drawing? ",
            "catchKey": -1,
            "catchResponse": -1,
            "catchTime": 1678905439206,
            "trialTime": 0
        },
        {
            "exptPart": "trial",
            "trialNumber": 21,
            "roleCurrent": "receiver",
            "marblesSampled": 100,
            "probRed": 0.5,
            "practiceLambda": 5,
            "trialLambda": 8.1,
            "instructedLambda": "dishonest_small",
            "drawnRed": 38,
            "reportedRed": 49,
            "inferredRed": 90,
            "playerTrialScore": -52,
            "oppTrialScore": 52,
            "playerTotalScore": -333,
            "oppTotalScore": 156,
            "waitTime": 5780.397970440322,
            "responseTime": 1678905452364,
            "catchQuestion": "How many <b class=\"r\">red<\/b> marbles did your opponent report drawing? ",
            "catchKey": -1,
            "catchResponse": -1,
            "catchTime": 1678905439206,
            "trialTime": 0
        },
        {
            "exptPart": "trial",
            "trialNumber": 22,
            "roleCurrent": "receiver",
            "marblesSampled": 100,
            "probRed": 0.5,
            "practiceLambda": 5,
            "trialLambda": 8.1,
            "instructedLambda": "dishonest_small",
            "drawnRed": 23,
            "reportedRed": 30,
            "inferredRed": 80,
            "playerTrialScore": -57,
            "oppTrialScore": 57,
            "playerTotalScore": -390,
            "oppTotalScore": 213,
            "waitTime": 7473.181863022562,
            "responseTime": 1678905462632,
            "catchQuestion": "How many <b class=\"r\">red<\/b> marbles did your opponent report drawing? ",
            "catchKey": -1,
            "catchResponse": -1,
            "catchTime": 1678905439206,
            "trialTime": 0
        },
        {
            "exptPart": "trial",
            "trialNumber": 23,
            "roleCurrent": "receiver",
            "marblesSampled": 100,
            "probRed": 0.5,
            "practiceLambda": 5,
            "trialLambda": 8.1,
            "instructedLambda": "dishonest_small",
            "drawnRed": 37,
            "reportedRed": 42,
            "inferredRed": 80,
            "playerTrialScore": -43,
            "oppTrialScore": 43,
            "playerTotalScore": -433,
            "oppTotalScore": 256,
            "waitTime": 6472.849449812404,
            "responseTime": 1678905472531,
            "catchQuestion": "How many <b class=\"r\">red<\/b> marbles did your opponent report drawing? ",
            "catchKey": -1,
            "catchResponse": -1,
            "catchTime": 1678905439206,
            "trialTime": 0
        },
        {
            "exptPart": "trial",
            "trialNumber": 24,
            "roleCurrent": "receiver",
            "marblesSampled": 100,
            "probRed": 0.5,
            "practiceLambda": 5,
            "trialLambda": 8.1,
            "instructedLambda": "dishonest_small",
            "drawnRed": 59,
            "reportedRed": 66,
            "inferredRed": 90,
            "playerTrialScore": -31,
            "oppTrialScore": 31,
            "playerTotalScore": -464,
            "oppTotalScore": 287,
            "waitTime": 6654.960923239614,
            "responseTime": 1678905481749,
            "catchQuestion": "How many <b class=\"r\">red<\/b> marbles did your opponent report drawing? ",
            "catchKey": -1,
            "catchResponse": -1,
            "catchTime": 1678905439206,
            "trialTime": 0
        },
        {
            "exptPart": "trial",
            "trialNumber": 25,
            "roleCurrent": "receiver",
            "marblesSampled": 100,
            "probRed": 0.5,
            "practiceLambda": 5,
            "trialLambda": 8.1,
            "instructedLambda": "dishonest_small",
            "drawnRed": 34,
            "reportedRed": 42,
            "inferredRed": 98,
            "playerTrialScore": -64,
            "oppTrialScore": 64,
            "playerTotalScore": -528,
            "oppTotalScore": 351,
            "waitTime": 6612.361918174254,
            "responseTime": 1678905491290,
            "catchQuestion": "How many <b class=\"r\">red<\/b> marbles did your opponent report drawing? ",
            "catchKey": -1,
            "catchResponse": -1,
            "catchTime": 1678905439206,
            "trialTime": 0
        },
        {
            "exptPart": "trial",
            "trialNumber": 26,
            "roleCurrent": "receiver",
            "marblesSampled": 100,
            "probRed": 0.5,
            "practiceLambda": 5,
            "trialLambda": 8.1,
            "instructedLambda": "dishonest_small",
            "drawnRed": 23,
            "reportedRed": 31,
            "inferredRed": 76,
            "playerTrialScore": -53,
            "oppTrialScore": 53,
            "playerTotalScore": -581,
            "oppTotalScore": 404,
            "waitTime": 5619.7451223099815,
            "responseTime": 1678905502082,
            "catchQuestion": "How many <b class=\"r\">red<\/b> marbles did your opponent report drawing? ",
            "catchKey": 31,
            "catchResponse": 31,
            "catchTime": 1678905502082,
            "trialTime": 0
        },
        {
            "exptPart": "trial",
            "trialNumber": 27,
            "roleCurrent": "receiver",
            "marblesSampled": 100,
            "probRed": 0.5,
            "practiceLambda": 5,
            "trialLambda": 8.1,
            "instructedLambda": "dishonest_small",
            "drawnRed": 32,
            "reportedRed": 44,
            "inferredRed": 70,
            "playerTrialScore": -38,
            "oppTrialScore": 38,
            "playerTotalScore": -619,
            "oppTotalScore": 442,
            "waitTime": 6202.780075894614,
            "responseTime": 1678905519205,
            "catchQuestion": "How many <b class=\"r\">red<\/b> marbles did your opponent report drawing? ",
            "catchKey": -1,
            "catchResponse": -1,
            "catchTime": 1678905502082,
            "trialTime": 0
        },
        {
            "exptPart": "trial",
            "trialNumber": 28,
            "roleCurrent": "receiver",
            "marblesSampled": 100,
            "probRed": 0.5,
            "practiceLambda": 5,
            "trialLambda": 8.1,
            "instructedLambda": "dishonest_small",
            "drawnRed": 83,
            "reportedRed": 90,
            "inferredRed": 90,
            "playerTrialScore": -7,
            "oppTrialScore": 7,
            "playerTotalScore": -626,
            "oppTotalScore": 449,
            "waitTime": 6455.806013512656,
            "responseTime": 1678905542378,
            "catchQuestion": "How many <b class=\"r\">red<\/b> marbles did your opponent report drawing? ",
            "catchKey": -1,
            "catchResponse": -1,
            "catchTime": 1678905502082,
            "trialTime": 0
        },
        {
            "exptPart": "trial",
            "trialNumber": 29,
            "roleCurrent": "receiver",
            "marblesSampled": 100,
            "probRed": 0.5,
            "practiceLambda": 5,
            "trialLambda": 8.1,
            "instructedLambda": "dishonest_small",
            "drawnRed": 50,
            "reportedRed": 60,
            "inferredRed": 80,
            "playerTrialScore": -30,
            "oppTrialScore": 30,
            "playerTotalScore": -656,
            "oppTotalScore": 479,
            "waitTime": 6694.913719284008,
            "responseTime": 1678905553557,
            "catchQuestion": "How many <b class=\"r\">red<\/b> marbles did your opponent report drawing? ",
            "catchKey": 60,
            "catchResponse": 60,
            "catchTime": 1678905553557,
            "trialTime": 0
        },
        {
            "exptPart": "trial",
            "trialNumber": 30,
            "roleCurrent": "receiver",
            "marblesSampled": 100,
            "probRed": 0.5,
            "practiceLambda": 5,
            "trialLambda": 8.1,
            "instructedLambda": "dishonest_small",
            "drawnRed": 48,
            "reportedRed": 54,
            "inferredRed": 78,
            "playerTrialScore": -30,
            "oppTrialScore": 30,
            "playerTotalScore": -686,
            "oppTotalScore": 509,
            "waitTime": 5722.525528343592,
            "responseTime": 1678905568629,
            "catchQuestion": "How many <b class=\"r\">red<\/b> marbles did your opponent report drawing? ",
            "catchKey": -1,
            "catchResponse": -1,
            "catchTime": 1678905568629,
            "trialTime": 0
        },
        {
            "exptPart": "trial",
            "trialNumber": 31,
            "roleCurrent": "receiver",
            "marblesSampled": 100,
            "probRed": 0.5,
            "practiceLambda": 5,
            "trialLambda": 8.1,
            "instructedLambda": "dishonest_small",
            "drawnRed": 44,
            "reportedRed": 57,
            "inferredRed": 48,
            "playerTrialScore": -4,
            "oppTrialScore": 4,
            "playerTotalScore": -690,
            "oppTotalScore": 513,
            "waitTime": 7101.660977899052,
            "responseTime": 1678905582613,
            "catchQuestion": "How many <b class=\"r\">red<\/b> marbles did your opponent report drawing? ",
            "catchKey": -1,
            "catchResponse": -1,
            "catchTime": 1678905568629,
            "trialTime": 0
        },
        {
            "exptPart": "trial",
            "trialNumber": 32,
            "roleCurrent": "receiver",
            "marblesSampled": 100,
            "probRed": 0.5,
            "practiceLambda": 5,
            "trialLambda": 8.1,
            "instructedLambda": "dishonest_small",
            "drawnRed": 50,
            "reportedRed": 60,
            "inferredRed": 12,
            "playerTrialScore": -38,
            "oppTrialScore": 0,
            "playerTotalScore": -728,
            "oppTotalScore": 513,
            "waitTime": 5373.867503910404,
            "responseTime": 1678905592992,
            "catchQuestion": "How many <b class=\"r\">red<\/b> marbles did your opponent report drawing? ",
            "catchKey": -1,
            "catchResponse": -1,
            "catchTime": 1678905568629,
            "trialTime": 0
        },
        {
            "exptPart": "trial",
            "trialNumber": 33,
            "roleCurrent": "receiver",
            "marblesSampled": 100,
            "probRed": 0.5,
            "practiceLambda": 5,
            "trialLambda": 8.1,
            "instructedLambda": "dishonest_small",
            "drawnRed": 49,
            "reportedRed": 54,
            "inferredRed": 27,
            "playerTrialScore": -22,
            "oppTrialScore": 0,
            "playerTotalScore": -750,
            "oppTotalScore": 513,
            "waitTime": 6964.781056787595,
            "responseTime": 1678905604688,
            "catchQuestion": "How many <b class=\"r\">red<\/b> marbles did your opponent report drawing? ",
            "catchKey": -1,
            "catchResponse": -1,
            "catchTime": 1678905568629,
            "trialTime": 0
        },
        {
            "exptPart": "trial",
            "trialNumber": 34,
            "roleCurrent": "receiver",
            "marblesSampled": 100,
            "probRed": 0.5,
            "practiceLambda": 5,
            "trialLambda": 8.1,
            "instructedLambda": "dishonest_small",
            "drawnRed": 49,
            "reportedRed": 51,
            "inferredRed": 17,
            "playerTrialScore": -32,
            "oppTrialScore": 0,
            "playerTotalScore": -782,
            "oppTotalScore": 513,
            "waitTime": 6982.021269509731,
            "responseTime": 1678905615911,
            "catchQuestion": "How many <b class=\"r\">red<\/b> marbles did your opponent report drawing? ",
            "catchKey": -1,
            "catchResponse": -1,
            "catchTime": 1678905568629,
            "trialTime": 0
        },
        {
            "exptPart": "trial",
            "trialNumber": 35,
            "roleCurrent": "receiver",
            "marblesSampled": 100,
            "probRed": 0.5,
            "practiceLambda": 5,
            "trialLambda": 8.1,
            "instructedLambda": "dishonest_small",
            "drawnRed": 63,
            "reportedRed": 70,
            "inferredRed": 50,
            "playerTrialScore": -13,
            "oppTrialScore": 0,
            "playerTotalScore": -795,
            "oppTotalScore": 513,
            "waitTime": 5269.667506601138,
            "responseTime": 1678905625175,
            "catchQuestion": "How many <b class=\"r\">red<\/b> marbles did your opponent report drawing? ",
            "catchKey": -1,
            "catchResponse": -1,
            "catchTime": 1678905568629,
            "trialTime": 0
        },
        {
            "exptPart": "trial",
            "trialNumber": 36,
            "roleCurrent": "receiver",
            "marblesSampled": 100,
            "probRed": 0.5,
            "practiceLambda": 5,
            "trialLambda": 8.1,
            "instructedLambda": "dishonest_small",
            "drawnRed": 42,
            "reportedRed": 52,
            "inferredRed": 33,
            "playerTrialScore": -9,
            "oppTrialScore": 0,
            "playerTotalScore": -804,
            "oppTotalScore": 513,
            "waitTime": 6951.938497930952,
            "responseTime": 1678905635057,
            "catchQuestion": "How many <b class=\"r\">red<\/b> marbles did your opponent report drawing? ",
            "catchKey": -1,
            "catchResponse": -1,
            "catchTime": 1678905568629,
            "trialTime": 0
        },
        {
            "exptPart": "trial",
            "trialNumber": 37,
            "roleCurrent": "receiver",
            "marblesSampled": 100,
            "probRed": 0.5,
            "practiceLambda": 5,
            "trialLambda": 8.1,
            "instructedLambda": "dishonest_small",
            "drawnRed": 42,
            "reportedRed": 50,
            "inferredRed": 30,
            "playerTrialScore": -12,
            "oppTrialScore": 0,
            "playerTotalScore": -816,
            "oppTotalScore": 513,
            "waitTime": 6784.131729305706,
            "responseTime": 1678905644725,
            "catchQuestion": "How many <b class=\"r\">red<\/b> marbles did your opponent report drawing? ",
            "catchKey": -1,
            "catchResponse": -1,
            "catchTime": 1678905568629,
            "trialTime": 0
        },
        {
            "exptPart": "trial",
            "trialNumber": 38,
            "roleCurrent": "receiver",
            "marblesSampled": 100,
            "probRed": 0.5,
            "practiceLambda": 5,
            "trialLambda": 8.1,
            "instructedLambda": "dishonest_small",
            "drawnRed": 62,
            "reportedRed": 66,
            "inferredRed": 46,
            "playerTrialScore": -16,
            "oppTrialScore": 0,
            "playerTotalScore": -832,
            "oppTotalScore": 513,
            "waitTime": 5689.361148685564,
            "responseTime": 1678905654280,
            "catchQuestion": "How many <b class=\"r\">red<\/b> marbles did your opponent report drawing? ",
            "catchKey": -1,
            "catchResponse": -1,
            "catchTime": 1678905568629,
            "trialTime": 0
        },
        {
            "exptPart": "trial",
            "trialNumber": 39,
            "roleCurrent": "receiver",
            "marblesSampled": 100,
            "probRed": 0.5,
            "practiceLambda": 5,
            "trialLambda": 8.1,
            "instructedLambda": "dishonest_small",
            "drawnRed": 51,
            "reportedRed": 53,
            "inferredRed": 23,
            "playerTrialScore": -28,
            "oppTrialScore": 0,
            "playerTotalScore": -860,
            "oppTotalScore": 513,
            "waitTime": 5464.230498738112,
            "responseTime": 1678905662396,
            "catchQuestion": "How many <b class=\"r\">red<\/b> marbles did your opponent report drawing? ",
            "catchKey": -1,
            "catchResponse": -1,
            "catchTime": 1678905568629,
            "trialTime": 0
        },
        {
            "exptPart": "trial",
            "trialNumber": 40,
            "roleCurrent": "receiver",
            "marblesSampled": 100,
            "probRed": 0.5,
            "practiceLambda": 5,
            "trialLambda": 8.1,
            "instructedLambda": "dishonest_small",
            "drawnRed": 68,
            "reportedRed": 78,
            "inferredRed": 58,
            "playerTrialScore": -10,
            "oppTrialScore": 0,
            "playerTotalScore": -870,
            "oppTotalScore": 513,
            "waitTime": 7499.390521484916,
            "responseTime": 1678905674234,
            "catchQuestion": "How many <b class=\"r\">red<\/b> marbles did your opponent report drawing? ",
            "catchKey": -1,
            "catchResponse": -1,
            "catchTime": 1678905674234,
            "trialTime": 0
        },
        {
            "exptPart": "trial",
            "trialNumber": 41,
            "roleCurrent": "receiver",
            "marblesSampled": 100,
            "probRed": 0.5,
            "practiceLambda": 5,
            "trialLambda": 8.1,
            "instructedLambda": "dishonest_small",
            "drawnRed": 69,
            "reportedRed": 73,
            "inferredRed": 63,
            "playerTrialScore": -6,
            "oppTrialScore": 0,
            "playerTotalScore": -876,
            "oppTotalScore": 513,
            "waitTime": 5981.15229764425,
            "responseTime": 1678905692516,
            "catchQuestion": "How many <b class=\"r\">red<\/b> marbles did your opponent report drawing? ",
            "catchKey": -1,
            "catchResponse": -1,
            "catchTime": 1678905674234,
            "trialTime": 0
        },
        {
            "exptPart": "trial",
            "trialNumber": 42,
            "roleCurrent": "receiver",
            "marblesSampled": 100,
            "probRed": 0.5,
            "practiceLambda": 5,
            "trialLambda": 8.1,
            "instructedLambda": "dishonest_small",
            "drawnRed": 93,
            "reportedRed": 100,
            "inferredRed": 90,
            "playerTrialScore": -3,
            "oppTrialScore": 0,
            "playerTotalScore": -879,
            "oppTotalScore": 513,
            "waitTime": 5486.11355874809,
            "responseTime": 1678905701768,
            "catchQuestion": "How many <b class=\"r\">red<\/b> marbles did your opponent report drawing? ",
            "catchKey": -1,
            "catchResponse": -1,
            "catchTime": 1678905674234,
            "trialTime": 0
        },
        {
            "exptPart": "trial",
            "trialNumber": 43,
            "roleCurrent": "receiver",
            "marblesSampled": 100,
            "probRed": 0.5,
            "practiceLambda": 5,
            "trialLambda": 8.1,
            "instructedLambda": "dishonest_small",
            "drawnRed": 62,
            "reportedRed": 72,
            "inferredRed": 62,
            "playerTrialScore": 0,
            "oppTrialScore": 0,
            "playerTotalScore": -879,
            "oppTotalScore": 513,
            "waitTime": 5344.2483364328455,
            "responseTime": 1678905711909,
            "catchQuestion": "How many <b class=\"r\">red<\/b> marbles did your opponent report drawing? ",
            "catchKey": -1,
            "catchResponse": -1,
            "catchTime": 1678905674234,
            "trialTime": 0
        },
        {
            "exptPart": "trial",
            "trialNumber": 44,
            "roleCurrent": "receiver",
            "marblesSampled": 100,
            "probRed": 0.5,
            "practiceLambda": 5,
            "trialLambda": 8.1,
            "instructedLambda": "dishonest_small",
            "drawnRed": 38,
            "reportedRed": 49,
            "inferredRed": 39,
            "playerTrialScore": -1,
            "oppTrialScore": 1,
            "playerTotalScore": -880,
            "oppTotalScore": 514,
            "waitTime": 7340.044949058756,
            "responseTime": 1678905725319,
            "catchQuestion": "How many <b class=\"r\">red<\/b> marbles did your opponent report drawing? ",
            "catchKey": -1,
            "catchResponse": -1,
            "catchTime": 1678905674234,
            "trialTime": 0
        },
        {
            "exptPart": "trial",
            "trialNumber": 45,
            "roleCurrent": "receiver",
            "marblesSampled": 100,
            "probRed": 0.5,
            "practiceLambda": 5,
            "trialLambda": 8.1,
            "instructedLambda": "dishonest_small",
            "drawnRed": 79,
            "reportedRed": 86,
            "inferredRed": 76,
            "playerTrialScore": -3,
            "oppTrialScore": 0,
            "playerTotalScore": -883,
            "oppTotalScore": 514,
            "waitTime": 5751.4784889774255,
            "responseTime": 1678905733893,
            "catchQuestion": "How many <b class=\"r\">red<\/b> marbles did your opponent report drawing? ",
            "catchKey": -1,
            "catchResponse": -1,
            "catchTime": 1678905674234,
            "trialTime": 0
        },
        {
            "exptPart": "trial",
            "trialNumber": 46,
            "roleCurrent": "receiver",
            "marblesSampled": 100,
            "probRed": 0.5,
            "practiceLambda": 5,
            "trialLambda": 8.1,
            "instructedLambda": "dishonest_small",
            "drawnRed": 47,
            "reportedRed": 52,
            "inferredRed": 42,
            "playerTrialScore": -5,
            "oppTrialScore": 0,
            "playerTotalScore": -888,
            "oppTotalScore": 514,
            "waitTime": 5226.881844168611,
            "responseTime": 1678905742781,
            "catchQuestion": "How many <b class=\"r\">red<\/b> marbles did your opponent report drawing? ",
            "catchKey": -1,
            "catchResponse": -1,
            "catchTime": 1678905674234,
            "trialTime": 0
        },
        {
            "exptPart": "trial",
            "trialNumber": 47,
            "roleCurrent": "receiver",
            "marblesSampled": 100,
            "probRed": 0.5,
            "practiceLambda": 5,
            "trialLambda": 8.1,
            "instructedLambda": "dishonest_small",
            "drawnRed": 32,
            "reportedRed": 40,
            "inferredRed": 30,
            "playerTrialScore": -2,
            "oppTrialScore": 0,
            "playerTotalScore": -890,
            "oppTotalScore": 514,
            "waitTime": 6869.091569178636,
            "responseTime": 1678905752369,
            "catchQuestion": "How many <b class=\"r\">red<\/b> marbles did your opponent report drawing? ",
            "catchKey": -1,
            "catchResponse": -1,
            "catchTime": 1678905674234,
            "trialTime": 0
        },
        {
            "exptPart": "trial",
            "trialNumber": 48,
            "roleCurrent": "receiver",
            "marblesSampled": 100,
            "probRed": 0.5,
            "practiceLambda": 5,
            "trialLambda": 8.1,
            "instructedLambda": "dishonest_small",
            "drawnRed": 30,
            "reportedRed": 42,
            "inferredRed": 32,
            "playerTrialScore": -2,
            "oppTrialScore": 2,
            "playerTotalScore": -892,
            "oppTotalScore": 516,
            "waitTime": 6734.150893666121,
            "responseTime": 1678905761800,
            "catchQuestion": "How many <b class=\"r\">red<\/b> marbles did your opponent report drawing? ",
            "catchKey": -1,
            "catchResponse": -1,
            "catchTime": 1678905674234,
            "trialTime": 0
        },
        {
            "exptPart": "trial",
            "trialNumber": 49,
            "roleCurrent": "receiver",
            "marblesSampled": 100,
            "probRed": 0.5,
            "practiceLambda": 5,
            "trialLambda": 8.1,
            "instructedLambda": "dishonest_small",
            "drawnRed": 27,
            "reportedRed": 35,
            "inferredRed": 25,
            "playerTrialScore": -2,
            "oppTrialScore": 0,
            "playerTotalScore": -894,
            "oppTotalScore": 516,
            "waitTime": 5517.030645045197,
            "responseTime": 1678905769744,
            "catchQuestion": "How many <b class=\"r\">red<\/b> marbles did your opponent report drawing? ",
            "catchKey": -1,
            "catchResponse": -1,
            "catchTime": 1678905674234,
            "trialTime": 0
        },
        {
            "exptPart": "trial",
            "trialNumber": 50,
            "roleCurrent": "receiver",
            "marblesSampled": 100,
            "probRed": 0.5,
            "practiceLambda": 5,
            "trialLambda": 8.1,
            "instructedLambda": "dishonest_small",
            "drawnRed": 62,
            "reportedRed": 69,
            "inferredRed": 59,
            "playerTrialScore": -3,
            "oppTrialScore": 0,
            "playerTotalScore": -897,
            "oppTotalScore": 516,
            "waitTime": 5715.561718298808,
            "responseTime": 1678905779142,
            "catchQuestion": "How many <b class=\"r\">red<\/b> marbles did your opponent report drawing? ",
            "catchKey": 69,
            "catchResponse": 69,
            "catchTime": 1678905779142,
            "trialTime": 0
        },
        {
            "exptPart": "trial",
            "trialNumber": 51,
            "roleCurrent": "receiver",
            "marblesSampled": 100,
            "probRed": 0.5,
            "practiceLambda": 5,
            "trialLambda": 8.1,
            "instructedLambda": "dishonest_small",
            "drawnRed": 44,
            "reportedRed": 47,
            "inferredRed": 57,
            "playerTrialScore": -13,
            "oppTrialScore": 13,
            "playerTotalScore": -910,
            "oppTotalScore": 529,
            "waitTime": 7121.376057871287,
            "responseTime": 1678905806054,
            "catchQuestion": "How many <b class=\"r\">red<\/b> marbles did your opponent report drawing? ",
            "catchKey": -1,
            "catchResponse": -1,
            "catchTime": 1678905779142,
            "trialTime": 0
        },
        {
            "exptPart": "trial",
            "trialNumber": 52,
            "roleCurrent": "receiver",
            "marblesSampled": 100,
            "probRed": 0.5,
            "practiceLambda": 5,
            "trialLambda": 8.1,
            "instructedLambda": "dishonest_small",
            "drawnRed": 47,
            "reportedRed": 54,
            "inferredRed": 64,
            "playerTrialScore": -17,
            "oppTrialScore": 17,
            "playerTotalScore": -927,
            "oppTotalScore": 546,
            "waitTime": 5230.6974737220135,
            "responseTime": 1678905815547,
            "catchQuestion": "How many <b class=\"r\">red<\/b> marbles did your opponent report drawing? ",
            "catchKey": 54,
            "catchResponse": 54,
            "catchTime": 1678905815547,
            "trialTime": 0
        },
        {
            "exptPart": "trial",
            "trialNumber": 53,
            "roleCurrent": "receiver",
            "marblesSampled": 100,
            "probRed": 0.5,
            "practiceLambda": 5,
            "trialLambda": 8.1,
            "instructedLambda": "dishonest_small",
            "drawnRed": 5,
            "reportedRed": 8,
            "inferredRed": 18,
            "playerTrialScore": -13,
            "oppTrialScore": 13,
            "playerTotalScore": -940,
            "oppTotalScore": 559,
            "waitTime": 7214.68543874533,
            "responseTime": 1678905829316,
            "catchQuestion": "How many <b class=\"r\">red<\/b> marbles did your opponent report drawing? ",
            "catchKey": -1,
            "catchResponse": -1,
            "catchTime": 1678905815547,
            "trialTime": 0
        },
        {
            "exptPart": "trial",
            "trialNumber": 54,
            "roleCurrent": "receiver",
            "marblesSampled": 100,
            "probRed": 0.5,
            "practiceLambda": 5,
            "trialLambda": 8.1,
            "instructedLambda": "dishonest_small",
            "drawnRed": 41,
            "reportedRed": 48,
            "inferredRed": 58,
            "playerTrialScore": -17,
            "oppTrialScore": 17,
            "playerTotalScore": -957,
            "oppTotalScore": 576,
            "waitTime": 5596.515631073468,
            "responseTime": 1678905837624,
            "catchQuestion": "How many <b class=\"r\">red<\/b> marbles did your opponent report drawing? ",
            "catchKey": 48,
            "catchResponse": 48,
            "catchTime": 1678905837624,
            "trialTime": 0
        },
        {
            "exptPart": "trial",
            "trialNumber": 55,
            "roleCurrent": "receiver",
            "marblesSampled": 100,
            "probRed": 0.5,
            "practiceLambda": 5,
            "trialLambda": 8.1,
            "instructedLambda": "dishonest_small",
            "drawnRed": 84,
            "reportedRed": 90,
            "inferredRed": 100,
            "playerTrialScore": -16,
            "oppTrialScore": 16,
            "playerTotalScore": -973,
            "oppTotalScore": 592,
            "waitTime": 5817.443010110903,
            "responseTime": 1678905851542,
            "catchQuestion": "How many <b class=\"r\">red<\/b> marbles did your opponent report drawing? ",
            "catchKey": -1,
            "catchResponse": -1,
            "catchTime": 1678905837624,
            "trialTime": 0
        },
        {
            "exptPart": "trial",
            "trialNumber": 56,
            "roleCurrent": "receiver",
            "marblesSampled": 100,
            "probRed": 0.5,
            "practiceLambda": 5,
            "trialLambda": 8.1,
            "instructedLambda": "dishonest_small",
            "drawnRed": 33,
            "reportedRed": 43,
            "inferredRed": 53,
            "playerTrialScore": -20,
            "oppTrialScore": 20,
            "playerTotalScore": -993,
            "oppTotalScore": 612,
            "waitTime": 5210.206814331064,
            "responseTime": 1678905859838,
            "catchQuestion": "How many <b class=\"r\">red<\/b> marbles did your opponent report drawing? ",
            "catchKey": -1,
            "catchResponse": -1,
            "catchTime": 1678905837624,
            "trialTime": 0
        },
        {
            "exptPart": "trial",
            "trialNumber": 57,
            "roleCurrent": "receiver",
            "marblesSampled": 100,
            "probRed": 0.5,
            "practiceLambda": 5,
            "trialLambda": 8.1,
            "instructedLambda": "dishonest_small",
            "drawnRed": 37,
            "reportedRed": 46,
            "inferredRed": 56,
            "playerTrialScore": -19,
            "oppTrialScore": 19,
            "playerTotalScore": -1012,
            "oppTotalScore": 631,
            "waitTime": 6975.123064063918,
            "responseTime": 1678905869934,
            "catchQuestion": "How many <b class=\"r\">red<\/b> marbles did your opponent report drawing? ",
            "catchKey": -1,
            "catchResponse": -1,
            "catchTime": 1678905837624,
            "trialTime": 0
        },
        {
            "exptPart": "trial",
            "trialNumber": 58,
            "roleCurrent": "receiver",
            "marblesSampled": 100,
            "probRed": 0.5,
            "practiceLambda": 5,
            "trialLambda": 8.1,
            "instructedLambda": "dishonest_small",
            "drawnRed": 40,
            "reportedRed": 43,
            "inferredRed": 53,
            "playerTrialScore": -13,
            "oppTrialScore": 13,
            "playerTotalScore": -1025,
            "oppTotalScore": 644,
            "waitTime": 6632.364911088318,
            "responseTime": 1678905879889,
            "catchQuestion": "How many <b class=\"r\">red<\/b> marbles did your opponent report drawing? ",
            "catchKey": -1,
            "catchResponse": -1,
            "catchTime": 1678905837624,
            "trialTime": 0
        },
        {
            "exptPart": "trial",
            "trialNumber": 59,
            "roleCurrent": "receiver",
            "marblesSampled": 100,
            "probRed": 0.5,
            "practiceLambda": 5,
            "trialLambda": 8.1,
            "instructedLambda": "dishonest_small",
            "drawnRed": 50,
            "reportedRed": 64,
            "inferredRed": 74,
            "playerTrialScore": -24,
            "oppTrialScore": 24,
            "playerTotalScore": -1049,
            "oppTotalScore": 668,
            "waitTime": 7026.0286355016615,
            "responseTime": 1678905889401,
            "catchQuestion": "How many <b class=\"r\">red<\/b> marbles did your opponent report drawing? ",
            "catchKey": -1,
            "catchResponse": -1,
            "catchTime": 1678905837624,
            "trialTime": 0
        },
        {
            "exptPart": "trial",
            "trialNumber": 60,
            "roleCurrent": "receiver",
            "marblesSampled": 100,
            "probRed": 0.5,
            "practiceLambda": 5,
            "trialLambda": 8.1,
            "instructedLambda": "dishonest_small",
            "drawnRed": 47,
            "reportedRed": 58,
            "inferredRed": 68,
            "playerTrialScore": -21,
            "oppTrialScore": 21,
            "playerTotalScore": -1070,
            "oppTotalScore": 689,
            "waitTime": 7254.141141156744,
            "responseTime": 1678905900840,
            "catchQuestion": "How many <b class=\"r\">red<\/b> marbles did your opponent report drawing? ",
            "catchKey": -1,
            "catchResponse": -1,
            "catchTime": 1678905900840,
            "trialTime": 0
        },
        {
            "exptPart": "trial",
            "trialNumber": 61,
            "roleCurrent": "receiver",
            "marblesSampled": 100,
            "probRed": 0.5,
            "practiceLambda": 5,
            "trialLambda": 8.1,
            "instructedLambda": "dishonest_small",
            "drawnRed": 70,
            "reportedRed": 79,
            "inferredRed": 79,
            "playerTrialScore": -9,
            "oppTrialScore": 9,
            "playerTotalScore": -1079,
            "oppTotalScore": 698,
            "waitTime": 6725.7271220878065,
            "responseTime": 1678905916417,
            "catchQuestion": "How many <b class=\"r\">red<\/b> marbles did your opponent report drawing? ",
            "catchKey": -1,
            "catchResponse": -1,
            "catchTime": 1678905900840,
            "trialTime": 0
        },
        {
            "exptPart": "trial",
            "trialNumber": 62,
            "roleCurrent": "receiver",
            "marblesSampled": 100,
            "probRed": 0.5,
            "practiceLambda": 5,
            "trialLambda": 8.1,
            "instructedLambda": "dishonest_small",
            "drawnRed": 53,
            "reportedRed": 59,
            "inferredRed": 39,
            "playerTrialScore": -14,
            "oppTrialScore": 0,
            "playerTotalScore": -1093,
            "oppTotalScore": 698,
            "waitTime": 7277.218876221084,
            "responseTime": 1678905929573,
            "catchQuestion": "How many <b class=\"r\">red<\/b> marbles did your opponent report drawing? ",
            "catchKey": -1,
            "catchResponse": -1,
            "catchTime": 1678905900840,
            "trialTime": 0
        },
        {
            "exptPart": "trial",
            "trialNumber": 63,
            "roleCurrent": "receiver",
            "marblesSampled": 100,
            "probRed": 0.5,
            "practiceLambda": 5,
            "trialLambda": 8.1,
            "instructedLambda": "dishonest_small",
            "drawnRed": 45,
            "reportedRed": 56,
            "inferredRed": 46,
            "playerTrialScore": -1,
            "oppTrialScore": 1,
            "playerTotalScore": -1094,
            "oppTotalScore": 699,
            "waitTime": 7466.210728958427,
            "responseTime": 1678905940615,
            "catchQuestion": "How many <b class=\"r\">red<\/b> marbles did your opponent report drawing? ",
            "catchKey": -1,
            "catchResponse": -1,
            "catchTime": 1678905900840,
            "trialTime": 0
        },
        {
            "exptPart": "trial",
            "trialNumber": 64,
            "roleCurrent": "receiver",
            "marblesSampled": 100,
            "probRed": 0.5,
            "practiceLambda": 5,
            "trialLambda": 8.1,
            "instructedLambda": "dishonest_small",
            "drawnRed": 58,
            "reportedRed": 65,
            "inferredRed": 45,
            "playerTrialScore": -13,
            "oppTrialScore": 0,
            "playerTotalScore": -1107,
            "oppTotalScore": 699,
            "waitTime": 6854.335364240449,
            "responseTime": 1678905951983,
            "catchQuestion": "How many <b class=\"r\">red<\/b> marbles did your opponent report drawing? ",
            "catchKey": 65,
            "catchResponse": 65,
            "catchTime": 1678905951983,
            "trialTime": 0
        },
        {
            "exptPart": "trial",
            "trialNumber": 65,
            "roleCurrent": "receiver",
            "marblesSampled": 100,
            "probRed": 0.5,
            "practiceLambda": 5,
            "trialLambda": 8.1,
            "instructedLambda": "dishonest_small",
            "drawnRed": 68,
            "reportedRed": 75,
            "inferredRed": 25,
            "playerTrialScore": -43,
            "oppTrialScore": 0,
            "playerTotalScore": -1150,
            "oppTotalScore": 699,
            "waitTime": 5427.74043783508,
            "responseTime": 1678905966342,
            "catchQuestion": "How many <b class=\"r\">red<\/b> marbles did your opponent report drawing? ",
            "catchKey": -1,
            "catchResponse": -1,
            "catchTime": 1678905951983,
            "trialTime": 0
        },
        {
            "exptPart": "trial",
            "trialNumber": 66,
            "roleCurrent": "receiver",
            "marblesSampled": 100,
            "probRed": 0.5,
            "practiceLambda": 5,
            "trialLambda": 8.1,
            "instructedLambda": "dishonest_small",
            "drawnRed": 94,
            "reportedRed": 100,
            "inferredRed": 80,
            "playerTrialScore": -14,
            "oppTrialScore": 0,
            "playerTotalScore": -1164,
            "oppTotalScore": 699,
            "waitTime": 5969.093377559015,
            "responseTime": 1678905976122,
            "catchQuestion": "How many <b class=\"r\">red<\/b> marbles did your opponent report drawing? ",
            "catchKey": -1,
            "catchResponse": -1,
            "catchTime": 1678905951983,
            "trialTime": 0
        },
        {
            "exptPart": "trial",
            "trialNumber": 67,
            "roleCurrent": "receiver",
            "marblesSampled": 100,
            "probRed": 0.5,
            "practiceLambda": 5,
            "trialLambda": 8.1,
            "instructedLambda": "dishonest_small",
            "drawnRed": 73,
            "reportedRed": 78,
            "inferredRed": 68,
            "playerTrialScore": -5,
            "oppTrialScore": 0,
            "playerTotalScore": -1169,
            "oppTotalScore": 699,
            "waitTime": 6717.489936693591,
            "responseTime": 1678905986329,
            "catchQuestion": "How many <b class=\"r\">red<\/b> marbles did your opponent report drawing? ",
            "catchKey": -1,
            "catchResponse": -1,
            "catchTime": 1678905951983,
            "trialTime": 0
        },
        {
            "exptPart": "trial",
            "trialNumber": 68,
            "roleCurrent": "receiver",
            "marblesSampled": 100,
            "probRed": 0.5,
            "practiceLambda": 5,
            "trialLambda": 8.1,
            "instructedLambda": "dishonest_small",
            "drawnRed": 29,
            "reportedRed": 38,
            "inferredRed": 18,
            "playerTrialScore": -11,
            "oppTrialScore": 0,
            "playerTotalScore": -1180,
            "oppTotalScore": 699,
            "waitTime": 6208.212237479755,
            "responseTime": 1678905994937,
            "catchQuestion": "How many <b class=\"r\">red<\/b> marbles did your opponent report drawing? ",
            "catchKey": -1,
            "catchResponse": -1,
            "catchTime": 1678905951983,
            "trialTime": 0
        },
        {
            "exptPart": "trial",
            "trialNumber": 69,
            "roleCurrent": "receiver",
            "marblesSampled": 100,
            "probRed": 0.5,
            "practiceLambda": 5,
            "trialLambda": 8.1,
            "instructedLambda": "dishonest_small",
            "drawnRed": 60,
            "reportedRed": 70,
            "inferredRed": 60,
            "playerTrialScore": 0,
            "oppTrialScore": 0,
            "playerTotalScore": -1180,
            "oppTotalScore": 699,
            "waitTime": 5333.257669845096,
            "responseTime": 1678906003819,
            "catchQuestion": "How many <b class=\"r\">red<\/b> marbles did your opponent report drawing? ",
            "catchKey": -1,
            "catchResponse": -1,
            "catchTime": 1678905951983,
            "trialTime": 0
        },
        {
            "exptPart": "trial",
            "trialNumber": 70,
            "roleCurrent": "receiver",
            "marblesSampled": 100,
            "probRed": 0.5,
            "practiceLambda": 5,
            "trialLambda": 8.1,
            "instructedLambda": "dishonest_small",
            "drawnRed": 32,
            "reportedRed": 39,
            "inferredRed": 29,
            "playerTrialScore": -3,
            "oppTrialScore": 0,
            "playerTotalScore": -1183,
            "oppTotalScore": 699,
            "waitTime": 6482.692210305173,
            "responseTime": 1678906013003,
            "catchQuestion": "How many <b class=\"r\">red<\/b> marbles did your opponent report drawing? ",
            "catchKey": -1,
            "catchResponse": -1,
            "catchTime": 1678906013004,
            "trialTime": 0
        },
        {
            "exptPart": "trial",
            "trialNumber": 71,
            "roleCurrent": "receiver",
            "marblesSampled": 100,
            "probRed": 0.5,
            "practiceLambda": 5,
            "trialLambda": 8.1,
            "instructedLambda": "dishonest_small",
            "drawnRed": 25,
            "reportedRed": 34,
            "inferredRed": 29,
            "playerTrialScore": -4,
            "oppTrialScore": 4,
            "playerTotalScore": -1187,
            "oppTotalScore": 703,
            "waitTime": 5190.105817731343,
            "responseTime": 1678906027884,
            "catchQuestion": "How many <b class=\"r\">red<\/b> marbles did your opponent report drawing? ",
            "catchKey": -1,
            "catchResponse": -1,
            "catchTime": 1678906013004,
            "trialTime": 0
        },
        {
            "exptPart": "trial",
            "trialNumber": 72,
            "roleCurrent": "receiver",
            "marblesSampled": 100,
            "probRed": 0.5,
            "practiceLambda": 5,
            "trialLambda": 8.1,
            "instructedLambda": "dishonest_small",
            "drawnRed": 18,
            "reportedRed": 29,
            "inferredRed": 28,
            "playerTrialScore": -10,
            "oppTrialScore": 10,
            "playerTotalScore": -1197,
            "oppTotalScore": 713,
            "waitTime": 5920.734348847277,
            "responseTime": 1678906036848,
            "catchQuestion": "How many <b class=\"r\">red<\/b> marbles did your opponent report drawing? ",
            "catchKey": -1,
            "catchResponse": -1,
            "catchTime": 1678906013004,
            "trialTime": 0
        },
        {
            "exptPart": "trial",
            "trialNumber": 73,
            "roleCurrent": "receiver",
            "marblesSampled": 100,
            "probRed": 0.5,
            "practiceLambda": 5,
            "trialLambda": 8.1,
            "instructedLambda": "dishonest_small",
            "drawnRed": 64,
            "reportedRed": 68,
            "inferredRed": 63,
            "playerTrialScore": -1,
            "oppTrialScore": 0,
            "playerTotalScore": -1198,
            "oppTotalScore": 713,
            "waitTime": 5609.552679039609,
            "responseTime": 1678906046309,
            "catchQuestion": "How many <b class=\"r\">red<\/b> marbles did your opponent report drawing? ",
            "catchKey": -1,
            "catchResponse": -1,
            "catchTime": 1678906013004,
            "trialTime": 0
        },
        {
            "exptPart": "trial",
            "trialNumber": 74,
            "roleCurrent": "receiver",
            "marblesSampled": 100,
            "probRed": 0.5,
            "practiceLambda": 5,
            "trialLambda": 8.1,
            "instructedLambda": "dishonest_small",
            "drawnRed": 72,
            "reportedRed": 78,
            "inferredRed": 73,
            "playerTrialScore": -1,
            "oppTrialScore": 1,
            "playerTotalScore": -1199,
            "oppTotalScore": 714,
            "waitTime": 5689.172130933454,
            "responseTime": 1678906055254,
            "catchQuestion": "How many <b class=\"r\">red<\/b> marbles did your opponent report drawing? ",
            "catchKey": -1,
            "catchResponse": -1,
            "catchTime": 1678906013004,
            "trialTime": 0
        },
        {
            "exptPart": "trial",
            "trialNumber": 75,
            "roleCurrent": "receiver",
            "marblesSampled": 100,
            "probRed": 0.5,
            "practiceLambda": 5,
            "trialLambda": 8.1,
            "instructedLambda": "dishonest_small",
            "drawnRed": 41,
            "reportedRed": 45,
            "inferredRed": 40,
            "playerTrialScore": -1,
            "oppTrialScore": 0,
            "playerTotalScore": -1200,
            "oppTotalScore": 714,
            "waitTime": 5439.303348534771,
            "responseTime": 1678906064701,
            "catchQuestion": "How many <b class=\"r\">red<\/b> marbles did your opponent report drawing? ",
            "catchKey": 45,
            "catchResponse": 45,
            "catchTime": 1678906064701,
            "trialTime": 0
        },
        {
            "exptPart": "trial",
            "trialNumber": 76,
            "roleCurrent": "receiver",
            "marblesSampled": 100,
            "probRed": 0.5,
            "practiceLambda": 5,
            "trialLambda": 8.1,
            "instructedLambda": "dishonest_small",
            "drawnRed": 55,
            "reportedRed": 64,
            "inferredRed": 63,
            "playerTrialScore": -8,
            "oppTrialScore": 8,
            "playerTotalScore": -1208,
            "oppTotalScore": 722,
            "waitTime": 5301.78317637176,
            "responseTime": 1678906088410,
            "catchQuestion": "How many <b class=\"r\">red<\/b> marbles did your opponent report drawing? ",
            "catchKey": -1,
            "catchResponse": -1,
            "catchTime": 1678906064701,
            "trialTime": 0
        },
        {
            "exptPart": "trial",
            "trialNumber": 77,
            "roleCurrent": "receiver",
            "marblesSampled": 100,
            "probRed": 0.5,
            "practiceLambda": 5,
            "trialLambda": 8.1,
            "instructedLambda": "dishonest_small",
            "drawnRed": 26,
            "reportedRed": 43,
            "inferredRed": 50,
            "playerTrialScore": -24,
            "oppTrialScore": 24,
            "playerTotalScore": -1232,
            "oppTotalScore": 746,
            "waitTime": 6249.677834020671,
            "responseTime": 1678906099564,
            "catchQuestion": "How many <b class=\"r\">red<\/b> marbles did your opponent report drawing? ",
            "catchKey": 43,
            "catchResponse": 43,
            "catchTime": 1678906099565,
            "trialTime": 0
        },
        {
            "exptPart": "trial",
            "trialNumber": 78,
            "roleCurrent": "receiver",
            "marblesSampled": 100,
            "probRed": 0.5,
            "practiceLambda": 5,
            "trialLambda": 8.1,
            "instructedLambda": "dishonest_small",
            "drawnRed": 59,
            "reportedRed": 67,
            "inferredRed": 66,
            "playerTrialScore": -7,
            "oppTrialScore": 7,
            "playerTotalScore": -1239,
            "oppTotalScore": 753,
            "waitTime": 5226.717151407704,
            "responseTime": 1678906115007,
            "catchQuestion": "How many <b class=\"r\">red<\/b> marbles did your opponent report drawing? ",
            "catchKey": -1,
            "catchResponse": -1,
            "catchTime": 1678906099565,
            "trialTime": 0
        },
        {
            "exptPart": "trial",
            "trialNumber": 79,
            "roleCurrent": "receiver",
            "marblesSampled": 100,
            "probRed": 0.5,
            "practiceLambda": 5,
            "trialLambda": 8.1,
            "instructedLambda": "dishonest_small",
            "drawnRed": 25,
            "reportedRed": 34,
            "inferredRed": 30,
            "playerTrialScore": -5,
            "oppTrialScore": 5,
            "playerTotalScore": -1244,
            "oppTotalScore": 758,
            "waitTime": 5624.723364243152,
            "responseTime": 1678906123758,
            "catchQuestion": "How many <b class=\"r\">red<\/b> marbles did your opponent report drawing? ",
            "catchKey": -1,
            "catchResponse": -1,
            "catchTime": 1678906099565,
            "trialTime": 0
        },
        {
            "exptPart": "trial",
            "trialNumber": 80,
            "roleCurrent": "receiver",
            "marblesSampled": 100,
            "probRed": 0.5,
            "practiceLambda": 5,
            "trialLambda": 8.1,
            "instructedLambda": "dishonest_small",
            "drawnRed": 35,
            "reportedRed": 43,
            "inferredRed": 42,
            "playerTrialScore": -7,
            "oppTrialScore": 7,
            "playerTotalScore": -1251,
            "oppTotalScore": 765,
            "waitTime": 5899.719326350156,
            "responseTime": 1678906132944,
            "catchQuestion": "How many <b class=\"r\">red<\/b> marbles did your opponent report drawing? ",
            "catchKey": -1,
            "catchResponse": -1,
            "catchTime": 1678906132944,
            "trialTime": 0
        },
        {
            "exptPart": "trial",
            "trialNumber": 81,
            "roleCurrent": "receiver",
            "marblesSampled": 100,
            "probRed": 0.5,
            "practiceLambda": 5,
            "trialLambda": 8.1,
            "instructedLambda": "dishonest_small",
            "drawnRed": 19,
            "reportedRed": 26,
            "inferredRed": 25,
            "playerTrialScore": -6,
            "oppTrialScore": 6,
            "playerTotalScore": -1257,
            "oppTotalScore": 771,
            "waitTime": 7497.96944384297,
            "responseTime": 1678906152193,
            "catchQuestion": "How many <b class=\"r\">red<\/b> marbles did your opponent report drawing? ",
            "catchKey": -1,
            "catchResponse": -1,
            "catchTime": 1678906132944,
            "trialTime": 0
        },
        {
            "exptPart": "trial",
            "trialNumber": 82,
            "roleCurrent": "receiver",
            "marblesSampled": 100,
            "probRed": 0.5,
            "practiceLambda": 5,
            "trialLambda": 8.1,
            "instructedLambda": "dishonest_small",
            "drawnRed": 89,
            "reportedRed": 99,
            "inferredRed": 99,
            "playerTrialScore": -10,
            "oppTrialScore": 10,
            "playerTotalScore": -1267,
            "oppTotalScore": 781,
            "waitTime": 5628.449089906897,
            "responseTime": 1678906160978,
            "catchQuestion": "How many <b class=\"r\">red<\/b> marbles did your opponent report drawing? ",
            "catchKey": -1,
            "catchResponse": -1,
            "catchTime": 1678906132944,
            "trialTime": 0
        },
        {
            "exptPart": "trial",
            "trialNumber": 83,
            "roleCurrent": "receiver",
            "marblesSampled": 100,
            "probRed": 0.5,
            "practiceLambda": 5,
            "trialLambda": 8.1,
            "instructedLambda": "dishonest_small",
            "drawnRed": 44,
            "reportedRed": 50,
            "inferredRed": 49,
            "playerTrialScore": -5,
            "oppTrialScore": 5,
            "playerTotalScore": -1272,
            "oppTotalScore": 786,
            "waitTime": 6187.663854940054,
            "responseTime": 1678906172353,
            "catchQuestion": "How many <b class=\"r\">red<\/b> marbles did your opponent report drawing? ",
            "catchKey": -1,
            "catchResponse": -1,
            "catchTime": 1678906132944,
            "trialTime": 0
        },
        {
            "exptPart": "trial",
            "trialNumber": 84,
            "roleCurrent": "receiver",
            "marblesSampled": 100,
            "probRed": 0.5,
            "practiceLambda": 5,
            "trialLambda": 8.1,
            "instructedLambda": "dishonest_small",
            "drawnRed": 85,
            "reportedRed": 94,
            "inferredRed": 92,
            "playerTrialScore": -7,
            "oppTrialScore": 7,
            "playerTotalScore": -1279,
            "oppTotalScore": 793,
            "waitTime": 6292.357238257965,
            "responseTime": 1678906181521,
            "catchQuestion": "How many <b class=\"r\">red<\/b> marbles did your opponent report drawing? ",
            "catchKey": -1,
            "catchResponse": -1,
            "catchTime": 1678906132944,
            "trialTime": 0
        },
        {
            "exptPart": "trial",
            "trialNumber": 85,
            "roleCurrent": "receiver",
            "marblesSampled": 100,
            "probRed": 0.5,
            "practiceLambda": 5,
            "trialLambda": 8.1,
            "instructedLambda": "dishonest_small",
            "drawnRed": 35,
            "reportedRed": 43,
            "inferredRed": 41,
            "playerTrialScore": -6,
            "oppTrialScore": 6,
            "playerTotalScore": -1285,
            "oppTotalScore": 799,
            "waitTime": 5192.632634303565,
            "responseTime": 1678906190993,
            "catchQuestion": "How many <b class=\"r\">red<\/b> marbles did your opponent report drawing? ",
            "catchKey": -1,
            "catchResponse": -1,
            "catchTime": 1678906132944,
            "trialTime": 0
        },
        {
            "exptPart": "trial",
            "trialNumber": 86,
            "roleCurrent": "receiver",
            "marblesSampled": 100,
            "probRed": 0.5,
            "practiceLambda": 5,
            "trialLambda": 8.1,
            "instructedLambda": "dishonest_small",
            "drawnRed": 40,
            "reportedRed": 55,
            "inferredRed": 50,
            "playerTrialScore": -10,
            "oppTrialScore": 10,
            "playerTotalScore": -1295,
            "oppTotalScore": 809,
            "waitTime": 5410.527591664837,
            "responseTime": 1678906201642,
            "catchQuestion": "How many <b class=\"r\">red<\/b> marbles did your opponent report drawing? ",
            "catchKey": -1,
            "catchResponse": -1,
            "catchTime": 1678906132944,
            "trialTime": 0
        },
        {
            "exptPart": "trial",
            "trialNumber": 87,
            "roleCurrent": "receiver",
            "marblesSampled": 100,
            "probRed": 0.5,
            "practiceLambda": 5,
            "trialLambda": 8.1,
            "instructedLambda": "dishonest_small",
            "drawnRed": 56,
            "reportedRed": 63,
            "inferredRed": 62,
            "playerTrialScore": -6,
            "oppTrialScore": 6,
            "playerTotalScore": -1301,
            "oppTotalScore": 815,
            "waitTime": 6892.863229845662,
            "responseTime": 1678906214284,
            "catchQuestion": "How many <b class=\"r\">red<\/b> marbles did your opponent report drawing? ",
            "catchKey": -1,
            "catchResponse": -1,
            "catchTime": 1678906132944,
            "trialTime": 0
        },
        {
            "exptPart": "trial",
            "trialNumber": 88,
            "roleCurrent": "receiver",
            "marblesSampled": 100,
            "probRed": 0.5,
            "practiceLambda": 5,
            "trialLambda": 8.1,
            "instructedLambda": "dishonest_small",
            "drawnRed": 59,
            "reportedRed": 64,
            "inferredRed": 64,
            "playerTrialScore": -5,
            "oppTrialScore": 5,
            "playerTotalScore": -1306,
            "oppTotalScore": 820,
            "waitTime": 5228.763548308625,
            "responseTime": 1678906224204,
            "catchQuestion": "How many <b class=\"r\">red<\/b> marbles did your opponent report drawing? ",
            "catchKey": -1,
            "catchResponse": -1,
            "catchTime": 1678906132944,
            "trialTime": 0
        },
        {
            "exptPart": "trial",
            "trialNumber": 89,
            "roleCurrent": "receiver",
            "marblesSampled": 100,
            "probRed": 0.5,
            "practiceLambda": 5,
            "trialLambda": 8.1,
            "instructedLambda": "dishonest_small",
            "drawnRed": 94,
            "reportedRed": 100,
            "inferredRed": 50,
            "playerTrialScore": -44,
            "oppTrialScore": 0,
            "playerTotalScore": -1350,
            "oppTotalScore": 820,
            "waitTime": 6859.502618872669,
            "responseTime": 1678906233326,
            "catchQuestion": "How many <b class=\"r\">red<\/b> marbles did your opponent report drawing? ",
            "catchKey": -1,
            "catchResponse": -1,
            "catchTime": 1678906132944,
            "trialTime": 0
        },
        {
            "exptPart": "trial",
            "trialNumber": 90,
            "roleCurrent": "receiver",
            "marblesSampled": 100,
            "probRed": 0.5,
            "practiceLambda": 5,
            "trialLambda": 8.1,
            "instructedLambda": "dishonest_small",
            "drawnRed": 70,
            "reportedRed": 79,
            "inferredRed": 78,
            "playerTrialScore": -8,
            "oppTrialScore": 8,
            "playerTotalScore": -1358,
            "oppTotalScore": 828,
            "waitTime": 5978.505487952421,
            "responseTime": 1678906242244,
            "catchQuestion": "How many <b class=\"r\">red<\/b> marbles did your opponent report drawing? ",
            "catchKey": -1,
            "catchResponse": -1,
            "catchTime": 1678906242244,
            "trialTime": 0
        },
        {
            "exptPart": "trial",
            "trialNumber": 91,
            "roleCurrent": "receiver",
            "marblesSampled": 100,
            "probRed": 0.5,
            "practiceLambda": 5,
            "trialLambda": 8.1,
            "instructedLambda": "dishonest_small",
            "drawnRed": 64,
            "reportedRed": 71,
            "inferredRed": 20,
            "playerTrialScore": -44,
            "oppTrialScore": 0,
            "playerTotalScore": -1402,
            "oppTotalScore": 828,
            "waitTime": 5579.81255723982,
            "responseTime": 1678906254864,
            "catchQuestion": "How many <b class=\"r\">red<\/b> marbles did your opponent report drawing? ",
            "catchKey": -1,
            "catchResponse": -1,
            "catchTime": 1678906242244,
            "trialTime": 0
        },
        {
            "exptPart": "trial",
            "trialNumber": 92,
            "roleCurrent": "receiver",
            "marblesSampled": 100,
            "probRed": 0.5,
            "practiceLambda": 5,
            "trialLambda": 8.1,
            "instructedLambda": "dishonest_small",
            "drawnRed": 57,
            "reportedRed": 67,
            "inferredRed": 65,
            "playerTrialScore": -8,
            "oppTrialScore": 8,
            "playerTotalScore": -1410,
            "oppTotalScore": 836,
            "waitTime": 6053.781611966471,
            "responseTime": 1678906263235,
            "catchQuestion": "How many <b class=\"r\">red<\/b> marbles did your opponent report drawing? ",
            "catchKey": -1,
            "catchResponse": -1,
            "catchTime": 1678906242244,
            "trialTime": 0
        },
        {
            "exptPart": "trial",
            "trialNumber": 93,
            "roleCurrent": "receiver",
            "marblesSampled": 100,
            "probRed": 0.5,
            "practiceLambda": 5,
            "trialLambda": 8.1,
            "instructedLambda": "dishonest_small",
            "drawnRed": 42,
            "reportedRed": 60,
            "inferredRed": 40,
            "playerTrialScore": -2,
            "oppTrialScore": 0,
            "playerTotalScore": -1412,
            "oppTotalScore": 836,
            "waitTime": 6319.8518878139785,
            "responseTime": 1678906272402,
            "catchQuestion": "How many <b class=\"r\">red<\/b> marbles did your opponent report drawing? ",
            "catchKey": 60,
            "catchResponse": 60,
            "catchTime": 1678906272402,
            "trialTime": 0
        },
        {
            "exptPart": "trial",
            "trialNumber": 94,
            "roleCurrent": "receiver",
            "marblesSampled": 100,
            "probRed": 0.5,
            "practiceLambda": 5,
            "trialLambda": 8.1,
            "instructedLambda": "dishonest_small",
            "drawnRed": 33,
            "reportedRed": 44,
            "inferredRed": 17,
            "playerTrialScore": -16,
            "oppTrialScore": 0,
            "playerTotalScore": -1428,
            "oppTotalScore": 836,
            "waitTime": 6474.683062735131,
            "responseTime": 1678906285891,
            "catchQuestion": "How many <b class=\"r\">red<\/b> marbles did your opponent report drawing? ",
            "catchKey": -1,
            "catchResponse": -1,
            "catchTime": 1678906272402,
            "trialTime": 0
        },
        {
            "exptPart": "trial",
            "trialNumber": 95,
            "roleCurrent": "receiver",
            "marblesSampled": 100,
            "probRed": 0.5,
            "practiceLambda": 5,
            "trialLambda": 8.1,
            "instructedLambda": "dishonest_small",
            "drawnRed": 42,
            "reportedRed": 52,
            "inferredRed": 59,
            "playerTrialScore": -17,
            "oppTrialScore": 17,
            "playerTotalScore": -1445,
            "oppTotalScore": 853,
            "waitTime": 5345.879330863267,
            "responseTime": 1678906295911,
            "catchQuestion": "How many <b class=\"r\">red<\/b> marbles did your opponent report drawing? ",
            "catchKey": -1,
            "catchResponse": -1,
            "catchTime": 1678906272402,
            "trialTime": 0
        },
        {
            "exptPart": "trial",
            "trialNumber": 96,
            "roleCurrent": "receiver",
            "marblesSampled": 100,
            "probRed": 0.5,
            "practiceLambda": 5,
            "trialLambda": 8.1,
            "instructedLambda": "dishonest_small",
            "drawnRed": 44,
            "reportedRed": 53,
            "inferredRed": 82,
            "playerTrialScore": -38,
            "oppTrialScore": 38,
            "playerTotalScore": -1483,
            "oppTotalScore": 891,
            "waitTime": 5971.620377291605,
            "responseTime": 1678906305318,
            "catchQuestion": "How many <b class=\"r\">red<\/b> marbles did your opponent report drawing? ",
            "catchKey": -1,
            "catchResponse": -1,
            "catchTime": 1678906272402,
            "trialTime": 0
        },
        {
            "exptPart": "trial",
            "trialNumber": 97,
            "roleCurrent": "receiver",
            "marblesSampled": 100,
            "probRed": 0.5,
            "practiceLambda": 5,
            "trialLambda": 8.1,
            "instructedLambda": "dishonest_small",
            "drawnRed": 26,
            "reportedRed": 30,
            "inferredRed": 3,
            "playerTrialScore": -23,
            "oppTrialScore": 0,
            "playerTotalScore": -1506,
            "oppTotalScore": 891,
            "waitTime": 6204.112009375643,
            "responseTime": 1678906313747,
            "catchQuestion": "How many <b class=\"r\">red<\/b> marbles did your opponent report drawing? ",
            "catchKey": -1,
            "catchResponse": -1,
            "catchTime": 1678906272402,
            "trialTime": 0
        },
        {
            "exptPart": "trial",
            "trialNumber": 98,
            "roleCurrent": "receiver",
            "marblesSampled": 100,
            "probRed": 0.5,
            "practiceLambda": 5,
            "trialLambda": 8.1,
            "instructedLambda": "dishonest_small",
            "drawnRed": 75,
            "reportedRed": 84,
            "inferredRed": 48,
            "playerTrialScore": -27,
            "oppTrialScore": 0,
            "playerTotalScore": -1533,
            "oppTotalScore": 891,
            "waitTime": 5298.626080056683,
            "responseTime": 1678906321429,
            "catchQuestion": "How many <b class=\"r\">red<\/b> marbles did your opponent report drawing? ",
            "catchKey": -1,
            "catchResponse": -1,
            "catchTime": 1678906272402,
            "trialTime": 0
        },
        {
            "exptPart": "trial",
            "trialNumber": 99,
            "roleCurrent": "receiver",
            "marblesSampled": 100,
            "probRed": 0.5,
            "practiceLambda": 5,
            "trialLambda": 8.1,
            "instructedLambda": "dishonest_small",
            "drawnRed": 32,
            "reportedRed": 42,
            "inferredRed": 24,
            "playerTrialScore": -8,
            "oppTrialScore": 0,
            "playerTotalScore": -1541,
            "oppTotalScore": 891,
            "waitTime": 6264.014018013895,
            "responseTime": 1678906329800,
            "catchQuestion": "How many <b class=\"r\">red<\/b> marbles did your opponent report drawing? ",
            "catchKey": -1,
            "catchResponse": -1,
            "catchTime": 1678906272402,
            "trialTime": 0
        },
        {
            "exptPart": "trial",
            "trialNumber": 100,
            "roleCurrent": "receiver",
            "marblesSampled": 100,
            "probRed": 0.5,
            "practiceLambda": 5,
            "trialLambda": 8.1,
            "instructedLambda": "dishonest_small",
            "drawnRed": 63,
            "reportedRed": 68,
            "inferredRed": 86,
            "playerTrialScore": -23,
            "oppTrialScore": 23,
            "playerTotalScore": -1564,
            "oppTotalScore": 914,
            "waitTime": 7492.69230018492,
            "responseTime": 1678906339879,
            "catchQuestion": "How many <b class=\"r\">red<\/b> marbles did your opponent report drawing? ",
            "catchKey": -1,
            "catchResponse": -1,
            "catchTime": 1678906339879,
            "trialTime": 0
        }
    ]
}