{
    "client": {
        "type": "sona",
        "experiment_id": 2488,
        "credit_token": "79d15902e9034cb6b65a542be205401c",
        "survey_code": "42106",
        "sid": "sona-42106",
        "window": {
            "width": 1920,
            "height": 937
        },
        "screen": {
            "width": 1920,
            "height": 1080
        },
        "userAgent": "Mozilla\/5.0 (Windows NT 10.0; Win64; x64) AppleWebKit\/537.36 (KHTML, like Gecko) Chrome\/111.0.0.0 Safari\/537.36",
        "score": 0,
        "bonus": 0
    },
    "expt": {
        "saveURL": "submit.simple.php",
        "trials": 100,
        "practiceTrials": 2,
        "marblesSampled": 100,
        "probRed": 0.5,
        "practiceLambdaAI": 5,
        "lambdaAI": 0.3,
        "roles": [
            "sender",
            "receiver"
        ],
        "cost": "unif",
        "goal": "over",
        "oppDishonesty": "dishonest_big",
        "catchTrials": [
            92,
            60,
            98,
            71,
            1,
            79,
            51,
            35,
            97,
            91
        ],
        "scoreTotal": {
            "player": -1233,
            "opp": 158
        },
        "sona": {
            "experiment_id": 2488,
            "credit_token": "79d15902e9034cb6b65a542be205401c"
        },
        "pilot": false,
        "debug": false
    },
    "trials": [
        {
            "exptPart": "practice",
            "trialNumber": 1,
            "roleCurrent": "sender",
            "marblesSampled": 100,
            "probRed": 0.5,
            "practiceLambda": 5,
            "trialLambda": 0.3,
            "instructedLambda": "dishonest_big",
            "drawnRed": 40,
            "reportedRed": 44,
            "inferredRed": 41,
            "playerTrialScore": 1,
            "oppTrialScore": -1,
            "playerTotalScore": 1,
            "oppTotalScore": -1,
            "waitTime": 2505.5367733105722,
            "responseTime": 1678910449185,
            "catchQuestion": "How many <b class=\"r\">red<\/b> marbles did you actually draw (before any changes)? ",
            "catchKey": 40,
            "catchResponse": 40,
            "catchTime": 1678910449185,
            "trialTime": 0
        },
        {
            "exptPart": "practice",
            "trialNumber": 2,
            "roleCurrent": "receiver",
            "marblesSampled": 100,
            "probRed": 0.5,
            "practiceLambda": 5,
            "trialLambda": 0.3,
            "instructedLambda": "dishonest_big",
            "drawnRed": 64,
            "reportedRed": 70,
            "inferredRed": 67,
            "playerTrialScore": -3,
            "oppTrialScore": 3,
            "playerTotalScore": -2,
            "oppTotalScore": 2,
            "waitTime": 6637.361028998233,
            "responseTime": 1678910489778,
            "catchQuestion": "How many <b class=\"r\">red<\/b> marbles did your opponent report drawing? ",
            "catchKey": 70,
            "catchResponse": 70,
            "catchTime": 1678910489778,
            "trialTime": 0
        },
        {
            "exptPart": "trial",
            "trialNumber": 1,
            "roleCurrent": "receiver",
            "marblesSampled": 100,
            "probRed": 0.5,
            "practiceLambda": 5,
            "trialLambda": 0.3,
            "instructedLambda": "dishonest_big",
            "drawnRed": 23,
            "reportedRed": 23,
            "inferredRed": 17,
            "playerTrialScore": -6,
            "oppTrialScore": 0,
            "playerTotalScore": -6,
            "oppTotalScore": 0,
            "waitTime": 5536.109046005337,
            "responseTime": 1678910527983,
            "catchQuestion": "How many <b class=\"r\">red<\/b> marbles did your opponent report drawing? ",
            "catchKey": -1,
            "catchResponse": -1,
            "catchTime": 1678910489778,
            "trialTime": 0
        },
        {
            "exptPart": "trial",
            "trialNumber": 2,
            "roleCurrent": "receiver",
            "marblesSampled": 100,
            "probRed": 0.5,
            "practiceLambda": 5,
            "trialLambda": 0.3,
            "instructedLambda": "dishonest_big",
            "drawnRed": 39,
            "reportedRed": 40,
            "inferredRed": 34,
            "playerTrialScore": -5,
            "oppTrialScore": 0,
            "playerTotalScore": -11,
            "oppTotalScore": 0,
            "waitTime": 6046.294247885151,
            "responseTime": 1678910545426,
            "catchQuestion": "How many <b class=\"r\">red<\/b> marbles did your opponent report drawing? ",
            "catchKey": 40,
            "catchResponse": 23,
            "catchTime": 1678910545426,
            "trialTime": 0
        },
        {
            "exptPart": "trial",
            "trialNumber": 3,
            "roleCurrent": "receiver",
            "marblesSampled": 100,
            "probRed": 0.5,
            "practiceLambda": 5,
            "trialLambda": 0.3,
            "instructedLambda": "dishonest_big",
            "drawnRed": 70,
            "reportedRed": 70,
            "inferredRed": 60,
            "playerTrialScore": -10,
            "oppTrialScore": 0,
            "playerTotalScore": -21,
            "oppTotalScore": 0,
            "waitTime": 6679.151766278712,
            "responseTime": 1678910574623,
            "catchQuestion": "How many <b class=\"r\">red<\/b> marbles did your opponent report drawing? ",
            "catchKey": -1,
            "catchResponse": -1,
            "catchTime": 1678910545426,
            "trialTime": 0
        },
        {
            "exptPart": "trial",
            "trialNumber": 4,
            "roleCurrent": "receiver",
            "marblesSampled": 100,
            "probRed": 0.5,
            "practiceLambda": 5,
            "trialLambda": 0.3,
            "instructedLambda": "dishonest_big",
            "drawnRed": 38,
            "reportedRed": 38,
            "inferredRed": 27,
            "playerTrialScore": -11,
            "oppTrialScore": 0,
            "playerTotalScore": -32,
            "oppTotalScore": 0,
            "waitTime": 5328.408424971098,
            "responseTime": 1678910587268,
            "catchQuestion": "How many <b class=\"r\">red<\/b> marbles did your opponent report drawing? ",
            "catchKey": -1,
            "catchResponse": -1,
            "catchTime": 1678910545426,
            "trialTime": 0
        },
        {
            "exptPart": "trial",
            "trialNumber": 5,
            "roleCurrent": "receiver",
            "marblesSampled": 100,
            "probRed": 0.5,
            "practiceLambda": 5,
            "trialLambda": 0.3,
            "instructedLambda": "dishonest_big",
            "drawnRed": 90,
            "reportedRed": 90,
            "inferredRed": 82,
            "playerTrialScore": -8,
            "oppTrialScore": 0,
            "playerTotalScore": -40,
            "oppTotalScore": 0,
            "waitTime": 7097.210174732789,
            "responseTime": 1678910613123,
            "catchQuestion": "How many <b class=\"r\">red<\/b> marbles did your opponent report drawing? ",
            "catchKey": -1,
            "catchResponse": -1,
            "catchTime": 1678910545426,
            "trialTime": 0
        },
        {
            "exptPart": "trial",
            "trialNumber": 6,
            "roleCurrent": "receiver",
            "marblesSampled": 100,
            "probRed": 0.5,
            "practiceLambda": 5,
            "trialLambda": 0.3,
            "instructedLambda": "dishonest_big",
            "drawnRed": 48,
            "reportedRed": 48,
            "inferredRed": 42,
            "playerTrialScore": -6,
            "oppTrialScore": 0,
            "playerTotalScore": -46,
            "oppTotalScore": 0,
            "waitTime": 7387.78259569351,
            "responseTime": 1678910624029,
            "catchQuestion": "How many <b class=\"r\">red<\/b> marbles did your opponent report drawing? ",
            "catchKey": -1,
            "catchResponse": -1,
            "catchTime": 1678910545426,
            "trialTime": 0
        },
        {
            "exptPart": "trial",
            "trialNumber": 7,
            "roleCurrent": "receiver",
            "marblesSampled": 100,
            "probRed": 0.5,
            "practiceLambda": 5,
            "trialLambda": 0.3,
            "instructedLambda": "dishonest_big",
            "drawnRed": 68,
            "reportedRed": 68,
            "inferredRed": 55,
            "playerTrialScore": -13,
            "oppTrialScore": 0,
            "playerTotalScore": -59,
            "oppTotalScore": 0,
            "waitTime": 7249.229352572399,
            "responseTime": 1678910636076,
            "catchQuestion": "How many <b class=\"r\">red<\/b> marbles did your opponent report drawing? ",
            "catchKey": -1,
            "catchResponse": -1,
            "catchTime": 1678910545426,
            "trialTime": 0
        },
        {
            "exptPart": "trial",
            "trialNumber": 8,
            "roleCurrent": "receiver",
            "marblesSampled": 100,
            "probRed": 0.5,
            "practiceLambda": 5,
            "trialLambda": 0.3,
            "instructedLambda": "dishonest_big",
            "drawnRed": 10,
            "reportedRed": 10,
            "inferredRed": 4,
            "playerTrialScore": -6,
            "oppTrialScore": 0,
            "playerTotalScore": -65,
            "oppTotalScore": 0,
            "waitTime": 5215.159629929481,
            "responseTime": 1678910644598,
            "catchQuestion": "How many <b class=\"r\">red<\/b> marbles did your opponent report drawing? ",
            "catchKey": -1,
            "catchResponse": -1,
            "catchTime": 1678910545426,
            "trialTime": 0
        },
        {
            "exptPart": "trial",
            "trialNumber": 9,
            "roleCurrent": "receiver",
            "marblesSampled": 100,
            "probRed": 0.5,
            "practiceLambda": 5,
            "trialLambda": 0.3,
            "instructedLambda": "dishonest_big",
            "drawnRed": 75,
            "reportedRed": 75,
            "inferredRed": 66,
            "playerTrialScore": -9,
            "oppTrialScore": 0,
            "playerTotalScore": -74,
            "oppTotalScore": 0,
            "waitTime": 6407.777909392809,
            "responseTime": 1678910659280,
            "catchQuestion": "How many <b class=\"r\">red<\/b> marbles did your opponent report drawing? ",
            "catchKey": -1,
            "catchResponse": -1,
            "catchTime": 1678910545426,
            "trialTime": 0
        },
        {
            "exptPart": "trial",
            "trialNumber": 10,
            "roleCurrent": "receiver",
            "marblesSampled": 100,
            "probRed": 0.5,
            "practiceLambda": 5,
            "trialLambda": 0.3,
            "instructedLambda": "dishonest_big",
            "drawnRed": 32,
            "reportedRed": 32,
            "inferredRed": 22,
            "playerTrialScore": -10,
            "oppTrialScore": 0,
            "playerTotalScore": -84,
            "oppTotalScore": 0,
            "waitTime": 5896.031053152921,
            "responseTime": 1678910668043,
            "catchQuestion": "How many <b class=\"r\">red<\/b> marbles did your opponent report drawing? ",
            "catchKey": -1,
            "catchResponse": -1,
            "catchTime": 1678910668043,
            "trialTime": 0
        },
        {
            "exptPart": "trial",
            "trialNumber": 11,
            "roleCurrent": "receiver",
            "marblesSampled": 100,
            "probRed": 0.5,
            "practiceLambda": 5,
            "trialLambda": 0.3,
            "instructedLambda": "dishonest_big",
            "drawnRed": 7,
            "reportedRed": 7,
            "inferredRed": 1,
            "playerTrialScore": -6,
            "oppTrialScore": 0,
            "playerTotalScore": -90,
            "oppTotalScore": 0,
            "waitTime": 5312.290486282815,
            "responseTime": 1678910681586,
            "catchQuestion": "How many <b class=\"r\">red<\/b> marbles did your opponent report drawing? ",
            "catchKey": -1,
            "catchResponse": -1,
            "catchTime": 1678910668043,
            "trialTime": 0
        },
        {
            "exptPart": "trial",
            "trialNumber": 12,
            "roleCurrent": "receiver",
            "marblesSampled": 100,
            "probRed": 0.5,
            "practiceLambda": 5,
            "trialLambda": 0.3,
            "instructedLambda": "dishonest_big",
            "drawnRed": 47,
            "reportedRed": 48,
            "inferredRed": 23,
            "playerTrialScore": -24,
            "oppTrialScore": 0,
            "playerTotalScore": -114,
            "oppTotalScore": 0,
            "waitTime": 5520.753413689388,
            "responseTime": 1678910689882,
            "catchQuestion": "How many <b class=\"r\">red<\/b> marbles did your opponent report drawing? ",
            "catchKey": -1,
            "catchResponse": -1,
            "catchTime": 1678910668043,
            "trialTime": 0
        },
        {
            "exptPart": "trial",
            "trialNumber": 13,
            "roleCurrent": "receiver",
            "marblesSampled": 100,
            "probRed": 0.5,
            "practiceLambda": 5,
            "trialLambda": 0.3,
            "instructedLambda": "dishonest_big",
            "drawnRed": 22,
            "reportedRed": 22,
            "inferredRed": 11,
            "playerTrialScore": -11,
            "oppTrialScore": 0,
            "playerTotalScore": -125,
            "oppTotalScore": 0,
            "waitTime": 5633.671141426889,
            "responseTime": 1678910697492,
            "catchQuestion": "How many <b class=\"r\">red<\/b> marbles did your opponent report drawing? ",
            "catchKey": -1,
            "catchResponse": -1,
            "catchTime": 1678910668043,
            "trialTime": 0
        },
        {
            "exptPart": "trial",
            "trialNumber": 14,
            "roleCurrent": "receiver",
            "marblesSampled": 100,
            "probRed": 0.5,
            "practiceLambda": 5,
            "trialLambda": 0.3,
            "instructedLambda": "dishonest_big",
            "drawnRed": 63,
            "reportedRed": 63,
            "inferredRed": 56,
            "playerTrialScore": -7,
            "oppTrialScore": 0,
            "playerTotalScore": -132,
            "oppTotalScore": 0,
            "waitTime": 6135.0684804797,
            "responseTime": 1678910707720,
            "catchQuestion": "How many <b class=\"r\">red<\/b> marbles did your opponent report drawing? ",
            "catchKey": -1,
            "catchResponse": -1,
            "catchTime": 1678910668043,
            "trialTime": 0
        },
        {
            "exptPart": "trial",
            "trialNumber": 15,
            "roleCurrent": "receiver",
            "marblesSampled": 100,
            "probRed": 0.5,
            "practiceLambda": 5,
            "trialLambda": 0.3,
            "instructedLambda": "dishonest_big",
            "drawnRed": 58,
            "reportedRed": 58,
            "inferredRed": 45,
            "playerTrialScore": -13,
            "oppTrialScore": 0,
            "playerTotalScore": -145,
            "oppTotalScore": 0,
            "waitTime": 6534.031594444721,
            "responseTime": 1678910716740,
            "catchQuestion": "How many <b class=\"r\">red<\/b> marbles did your opponent report drawing? ",
            "catchKey": -1,
            "catchResponse": -1,
            "catchTime": 1678910668043,
            "trialTime": 0
        },
        {
            "exptPart": "trial",
            "trialNumber": 16,
            "roleCurrent": "receiver",
            "marblesSampled": 100,
            "probRed": 0.5,
            "practiceLambda": 5,
            "trialLambda": 0.3,
            "instructedLambda": "dishonest_big",
            "drawnRed": 16,
            "reportedRed": 16,
            "inferredRed": 12,
            "playerTrialScore": -4,
            "oppTrialScore": 0,
            "playerTotalScore": -149,
            "oppTotalScore": 0,
            "waitTime": 6828.077164124277,
            "responseTime": 1678910725887,
            "catchQuestion": "How many <b class=\"r\">red<\/b> marbles did your opponent report drawing? ",
            "catchKey": -1,
            "catchResponse": -1,
            "catchTime": 1678910668043,
            "trialTime": 0
        },
        {
            "exptPart": "trial",
            "trialNumber": 17,
            "roleCurrent": "receiver",
            "marblesSampled": 100,
            "probRed": 0.5,
            "practiceLambda": 5,
            "trialLambda": 0.3,
            "instructedLambda": "dishonest_big",
            "drawnRed": 13,
            "reportedRed": 13,
            "inferredRed": 5,
            "playerTrialScore": -8,
            "oppTrialScore": 0,
            "playerTotalScore": -157,
            "oppTotalScore": 0,
            "waitTime": 6018.903717267749,
            "responseTime": 1678910736435,
            "catchQuestion": "How many <b class=\"r\">red<\/b> marbles did your opponent report drawing? ",
            "catchKey": -1,
            "catchResponse": -1,
            "catchTime": 1678910668043,
            "trialTime": 0
        },
        {
            "exptPart": "trial",
            "trialNumber": 18,
            "roleCurrent": "receiver",
            "marblesSampled": 100,
            "probRed": 0.5,
            "practiceLambda": 5,
            "trialLambda": 0.3,
            "instructedLambda": "dishonest_big",
            "drawnRed": 24,
            "reportedRed": 24,
            "inferredRed": 12,
            "playerTrialScore": -12,
            "oppTrialScore": 0,
            "playerTotalScore": -169,
            "oppTotalScore": 0,
            "waitTime": 5135.964094071113,
            "responseTime": 1678910744178,
            "catchQuestion": "How many <b class=\"r\">red<\/b> marbles did your opponent report drawing? ",
            "catchKey": -1,
            "catchResponse": -1,
            "catchTime": 1678910668043,
            "trialTime": 0
        },
        {
            "exptPart": "trial",
            "trialNumber": 19,
            "roleCurrent": "receiver",
            "marblesSampled": 100,
            "probRed": 0.5,
            "practiceLambda": 5,
            "trialLambda": 0.3,
            "instructedLambda": "dishonest_big",
            "drawnRed": 48,
            "reportedRed": 48,
            "inferredRed": 34,
            "playerTrialScore": -14,
            "oppTrialScore": 0,
            "playerTotalScore": -183,
            "oppTotalScore": 0,
            "waitTime": 5452.185069084806,
            "responseTime": 1678910752170,
            "catchQuestion": "How many <b class=\"r\">red<\/b> marbles did your opponent report drawing? ",
            "catchKey": -1,
            "catchResponse": -1,
            "catchTime": 1678910668043,
            "trialTime": 0
        },
        {
            "exptPart": "trial",
            "trialNumber": 20,
            "roleCurrent": "receiver",
            "marblesSampled": 100,
            "probRed": 0.5,
            "practiceLambda": 5,
            "trialLambda": 0.3,
            "instructedLambda": "dishonest_big",
            "drawnRed": 38,
            "reportedRed": 38,
            "inferredRed": 23,
            "playerTrialScore": -15,
            "oppTrialScore": 0,
            "playerTotalScore": -198,
            "oppTotalScore": 0,
            "waitTime": 5367.610223738833,
            "responseTime": 1678910759376,
            "catchQuestion": "How many <b class=\"r\">red<\/b> marbles did your opponent report drawing? ",
            "catchKey": -1,
            "catchResponse": -1,
            "catchTime": 1678910759376,
            "trialTime": 0
        },
        {
            "exptPart": "trial",
            "trialNumber": 21,
            "roleCurrent": "receiver",
            "marblesSampled": 100,
            "probRed": 0.5,
            "practiceLambda": 5,
            "trialLambda": 0.3,
            "instructedLambda": "dishonest_big",
            "drawnRed": 35,
            "reportedRed": 35,
            "inferredRed": 33,
            "playerTrialScore": -2,
            "oppTrialScore": 0,
            "playerTotalScore": -200,
            "oppTotalScore": 0,
            "waitTime": 6751.9036124371505,
            "responseTime": 1678910772530,
            "catchQuestion": "How many <b class=\"r\">red<\/b> marbles did your opponent report drawing? ",
            "catchKey": -1,
            "catchResponse": -1,
            "catchTime": 1678910759376,
            "trialTime": 0
        },
        {
            "exptPart": "trial",
            "trialNumber": 22,
            "roleCurrent": "receiver",
            "marblesSampled": 100,
            "probRed": 0.5,
            "practiceLambda": 5,
            "trialLambda": 0.3,
            "instructedLambda": "dishonest_big",
            "drawnRed": 84,
            "reportedRed": 85,
            "inferredRed": 88,
            "playerTrialScore": -4,
            "oppTrialScore": 4,
            "playerTotalScore": -204,
            "oppTotalScore": 4,
            "waitTime": 6129.894681536773,
            "responseTime": 1678910781619,
            "catchQuestion": "How many <b class=\"r\">red<\/b> marbles did your opponent report drawing? ",
            "catchKey": -1,
            "catchResponse": -1,
            "catchTime": 1678910759376,
            "trialTime": 0
        },
        {
            "exptPart": "trial",
            "trialNumber": 23,
            "roleCurrent": "receiver",
            "marblesSampled": 100,
            "probRed": 0.5,
            "practiceLambda": 5,
            "trialLambda": 0.3,
            "instructedLambda": "dishonest_big",
            "drawnRed": 91,
            "reportedRed": 91,
            "inferredRed": 100,
            "playerTrialScore": -9,
            "oppTrialScore": 9,
            "playerTotalScore": -213,
            "oppTotalScore": 13,
            "waitTime": 6017.869611434059,
            "responseTime": 1678910790687,
            "catchQuestion": "How many <b class=\"r\">red<\/b> marbles did your opponent report drawing? ",
            "catchKey": -1,
            "catchResponse": -1,
            "catchTime": 1678910759376,
            "trialTime": 0
        },
        {
            "exptPart": "trial",
            "trialNumber": 24,
            "roleCurrent": "receiver",
            "marblesSampled": 100,
            "probRed": 0.5,
            "practiceLambda": 5,
            "trialLambda": 0.3,
            "instructedLambda": "dishonest_big",
            "drawnRed": 77,
            "reportedRed": 77,
            "inferredRed": 77,
            "playerTrialScore": 0,
            "oppTrialScore": 0,
            "playerTotalScore": -213,
            "oppTotalScore": 13,
            "waitTime": 5481.693394061373,
            "responseTime": 1678910800618,
            "catchQuestion": "How many <b class=\"r\">red<\/b> marbles did your opponent report drawing? ",
            "catchKey": -1,
            "catchResponse": -1,
            "catchTime": 1678910759376,
            "trialTime": 0
        },
        {
            "exptPart": "trial",
            "trialNumber": 25,
            "roleCurrent": "receiver",
            "marblesSampled": 100,
            "probRed": 0.5,
            "practiceLambda": 5,
            "trialLambda": 0.3,
            "instructedLambda": "dishonest_big",
            "drawnRed": 30,
            "reportedRed": 30,
            "inferredRed": 23,
            "playerTrialScore": -7,
            "oppTrialScore": 0,
            "playerTotalScore": -220,
            "oppTotalScore": 13,
            "waitTime": 6077.081357998024,
            "responseTime": 1678910808460,
            "catchQuestion": "How many <b class=\"r\">red<\/b> marbles did your opponent report drawing? ",
            "catchKey": -1,
            "catchResponse": -1,
            "catchTime": 1678910759376,
            "trialTime": 0
        },
        {
            "exptPart": "trial",
            "trialNumber": 26,
            "roleCurrent": "receiver",
            "marblesSampled": 100,
            "probRed": 0.5,
            "practiceLambda": 5,
            "trialLambda": 0.3,
            "instructedLambda": "dishonest_big",
            "drawnRed": 62,
            "reportedRed": 63,
            "inferredRed": 3,
            "playerTrialScore": -59,
            "oppTrialScore": 0,
            "playerTotalScore": -279,
            "oppTotalScore": 13,
            "waitTime": 6398.0513994260655,
            "responseTime": 1678910817055,
            "catchQuestion": "How many <b class=\"r\">red<\/b> marbles did your opponent report drawing? ",
            "catchKey": -1,
            "catchResponse": -1,
            "catchTime": 1678910759376,
            "trialTime": 0
        },
        {
            "exptPart": "trial",
            "trialNumber": 27,
            "roleCurrent": "receiver",
            "marblesSampled": 100,
            "probRed": 0.5,
            "practiceLambda": 5,
            "trialLambda": 0.3,
            "instructedLambda": "dishonest_big",
            "drawnRed": 56,
            "reportedRed": 56,
            "inferredRed": 44,
            "playerTrialScore": -12,
            "oppTrialScore": 0,
            "playerTotalScore": -291,
            "oppTotalScore": 13,
            "waitTime": 6094.047821798256,
            "responseTime": 1678910829350,
            "catchQuestion": "How many <b class=\"r\">red<\/b> marbles did your opponent report drawing? ",
            "catchKey": -1,
            "catchResponse": -1,
            "catchTime": 1678910759376,
            "trialTime": 0
        },
        {
            "exptPart": "trial",
            "trialNumber": 28,
            "roleCurrent": "receiver",
            "marblesSampled": 100,
            "probRed": 0.5,
            "practiceLambda": 5,
            "trialLambda": 0.3,
            "instructedLambda": "dishonest_big",
            "drawnRed": 36,
            "reportedRed": 36,
            "inferredRed": 23,
            "playerTrialScore": -13,
            "oppTrialScore": 0,
            "playerTotalScore": -304,
            "oppTotalScore": 13,
            "waitTime": 7347.453316359796,
            "responseTime": 1678910839281,
            "catchQuestion": "How many <b class=\"r\">red<\/b> marbles did your opponent report drawing? ",
            "catchKey": -1,
            "catchResponse": -1,
            "catchTime": 1678910759376,
            "trialTime": 0
        },
        {
            "exptPart": "trial",
            "trialNumber": 29,
            "roleCurrent": "receiver",
            "marblesSampled": 100,
            "probRed": 0.5,
            "practiceLambda": 5,
            "trialLambda": 0.3,
            "instructedLambda": "dishonest_big",
            "drawnRed": 23,
            "reportedRed": 24,
            "inferredRed": 1,
            "playerTrialScore": -22,
            "oppTrialScore": 0,
            "playerTotalScore": -326,
            "oppTotalScore": 13,
            "waitTime": 5652.2772655573735,
            "responseTime": 1678910847317,
            "catchQuestion": "How many <b class=\"r\">red<\/b> marbles did your opponent report drawing? ",
            "catchKey": -1,
            "catchResponse": -1,
            "catchTime": 1678910759376,
            "trialTime": 0
        },
        {
            "exptPart": "trial",
            "trialNumber": 30,
            "roleCurrent": "receiver",
            "marblesSampled": 100,
            "probRed": 0.5,
            "practiceLambda": 5,
            "trialLambda": 0.3,
            "instructedLambda": "dishonest_big",
            "drawnRed": 88,
            "reportedRed": 89,
            "inferredRed": 65,
            "playerTrialScore": -23,
            "oppTrialScore": 0,
            "playerTotalScore": -349,
            "oppTotalScore": 13,
            "waitTime": 6862.604459014827,
            "responseTime": 1678910859367,
            "catchQuestion": "How many <b class=\"r\">red<\/b> marbles did your opponent report drawing? ",
            "catchKey": -1,
            "catchResponse": -1,
            "catchTime": 1678910859367,
            "trialTime": 0
        },
        {
            "exptPart": "trial",
            "trialNumber": 31,
            "roleCurrent": "receiver",
            "marblesSampled": 100,
            "probRed": 0.5,
            "practiceLambda": 5,
            "trialLambda": 0.3,
            "instructedLambda": "dishonest_big",
            "drawnRed": 21,
            "reportedRed": 23,
            "inferredRed": 11,
            "playerTrialScore": -10,
            "oppTrialScore": 0,
            "playerTotalScore": -359,
            "oppTotalScore": 13,
            "waitTime": 6155.986847361779,
            "responseTime": 1678910873913,
            "catchQuestion": "How many <b class=\"r\">red<\/b> marbles did your opponent report drawing? ",
            "catchKey": -1,
            "catchResponse": -1,
            "catchTime": 1678910859367,
            "trialTime": 0
        },
        {
            "exptPart": "trial",
            "trialNumber": 32,
            "roleCurrent": "receiver",
            "marblesSampled": 100,
            "probRed": 0.5,
            "practiceLambda": 5,
            "trialLambda": 0.3,
            "instructedLambda": "dishonest_big",
            "drawnRed": 68,
            "reportedRed": 70,
            "inferredRed": 1,
            "playerTrialScore": -67,
            "oppTrialScore": 0,
            "playerTotalScore": -426,
            "oppTotalScore": 13,
            "waitTime": 5137.89133384824,
            "responseTime": 1678910883558,
            "catchQuestion": "How many <b class=\"r\">red<\/b> marbles did your opponent report drawing? ",
            "catchKey": -1,
            "catchResponse": -1,
            "catchTime": 1678910859367,
            "trialTime": 0
        },
        {
            "exptPart": "trial",
            "trialNumber": 33,
            "roleCurrent": "receiver",
            "marblesSampled": 100,
            "probRed": 0.5,
            "practiceLambda": 5,
            "trialLambda": 0.3,
            "instructedLambda": "dishonest_big",
            "drawnRed": 59,
            "reportedRed": 59,
            "inferredRed": 41,
            "playerTrialScore": -18,
            "oppTrialScore": 0,
            "playerTotalScore": -444,
            "oppTotalScore": 13,
            "waitTime": 5431.7702721278765,
            "responseTime": 1678910892668,
            "catchQuestion": "How many <b class=\"r\">red<\/b> marbles did your opponent report drawing? ",
            "catchKey": -1,
            "catchResponse": -1,
            "catchTime": 1678910859367,
            "trialTime": 0
        },
        {
            "exptPart": "trial",
            "trialNumber": 34,
            "roleCurrent": "receiver",
            "marblesSampled": 100,
            "probRed": 0.5,
            "practiceLambda": 5,
            "trialLambda": 0.3,
            "instructedLambda": "dishonest_big",
            "drawnRed": 36,
            "reportedRed": 36,
            "inferredRed": 27,
            "playerTrialScore": -9,
            "oppTrialScore": 0,
            "playerTotalScore": -453,
            "oppTotalScore": 13,
            "waitTime": 5563.705294880982,
            "responseTime": 1678910902892,
            "catchQuestion": "How many <b class=\"r\">red<\/b> marbles did your opponent report drawing? ",
            "catchKey": -1,
            "catchResponse": -1,
            "catchTime": 1678910859367,
            "trialTime": 0
        },
        {
            "exptPart": "trial",
            "trialNumber": 35,
            "roleCurrent": "receiver",
            "marblesSampled": 100,
            "probRed": 0.5,
            "practiceLambda": 5,
            "trialLambda": 0.3,
            "instructedLambda": "dishonest_big",
            "drawnRed": 71,
            "reportedRed": 71,
            "inferredRed": 61,
            "playerTrialScore": -10,
            "oppTrialScore": 0,
            "playerTotalScore": -463,
            "oppTotalScore": 13,
            "waitTime": 7187.014031131935,
            "responseTime": 1678910915519,
            "catchQuestion": "How many <b class=\"r\">red<\/b> marbles did your opponent report drawing? ",
            "catchKey": -1,
            "catchResponse": -1,
            "catchTime": 1678910859367,
            "trialTime": 0
        },
        {
            "exptPart": "trial",
            "trialNumber": 36,
            "roleCurrent": "receiver",
            "marblesSampled": 100,
            "probRed": 0.5,
            "practiceLambda": 5,
            "trialLambda": 0.3,
            "instructedLambda": "dishonest_big",
            "drawnRed": 8,
            "reportedRed": 8,
            "inferredRed": 2,
            "playerTrialScore": -6,
            "oppTrialScore": 0,
            "playerTotalScore": -469,
            "oppTotalScore": 13,
            "waitTime": 6015.976788564054,
            "responseTime": 1678910924048,
            "catchQuestion": "How many <b class=\"r\">red<\/b> marbles did your opponent report drawing? ",
            "catchKey": 8,
            "catchResponse": 10,
            "catchTime": 1678910924048,
            "trialTime": 0
        },
        {
            "exptPart": "trial",
            "trialNumber": 37,
            "roleCurrent": "receiver",
            "marblesSampled": 100,
            "probRed": 0.5,
            "practiceLambda": 5,
            "trialLambda": 0.3,
            "instructedLambda": "dishonest_big",
            "drawnRed": 25,
            "reportedRed": 25,
            "inferredRed": 21,
            "playerTrialScore": -4,
            "oppTrialScore": 0,
            "playerTotalScore": -473,
            "oppTotalScore": 13,
            "waitTime": 6814.73290472565,
            "responseTime": 1678910948827,
            "catchQuestion": "How many <b class=\"r\">red<\/b> marbles did your opponent report drawing? ",
            "catchKey": -1,
            "catchResponse": -1,
            "catchTime": 1678910924048,
            "trialTime": 0
        },
        {
            "exptPart": "trial",
            "trialNumber": 38,
            "roleCurrent": "receiver",
            "marblesSampled": 100,
            "probRed": 0.5,
            "practiceLambda": 5,
            "trialLambda": 0.3,
            "instructedLambda": "dishonest_big",
            "drawnRed": 16,
            "reportedRed": 16,
            "inferredRed": 6,
            "playerTrialScore": -10,
            "oppTrialScore": 0,
            "playerTotalScore": -483,
            "oppTotalScore": 13,
            "waitTime": 5660.415300308678,
            "responseTime": 1678910958232,
            "catchQuestion": "How many <b class=\"r\">red<\/b> marbles did your opponent report drawing? ",
            "catchKey": -1,
            "catchResponse": -1,
            "catchTime": 1678910924048,
            "trialTime": 0
        },
        {
            "exptPart": "trial",
            "trialNumber": 39,
            "roleCurrent": "receiver",
            "marblesSampled": 100,
            "probRed": 0.5,
            "practiceLambda": 5,
            "trialLambda": 0.3,
            "instructedLambda": "dishonest_big",
            "drawnRed": 83,
            "reportedRed": 83,
            "inferredRed": 71,
            "playerTrialScore": -12,
            "oppTrialScore": 0,
            "playerTotalScore": -495,
            "oppTotalScore": 13,
            "waitTime": 6763.070412555142,
            "responseTime": 1678910968924,
            "catchQuestion": "How many <b class=\"r\">red<\/b> marbles did your opponent report drawing? ",
            "catchKey": -1,
            "catchResponse": -1,
            "catchTime": 1678910924048,
            "trialTime": 0
        },
        {
            "exptPart": "trial",
            "trialNumber": 40,
            "roleCurrent": "receiver",
            "marblesSampled": 100,
            "probRed": 0.5,
            "practiceLambda": 5,
            "trialLambda": 0.3,
            "instructedLambda": "dishonest_big",
            "drawnRed": 50,
            "reportedRed": 50,
            "inferredRed": 41,
            "playerTrialScore": -9,
            "oppTrialScore": 0,
            "playerTotalScore": -504,
            "oppTotalScore": 13,
            "waitTime": 5311.221811230927,
            "responseTime": 1678910980545,
            "catchQuestion": "How many <b class=\"r\">red<\/b> marbles did your opponent report drawing? ",
            "catchKey": -1,
            "catchResponse": -1,
            "catchTime": 1678910980545,
            "trialTime": 0
        },
        {
            "exptPart": "trial",
            "trialNumber": 41,
            "roleCurrent": "receiver",
            "marblesSampled": 100,
            "probRed": 0.5,
            "practiceLambda": 5,
            "trialLambda": 0.3,
            "instructedLambda": "dishonest_big",
            "drawnRed": 23,
            "reportedRed": 23,
            "inferredRed": 11,
            "playerTrialScore": -12,
            "oppTrialScore": 0,
            "playerTotalScore": -516,
            "oppTotalScore": 13,
            "waitTime": 5351.192320520164,
            "responseTime": 1678910994741,
            "catchQuestion": "How many <b class=\"r\">red<\/b> marbles did your opponent report drawing? ",
            "catchKey": -1,
            "catchResponse": -1,
            "catchTime": 1678910980545,
            "trialTime": 0
        },
        {
            "exptPart": "trial",
            "trialNumber": 42,
            "roleCurrent": "receiver",
            "marblesSampled": 100,
            "probRed": 0.5,
            "practiceLambda": 5,
            "trialLambda": 0.3,
            "instructedLambda": "dishonest_big",
            "drawnRed": 78,
            "reportedRed": 78,
            "inferredRed": 56,
            "playerTrialScore": -22,
            "oppTrialScore": 0,
            "playerTotalScore": -538,
            "oppTotalScore": 13,
            "waitTime": 6535.232566869738,
            "responseTime": 1678911004569,
            "catchQuestion": "How many <b class=\"r\">red<\/b> marbles did your opponent report drawing? ",
            "catchKey": -1,
            "catchResponse": -1,
            "catchTime": 1678910980545,
            "trialTime": 0
        },
        {
            "exptPart": "trial",
            "trialNumber": 43,
            "roleCurrent": "receiver",
            "marblesSampled": 100,
            "probRed": 0.5,
            "practiceLambda": 5,
            "trialLambda": 0.3,
            "instructedLambda": "dishonest_big",
            "drawnRed": 50,
            "reportedRed": 50,
            "inferredRed": 49,
            "playerTrialScore": -1,
            "oppTrialScore": 0,
            "playerTotalScore": -539,
            "oppTotalScore": 13,
            "waitTime": 5412.432178990573,
            "responseTime": 1678911030373,
            "catchQuestion": "How many <b class=\"r\">red<\/b> marbles did your opponent report drawing? ",
            "catchKey": -1,
            "catchResponse": -1,
            "catchTime": 1678910980545,
            "trialTime": 0
        },
        {
            "exptPart": "trial",
            "trialNumber": 44,
            "roleCurrent": "receiver",
            "marblesSampled": 100,
            "probRed": 0.5,
            "practiceLambda": 5,
            "trialLambda": 0.3,
            "instructedLambda": "dishonest_big",
            "drawnRed": 38,
            "reportedRed": 38,
            "inferredRed": 18,
            "playerTrialScore": -20,
            "oppTrialScore": 0,
            "playerTotalScore": -559,
            "oppTotalScore": 13,
            "waitTime": 6112.916742171554,
            "responseTime": 1678911039252,
            "catchQuestion": "How many <b class=\"r\">red<\/b> marbles did your opponent report drawing? ",
            "catchKey": -1,
            "catchResponse": -1,
            "catchTime": 1678910980545,
            "trialTime": 0
        },
        {
            "exptPart": "trial",
            "trialNumber": 45,
            "roleCurrent": "receiver",
            "marblesSampled": 100,
            "probRed": 0.5,
            "practiceLambda": 5,
            "trialLambda": 0.3,
            "instructedLambda": "dishonest_big",
            "drawnRed": 61,
            "reportedRed": 63,
            "inferredRed": 45,
            "playerTrialScore": -16,
            "oppTrialScore": 0,
            "playerTotalScore": -575,
            "oppTotalScore": 13,
            "waitTime": 5828.954068839622,
            "responseTime": 1678911050226,
            "catchQuestion": "How many <b class=\"r\">red<\/b> marbles did your opponent report drawing? ",
            "catchKey": -1,
            "catchResponse": -1,
            "catchTime": 1678910980545,
            "trialTime": 0
        },
        {
            "exptPart": "trial",
            "trialNumber": 46,
            "roleCurrent": "receiver",
            "marblesSampled": 100,
            "probRed": 0.5,
            "practiceLambda": 5,
            "trialLambda": 0.3,
            "instructedLambda": "dishonest_big",
            "drawnRed": 64,
            "reportedRed": 64,
            "inferredRed": 45,
            "playerTrialScore": -19,
            "oppTrialScore": 0,
            "playerTotalScore": -594,
            "oppTotalScore": 13,
            "waitTime": 5302.073758739165,
            "responseTime": 1678911059609,
            "catchQuestion": "How many <b class=\"r\">red<\/b> marbles did your opponent report drawing? ",
            "catchKey": -1,
            "catchResponse": -1,
            "catchTime": 1678910980545,
            "trialTime": 0
        },
        {
            "exptPart": "trial",
            "trialNumber": 47,
            "roleCurrent": "receiver",
            "marblesSampled": 100,
            "probRed": 0.5,
            "practiceLambda": 5,
            "trialLambda": 0.3,
            "instructedLambda": "dishonest_big",
            "drawnRed": 45,
            "reportedRed": 46,
            "inferredRed": 27,
            "playerTrialScore": -18,
            "oppTrialScore": 0,
            "playerTotalScore": -612,
            "oppTotalScore": 13,
            "waitTime": 5819.275958109327,
            "responseTime": 1678911068609,
            "catchQuestion": "How many <b class=\"r\">red<\/b> marbles did your opponent report drawing? ",
            "catchKey": -1,
            "catchResponse": -1,
            "catchTime": 1678910980545,
            "trialTime": 0
        },
        {
            "exptPart": "trial",
            "trialNumber": 48,
            "roleCurrent": "receiver",
            "marblesSampled": 100,
            "probRed": 0.5,
            "practiceLambda": 5,
            "trialLambda": 0.3,
            "instructedLambda": "dishonest_big",
            "drawnRed": 63,
            "reportedRed": 63,
            "inferredRed": 28,
            "playerTrialScore": -35,
            "oppTrialScore": 0,
            "playerTotalScore": -647,
            "oppTotalScore": 13,
            "waitTime": 7439.952192720941,
            "responseTime": 1678911079766,
            "catchQuestion": "How many <b class=\"r\">red<\/b> marbles did your opponent report drawing? ",
            "catchKey": -1,
            "catchResponse": -1,
            "catchTime": 1678910980545,
            "trialTime": 0
        },
        {
            "exptPart": "trial",
            "trialNumber": 49,
            "roleCurrent": "receiver",
            "marblesSampled": 100,
            "probRed": 0.5,
            "practiceLambda": 5,
            "trialLambda": 0.3,
            "instructedLambda": "dishonest_big",
            "drawnRed": 38,
            "reportedRed": 38,
            "inferredRed": 27,
            "playerTrialScore": -11,
            "oppTrialScore": 0,
            "playerTotalScore": -658,
            "oppTotalScore": 13,
            "waitTime": 6297.450250230566,
            "responseTime": 1678911089579,
            "catchQuestion": "How many <b class=\"r\">red<\/b> marbles did your opponent report drawing? ",
            "catchKey": -1,
            "catchResponse": -1,
            "catchTime": 1678910980545,
            "trialTime": 0
        },
        {
            "exptPart": "trial",
            "trialNumber": 50,
            "roleCurrent": "receiver",
            "marblesSampled": 100,
            "probRed": 0.5,
            "practiceLambda": 5,
            "trialLambda": 0.3,
            "instructedLambda": "dishonest_big",
            "drawnRed": 73,
            "reportedRed": 73,
            "inferredRed": 27,
            "playerTrialScore": -46,
            "oppTrialScore": 0,
            "playerTotalScore": -704,
            "oppTotalScore": 13,
            "waitTime": 5358.664204272298,
            "responseTime": 1678911098096,
            "catchQuestion": "How many <b class=\"r\">red<\/b> marbles did your opponent report drawing? ",
            "catchKey": -1,
            "catchResponse": -1,
            "catchTime": 1678911098096,
            "trialTime": 0
        },
        {
            "exptPart": "trial",
            "trialNumber": 51,
            "roleCurrent": "receiver",
            "marblesSampled": 100,
            "probRed": 0.5,
            "practiceLambda": 5,
            "trialLambda": 0.3,
            "instructedLambda": "dishonest_big",
            "drawnRed": 32,
            "reportedRed": 32,
            "inferredRed": 56,
            "playerTrialScore": -24,
            "oppTrialScore": 24,
            "playerTotalScore": -728,
            "oppTotalScore": 37,
            "waitTime": 5423.730414400305,
            "responseTime": 1678911115127,
            "catchQuestion": "How many <b class=\"r\">red<\/b> marbles did your opponent report drawing? ",
            "catchKey": -1,
            "catchResponse": -1,
            "catchTime": 1678911098096,
            "trialTime": 0
        },
        {
            "exptPart": "trial",
            "trialNumber": 52,
            "roleCurrent": "receiver",
            "marblesSampled": 100,
            "probRed": 0.5,
            "practiceLambda": 5,
            "trialLambda": 0.3,
            "instructedLambda": "dishonest_big",
            "drawnRed": 48,
            "reportedRed": 50,
            "inferredRed": 67,
            "playerTrialScore": -19,
            "oppTrialScore": 19,
            "playerTotalScore": -747,
            "oppTotalScore": 56,
            "waitTime": 6681.286838022586,
            "responseTime": 1678911124408,
            "catchQuestion": "How many <b class=\"r\">red<\/b> marbles did your opponent report drawing? ",
            "catchKey": 50,
            "catchResponse": 50,
            "catchTime": 1678911124408,
            "trialTime": 0
        },
        {
            "exptPart": "trial",
            "trialNumber": 53,
            "roleCurrent": "receiver",
            "marblesSampled": 100,
            "probRed": 0.5,
            "practiceLambda": 5,
            "trialLambda": 0.3,
            "instructedLambda": "dishonest_big",
            "drawnRed": 75,
            "reportedRed": 75,
            "inferredRed": 70,
            "playerTrialScore": -5,
            "oppTrialScore": 0,
            "playerTotalScore": -752,
            "oppTotalScore": 56,
            "waitTime": 5744.69102667815,
            "responseTime": 1678911141103,
            "catchQuestion": "How many <b class=\"r\">red<\/b> marbles did your opponent report drawing? ",
            "catchKey": -1,
            "catchResponse": -1,
            "catchTime": 1678911124408,
            "trialTime": 0
        },
        {
            "exptPart": "trial",
            "trialNumber": 54,
            "roleCurrent": "receiver",
            "marblesSampled": 100,
            "probRed": 0.5,
            "practiceLambda": 5,
            "trialLambda": 0.3,
            "instructedLambda": "dishonest_big",
            "drawnRed": 41,
            "reportedRed": 41,
            "inferredRed": 67,
            "playerTrialScore": -26,
            "oppTrialScore": 26,
            "playerTotalScore": -778,
            "oppTotalScore": 82,
            "waitTime": 7283.275949446098,
            "responseTime": 1678911160341,
            "catchQuestion": "How many <b class=\"r\">red<\/b> marbles did your opponent report drawing? ",
            "catchKey": -1,
            "catchResponse": -1,
            "catchTime": 1678911124408,
            "trialTime": 0
        },
        {
            "exptPart": "trial",
            "trialNumber": 55,
            "roleCurrent": "receiver",
            "marblesSampled": 100,
            "probRed": 0.5,
            "practiceLambda": 5,
            "trialLambda": 0.3,
            "instructedLambda": "dishonest_big",
            "drawnRed": 59,
            "reportedRed": 59,
            "inferredRed": 69,
            "playerTrialScore": -10,
            "oppTrialScore": 10,
            "playerTotalScore": -788,
            "oppTotalScore": 92,
            "waitTime": 6465.555668934465,
            "responseTime": 1678911171763,
            "catchQuestion": "How many <b class=\"r\">red<\/b> marbles did your opponent report drawing? ",
            "catchKey": -1,
            "catchResponse": -1,
            "catchTime": 1678911124408,
            "trialTime": 0
        },
        {
            "exptPart": "trial",
            "trialNumber": 56,
            "roleCurrent": "receiver",
            "marblesSampled": 100,
            "probRed": 0.5,
            "practiceLambda": 5,
            "trialLambda": 0.3,
            "instructedLambda": "dishonest_big",
            "drawnRed": 55,
            "reportedRed": 55,
            "inferredRed": 62,
            "playerTrialScore": -7,
            "oppTrialScore": 7,
            "playerTotalScore": -795,
            "oppTotalScore": 99,
            "waitTime": 6761.301501589203,
            "responseTime": 1678911183093,
            "catchQuestion": "How many <b class=\"r\">red<\/b> marbles did your opponent report drawing? ",
            "catchKey": -1,
            "catchResponse": -1,
            "catchTime": 1678911124408,
            "trialTime": 0
        },
        {
            "exptPart": "trial",
            "trialNumber": 57,
            "roleCurrent": "receiver",
            "marblesSampled": 100,
            "probRed": 0.5,
            "practiceLambda": 5,
            "trialLambda": 0.3,
            "instructedLambda": "dishonest_big",
            "drawnRed": 62,
            "reportedRed": 63,
            "inferredRed": 74,
            "playerTrialScore": -12,
            "oppTrialScore": 12,
            "playerTotalScore": -807,
            "oppTotalScore": 111,
            "waitTime": 5154.45445506219,
            "responseTime": 1678911193825,
            "catchQuestion": "How many <b class=\"r\">red<\/b> marbles did your opponent report drawing? ",
            "catchKey": -1,
            "catchResponse": -1,
            "catchTime": 1678911124408,
            "trialTime": 0
        },
        {
            "exptPart": "trial",
            "trialNumber": 58,
            "roleCurrent": "receiver",
            "marblesSampled": 100,
            "probRed": 0.5,
            "practiceLambda": 5,
            "trialLambda": 0.3,
            "instructedLambda": "dishonest_big",
            "drawnRed": 54,
            "reportedRed": 54,
            "inferredRed": 62,
            "playerTrialScore": -8,
            "oppTrialScore": 8,
            "playerTotalScore": -815,
            "oppTotalScore": 119,
            "waitTime": 6357.823362237967,
            "responseTime": 1678911209881,
            "catchQuestion": "How many <b class=\"r\">red<\/b> marbles did your opponent report drawing? ",
            "catchKey": -1,
            "catchResponse": -1,
            "catchTime": 1678911124408,
            "trialTime": 0
        },
        {
            "exptPart": "trial",
            "trialNumber": 59,
            "roleCurrent": "receiver",
            "marblesSampled": 100,
            "probRed": 0.5,
            "practiceLambda": 5,
            "trialLambda": 0.3,
            "instructedLambda": "dishonest_big",
            "drawnRed": 69,
            "reportedRed": 69,
            "inferredRed": 88,
            "playerTrialScore": -19,
            "oppTrialScore": 19,
            "playerTotalScore": -834,
            "oppTotalScore": 138,
            "waitTime": 5350.711244901893,
            "responseTime": 1678911218994,
            "catchQuestion": "How many <b class=\"r\">red<\/b> marbles did your opponent report drawing? ",
            "catchKey": -1,
            "catchResponse": -1,
            "catchTime": 1678911124408,
            "trialTime": 0
        },
        {
            "exptPart": "trial",
            "trialNumber": 60,
            "roleCurrent": "receiver",
            "marblesSampled": 100,
            "probRed": 0.5,
            "practiceLambda": 5,
            "trialLambda": 0.3,
            "instructedLambda": "dishonest_big",
            "drawnRed": 59,
            "reportedRed": 59,
            "inferredRed": 64,
            "playerTrialScore": -5,
            "oppTrialScore": 5,
            "playerTotalScore": -839,
            "oppTotalScore": 143,
            "waitTime": 5348.582902186268,
            "responseTime": 1678911228147,
            "catchQuestion": "How many <b class=\"r\">red<\/b> marbles did your opponent report drawing? ",
            "catchKey": -1,
            "catchResponse": -1,
            "catchTime": 1678911228147,
            "trialTime": 0
        },
        {
            "exptPart": "trial",
            "trialNumber": 61,
            "roleCurrent": "receiver",
            "marblesSampled": 100,
            "probRed": 0.5,
            "practiceLambda": 5,
            "trialLambda": 0.3,
            "instructedLambda": "dishonest_big",
            "drawnRed": 10,
            "reportedRed": 10,
            "inferredRed": 2,
            "playerTrialScore": -8,
            "oppTrialScore": 0,
            "playerTotalScore": -847,
            "oppTotalScore": 143,
            "waitTime": 5942.829822653108,
            "responseTime": 1678911238942,
            "catchQuestion": "How many <b class=\"r\">red<\/b> marbles did your opponent report drawing? ",
            "catchKey": 10,
            "catchResponse": 10,
            "catchTime": 1678911238942,
            "trialTime": 0
        },
        {
            "exptPart": "trial",
            "trialNumber": 62,
            "roleCurrent": "receiver",
            "marblesSampled": 100,
            "probRed": 0.5,
            "practiceLambda": 5,
            "trialLambda": 0.3,
            "instructedLambda": "dishonest_big",
            "drawnRed": 80,
            "reportedRed": 81,
            "inferredRed": 43,
            "playerTrialScore": -37,
            "oppTrialScore": 0,
            "playerTotalScore": -884,
            "oppTotalScore": 143,
            "waitTime": 5866.277196761345,
            "responseTime": 1678911252514,
            "catchQuestion": "How many <b class=\"r\">red<\/b> marbles did your opponent report drawing? ",
            "catchKey": -1,
            "catchResponse": -1,
            "catchTime": 1678911238942,
            "trialTime": 0
        },
        {
            "exptPart": "trial",
            "trialNumber": 63,
            "roleCurrent": "receiver",
            "marblesSampled": 100,
            "probRed": 0.5,
            "practiceLambda": 5,
            "trialLambda": 0.3,
            "instructedLambda": "dishonest_big",
            "drawnRed": 37,
            "reportedRed": 37,
            "inferredRed": 23,
            "playerTrialScore": -14,
            "oppTrialScore": 0,
            "playerTotalScore": -898,
            "oppTotalScore": 143,
            "waitTime": 6657.733827743205,
            "responseTime": 1678911261695,
            "catchQuestion": "How many <b class=\"r\">red<\/b> marbles did your opponent report drawing? ",
            "catchKey": -1,
            "catchResponse": -1,
            "catchTime": 1678911238942,
            "trialTime": 0
        },
        {
            "exptPart": "trial",
            "trialNumber": 64,
            "roleCurrent": "receiver",
            "marblesSampled": 100,
            "probRed": 0.5,
            "practiceLambda": 5,
            "trialLambda": 0.3,
            "instructedLambda": "dishonest_big",
            "drawnRed": 37,
            "reportedRed": 38,
            "inferredRed": 24,
            "playerTrialScore": -13,
            "oppTrialScore": 0,
            "playerTotalScore": -911,
            "oppTotalScore": 143,
            "waitTime": 7074.042903719356,
            "responseTime": 1678911274097,
            "catchQuestion": "How many <b class=\"r\">red<\/b> marbles did your opponent report drawing? ",
            "catchKey": -1,
            "catchResponse": -1,
            "catchTime": 1678911238942,
            "trialTime": 0
        },
        {
            "exptPart": "trial",
            "trialNumber": 65,
            "roleCurrent": "receiver",
            "marblesSampled": 100,
            "probRed": 0.5,
            "practiceLambda": 5,
            "trialLambda": 0.3,
            "instructedLambda": "dishonest_big",
            "drawnRed": 63,
            "reportedRed": 64,
            "inferredRed": 43,
            "playerTrialScore": -20,
            "oppTrialScore": 0,
            "playerTotalScore": -931,
            "oppTotalScore": 143,
            "waitTime": 6134.944033709628,
            "responseTime": 1678911283567,
            "catchQuestion": "How many <b class=\"r\">red<\/b> marbles did your opponent report drawing? ",
            "catchKey": -1,
            "catchResponse": -1,
            "catchTime": 1678911238942,
            "trialTime": 0
        },
        {
            "exptPart": "trial",
            "trialNumber": 66,
            "roleCurrent": "receiver",
            "marblesSampled": 100,
            "probRed": 0.5,
            "practiceLambda": 5,
            "trialLambda": 0.3,
            "instructedLambda": "dishonest_big",
            "drawnRed": 67,
            "reportedRed": 67,
            "inferredRed": 54,
            "playerTrialScore": -13,
            "oppTrialScore": 0,
            "playerTotalScore": -944,
            "oppTotalScore": 143,
            "waitTime": 5524.919690547389,
            "responseTime": 1678911294127,
            "catchQuestion": "How many <b class=\"r\">red<\/b> marbles did your opponent report drawing? ",
            "catchKey": -1,
            "catchResponse": -1,
            "catchTime": 1678911238942,
            "trialTime": 0
        },
        {
            "exptPart": "trial",
            "trialNumber": 67,
            "roleCurrent": "receiver",
            "marblesSampled": 100,
            "probRed": 0.5,
            "practiceLambda": 5,
            "trialLambda": 0.3,
            "instructedLambda": "dishonest_big",
            "drawnRed": 44,
            "reportedRed": 45,
            "inferredRed": 34,
            "playerTrialScore": -10,
            "oppTrialScore": 0,
            "playerTotalScore": -954,
            "oppTotalScore": 143,
            "waitTime": 6602.895530661949,
            "responseTime": 1678911304824,
            "catchQuestion": "How many <b class=\"r\">red<\/b> marbles did your opponent report drawing? ",
            "catchKey": -1,
            "catchResponse": -1,
            "catchTime": 1678911238942,
            "trialTime": 0
        },
        {
            "exptPart": "trial",
            "trialNumber": 68,
            "roleCurrent": "receiver",
            "marblesSampled": 100,
            "probRed": 0.5,
            "practiceLambda": 5,
            "trialLambda": 0.3,
            "instructedLambda": "dishonest_big",
            "drawnRed": 55,
            "reportedRed": 55,
            "inferredRed": 43,
            "playerTrialScore": -12,
            "oppTrialScore": 0,
            "playerTotalScore": -966,
            "oppTotalScore": 143,
            "waitTime": 6065.156385205744,
            "responseTime": 1678911313616,
            "catchQuestion": "How many <b class=\"r\">red<\/b> marbles did your opponent report drawing? ",
            "catchKey": -1,
            "catchResponse": -1,
            "catchTime": 1678911238942,
            "trialTime": 0
        },
        {
            "exptPart": "trial",
            "trialNumber": 69,
            "roleCurrent": "receiver",
            "marblesSampled": 100,
            "probRed": 0.5,
            "practiceLambda": 5,
            "trialLambda": 0.3,
            "instructedLambda": "dishonest_big",
            "drawnRed": 82,
            "reportedRed": 82,
            "inferredRed": 72,
            "playerTrialScore": -10,
            "oppTrialScore": 0,
            "playerTotalScore": -976,
            "oppTotalScore": 143,
            "waitTime": 6864.062461408922,
            "responseTime": 1678911325282,
            "catchQuestion": "How many <b class=\"r\">red<\/b> marbles did your opponent report drawing? ",
            "catchKey": -1,
            "catchResponse": -1,
            "catchTime": 1678911238942,
            "trialTime": 0
        },
        {
            "exptPart": "trial",
            "trialNumber": 70,
            "roleCurrent": "receiver",
            "marblesSampled": 100,
            "probRed": 0.5,
            "practiceLambda": 5,
            "trialLambda": 0.3,
            "instructedLambda": "dishonest_big",
            "drawnRed": 79,
            "reportedRed": 79,
            "inferredRed": 72,
            "playerTrialScore": -7,
            "oppTrialScore": 0,
            "playerTotalScore": -983,
            "oppTotalScore": 143,
            "waitTime": 5486.322400325425,
            "responseTime": 1678911335469,
            "catchQuestion": "How many <b class=\"r\">red<\/b> marbles did your opponent report drawing? ",
            "catchKey": -1,
            "catchResponse": -1,
            "catchTime": 1678911335469,
            "trialTime": 0
        },
        {
            "exptPart": "trial",
            "trialNumber": 71,
            "roleCurrent": "receiver",
            "marblesSampled": 100,
            "probRed": 0.5,
            "practiceLambda": 5,
            "trialLambda": 0.3,
            "instructedLambda": "dishonest_big",
            "drawnRed": 36,
            "reportedRed": 37,
            "inferredRed": 32,
            "playerTrialScore": -4,
            "oppTrialScore": 0,
            "playerTotalScore": -987,
            "oppTotalScore": 143,
            "waitTime": 6978.759136727096,
            "responseTime": 1678911348439,
            "catchQuestion": "How many <b class=\"r\">red<\/b> marbles did your opponent report drawing? ",
            "catchKey": -1,
            "catchResponse": -1,
            "catchTime": 1678911335469,
            "trialTime": 0
        },
        {
            "exptPart": "trial",
            "trialNumber": 72,
            "roleCurrent": "receiver",
            "marblesSampled": 100,
            "probRed": 0.5,
            "practiceLambda": 5,
            "trialLambda": 0.3,
            "instructedLambda": "dishonest_big",
            "drawnRed": 18,
            "reportedRed": 18,
            "inferredRed": 12,
            "playerTrialScore": -6,
            "oppTrialScore": 0,
            "playerTotalScore": -993,
            "oppTotalScore": 143,
            "waitTime": 6943.10539599754,
            "responseTime": 1678911357499,
            "catchQuestion": "How many <b class=\"r\">red<\/b> marbles did your opponent report drawing? ",
            "catchKey": 18,
            "catchResponse": 18,
            "catchTime": 1678911357499,
            "trialTime": 0
        },
        {
            "exptPart": "trial",
            "trialNumber": 73,
            "roleCurrent": "receiver",
            "marblesSampled": 100,
            "probRed": 0.5,
            "practiceLambda": 5,
            "trialLambda": 0.3,
            "instructedLambda": "dishonest_big",
            "drawnRed": 36,
            "reportedRed": 36,
            "inferredRed": 23,
            "playerTrialScore": -13,
            "oppTrialScore": 0,
            "playerTotalScore": -1006,
            "oppTotalScore": 143,
            "waitTime": 6927.801752901874,
            "responseTime": 1678911372344,
            "catchQuestion": "How many <b class=\"r\">red<\/b> marbles did your opponent report drawing? ",
            "catchKey": -1,
            "catchResponse": -1,
            "catchTime": 1678911357499,
            "trialTime": 0
        },
        {
            "exptPart": "trial",
            "trialNumber": 74,
            "roleCurrent": "receiver",
            "marblesSampled": 100,
            "probRed": 0.5,
            "practiceLambda": 5,
            "trialLambda": 0.3,
            "instructedLambda": "dishonest_big",
            "drawnRed": 79,
            "reportedRed": 80,
            "inferredRed": 72,
            "playerTrialScore": -7,
            "oppTrialScore": 0,
            "playerTotalScore": -1013,
            "oppTotalScore": 143,
            "waitTime": 7456.608972952891,
            "responseTime": 1678911383856,
            "catchQuestion": "How many <b class=\"r\">red<\/b> marbles did your opponent report drawing? ",
            "catchKey": -1,
            "catchResponse": -1,
            "catchTime": 1678911357499,
            "trialTime": 0
        },
        {
            "exptPart": "trial",
            "trialNumber": 75,
            "roleCurrent": "receiver",
            "marblesSampled": 100,
            "probRed": 0.5,
            "practiceLambda": 5,
            "trialLambda": 0.3,
            "instructedLambda": "dishonest_big",
            "drawnRed": 65,
            "reportedRed": 65,
            "inferredRed": 60,
            "playerTrialScore": -5,
            "oppTrialScore": 0,
            "playerTotalScore": -1018,
            "oppTotalScore": 143,
            "waitTime": 7197.041817053895,
            "responseTime": 1678911395035,
            "catchQuestion": "How many <b class=\"r\">red<\/b> marbles did your opponent report drawing? ",
            "catchKey": -1,
            "catchResponse": -1,
            "catchTime": 1678911357499,
            "trialTime": 0
        },
        {
            "exptPart": "trial",
            "trialNumber": 76,
            "roleCurrent": "receiver",
            "marblesSampled": 100,
            "probRed": 0.5,
            "practiceLambda": 5,
            "trialLambda": 0.3,
            "instructedLambda": "dishonest_big",
            "drawnRed": 50,
            "reportedRed": 51,
            "inferredRed": 42,
            "playerTrialScore": -8,
            "oppTrialScore": 0,
            "playerTotalScore": -1026,
            "oppTotalScore": 143,
            "waitTime": 6974.36392772032,
            "responseTime": 1678911404684,
            "catchQuestion": "How many <b class=\"r\">red<\/b> marbles did your opponent report drawing? ",
            "catchKey": -1,
            "catchResponse": -1,
            "catchTime": 1678911357499,
            "trialTime": 0
        },
        {
            "exptPart": "trial",
            "trialNumber": 77,
            "roleCurrent": "receiver",
            "marblesSampled": 100,
            "probRed": 0.5,
            "practiceLambda": 5,
            "trialLambda": 0.3,
            "instructedLambda": "dishonest_big",
            "drawnRed": 63,
            "reportedRed": 63,
            "inferredRed": 52,
            "playerTrialScore": -11,
            "oppTrialScore": 0,
            "playerTotalScore": -1037,
            "oppTotalScore": 143,
            "waitTime": 6309.651098312381,
            "responseTime": 1678911414539,
            "catchQuestion": "How many <b class=\"r\">red<\/b> marbles did your opponent report drawing? ",
            "catchKey": -1,
            "catchResponse": -1,
            "catchTime": 1678911357499,
            "trialTime": 0
        },
        {
            "exptPart": "trial",
            "trialNumber": 78,
            "roleCurrent": "receiver",
            "marblesSampled": 100,
            "probRed": 0.5,
            "practiceLambda": 5,
            "trialLambda": 0.3,
            "instructedLambda": "dishonest_big",
            "drawnRed": 51,
            "reportedRed": 51,
            "inferredRed": 44,
            "playerTrialScore": -7,
            "oppTrialScore": 0,
            "playerTotalScore": -1044,
            "oppTotalScore": 143,
            "waitTime": 5907.748237084981,
            "responseTime": 1678911424210,
            "catchQuestion": "How many <b class=\"r\">red<\/b> marbles did your opponent report drawing? ",
            "catchKey": -1,
            "catchResponse": -1,
            "catchTime": 1678911357499,
            "trialTime": 0
        },
        {
            "exptPart": "trial",
            "trialNumber": 79,
            "roleCurrent": "receiver",
            "marblesSampled": 100,
            "probRed": 0.5,
            "practiceLambda": 5,
            "trialLambda": 0.3,
            "instructedLambda": "dishonest_big",
            "drawnRed": 57,
            "reportedRed": 57,
            "inferredRed": 72,
            "playerTrialScore": -15,
            "oppTrialScore": 15,
            "playerTotalScore": -1059,
            "oppTotalScore": 158,
            "waitTime": 5812.279270415947,
            "responseTime": 1678911432911,
            "catchQuestion": "How many <b class=\"r\">red<\/b> marbles did your opponent report drawing? ",
            "catchKey": -1,
            "catchResponse": -1,
            "catchTime": 1678911357499,
            "trialTime": 0
        },
        {
            "exptPart": "trial",
            "trialNumber": 80,
            "roleCurrent": "receiver",
            "marblesSampled": 100,
            "probRed": 0.5,
            "practiceLambda": 5,
            "trialLambda": 0.3,
            "instructedLambda": "dishonest_big",
            "drawnRed": 85,
            "reportedRed": 85,
            "inferredRed": 67,
            "playerTrialScore": -18,
            "oppTrialScore": 0,
            "playerTotalScore": -1077,
            "oppTotalScore": 158,
            "waitTime": 5648.739795306258,
            "responseTime": 1678911441358,
            "catchQuestion": "How many <b class=\"r\">red<\/b> marbles did your opponent report drawing? ",
            "catchKey": 85,
            "catchResponse": 87,
            "catchTime": 1678911441358,
            "trialTime": 0
        },
        {
            "exptPart": "trial",
            "trialNumber": 81,
            "roleCurrent": "receiver",
            "marblesSampled": 100,
            "probRed": 0.5,
            "practiceLambda": 5,
            "trialLambda": 0.3,
            "instructedLambda": "dishonest_big",
            "drawnRed": 66,
            "reportedRed": 67,
            "inferredRed": 62,
            "playerTrialScore": -4,
            "oppTrialScore": 0,
            "playerTotalScore": -1081,
            "oppTotalScore": 158,
            "waitTime": 6620.845795252902,
            "responseTime": 1678911456397,
            "catchQuestion": "How many <b class=\"r\">red<\/b> marbles did your opponent report drawing? ",
            "catchKey": -1,
            "catchResponse": -1,
            "catchTime": 1678911441358,
            "trialTime": 0
        },
        {
            "exptPart": "trial",
            "trialNumber": 82,
            "roleCurrent": "receiver",
            "marblesSampled": 100,
            "probRed": 0.5,
            "practiceLambda": 5,
            "trialLambda": 0.3,
            "instructedLambda": "dishonest_big",
            "drawnRed": 52,
            "reportedRed": 53,
            "inferredRed": 42,
            "playerTrialScore": -10,
            "oppTrialScore": 0,
            "playerTotalScore": -1091,
            "oppTotalScore": 158,
            "waitTime": 5604.789732105361,
            "responseTime": 1678911464730,
            "catchQuestion": "How many <b class=\"r\">red<\/b> marbles did your opponent report drawing? ",
            "catchKey": -1,
            "catchResponse": -1,
            "catchTime": 1678911441358,
            "trialTime": 0
        },
        {
            "exptPart": "trial",
            "trialNumber": 83,
            "roleCurrent": "receiver",
            "marblesSampled": 100,
            "probRed": 0.5,
            "practiceLambda": 5,
            "trialLambda": 0.3,
            "instructedLambda": "dishonest_big",
            "drawnRed": 52,
            "reportedRed": 52,
            "inferredRed": 47,
            "playerTrialScore": -5,
            "oppTrialScore": 0,
            "playerTotalScore": -1096,
            "oppTotalScore": 158,
            "waitTime": 5303.966634373135,
            "responseTime": 1678911473693,
            "catchQuestion": "How many <b class=\"r\">red<\/b> marbles did your opponent report drawing? ",
            "catchKey": -1,
            "catchResponse": -1,
            "catchTime": 1678911441358,
            "trialTime": 0
        },
        {
            "exptPart": "trial",
            "trialNumber": 84,
            "roleCurrent": "receiver",
            "marblesSampled": 100,
            "probRed": 0.5,
            "practiceLambda": 5,
            "trialLambda": 0.3,
            "instructedLambda": "dishonest_big",
            "drawnRed": 68,
            "reportedRed": 68,
            "inferredRed": 55,
            "playerTrialScore": -13,
            "oppTrialScore": 0,
            "playerTotalScore": -1109,
            "oppTotalScore": 158,
            "waitTime": 5718.1048089184405,
            "responseTime": 1678911484101,
            "catchQuestion": "How many <b class=\"r\">red<\/b> marbles did your opponent report drawing? ",
            "catchKey": -1,
            "catchResponse": -1,
            "catchTime": 1678911441358,
            "trialTime": 0
        },
        {
            "exptPart": "trial",
            "trialNumber": 85,
            "roleCurrent": "receiver",
            "marblesSampled": 100,
            "probRed": 0.5,
            "practiceLambda": 5,
            "trialLambda": 0.3,
            "instructedLambda": "dishonest_big",
            "drawnRed": 48,
            "reportedRed": 49,
            "inferredRed": 43,
            "playerTrialScore": -5,
            "oppTrialScore": 0,
            "playerTotalScore": -1114,
            "oppTotalScore": 158,
            "waitTime": 6731.401564749463,
            "responseTime": 1678911494402,
            "catchQuestion": "How many <b class=\"r\">red<\/b> marbles did your opponent report drawing? ",
            "catchKey": -1,
            "catchResponse": -1,
            "catchTime": 1678911441358,
            "trialTime": 0
        },
        {
            "exptPart": "trial",
            "trialNumber": 86,
            "roleCurrent": "receiver",
            "marblesSampled": 100,
            "probRed": 0.5,
            "practiceLambda": 5,
            "trialLambda": 0.3,
            "instructedLambda": "dishonest_big",
            "drawnRed": 54,
            "reportedRed": 54,
            "inferredRed": 43,
            "playerTrialScore": -11,
            "oppTrialScore": 0,
            "playerTotalScore": -1125,
            "oppTotalScore": 158,
            "waitTime": 5697.19181659471,
            "responseTime": 1678911503654,
            "catchQuestion": "How many <b class=\"r\">red<\/b> marbles did your opponent report drawing? ",
            "catchKey": -1,
            "catchResponse": -1,
            "catchTime": 1678911441358,
            "trialTime": 0
        },
        {
            "exptPart": "trial",
            "trialNumber": 87,
            "roleCurrent": "receiver",
            "marblesSampled": 100,
            "probRed": 0.5,
            "practiceLambda": 5,
            "trialLambda": 0.3,
            "instructedLambda": "dishonest_big",
            "drawnRed": 31,
            "reportedRed": 31,
            "inferredRed": 23,
            "playerTrialScore": -8,
            "oppTrialScore": 0,
            "playerTotalScore": -1133,
            "oppTotalScore": 158,
            "waitTime": 6156.310339531931,
            "responseTime": 1678911512185,
            "catchQuestion": "How many <b class=\"r\">red<\/b> marbles did your opponent report drawing? ",
            "catchKey": -1,
            "catchResponse": -1,
            "catchTime": 1678911441358,
            "trialTime": 0
        },
        {
            "exptPart": "trial",
            "trialNumber": 88,
            "roleCurrent": "receiver",
            "marblesSampled": 100,
            "probRed": 0.5,
            "practiceLambda": 5,
            "trialLambda": 0.3,
            "instructedLambda": "dishonest_big",
            "drawnRed": 25,
            "reportedRed": 25,
            "inferredRed": 12,
            "playerTrialScore": -13,
            "oppTrialScore": 0,
            "playerTotalScore": -1146,
            "oppTotalScore": 158,
            "waitTime": 5317.94730685885,
            "responseTime": 1678911519697,
            "catchQuestion": "How many <b class=\"r\">red<\/b> marbles did your opponent report drawing? ",
            "catchKey": -1,
            "catchResponse": -1,
            "catchTime": 1678911441358,
            "trialTime": 0
        },
        {
            "exptPart": "trial",
            "trialNumber": 89,
            "roleCurrent": "receiver",
            "marblesSampled": 100,
            "probRed": 0.5,
            "practiceLambda": 5,
            "trialLambda": 0.3,
            "instructedLambda": "dishonest_big",
            "drawnRed": 75,
            "reportedRed": 75,
            "inferredRed": 59,
            "playerTrialScore": -16,
            "oppTrialScore": 0,
            "playerTotalScore": -1162,
            "oppTotalScore": 158,
            "waitTime": 6970.3672271946125,
            "responseTime": 1678911532726,
            "catchQuestion": "How many <b class=\"r\">red<\/b> marbles did your opponent report drawing? ",
            "catchKey": -1,
            "catchResponse": -1,
            "catchTime": 1678911441358,
            "trialTime": 0
        },
        {
            "exptPart": "trial",
            "trialNumber": 90,
            "roleCurrent": "receiver",
            "marblesSampled": 100,
            "probRed": 0.5,
            "practiceLambda": 5,
            "trialLambda": 0.3,
            "instructedLambda": "dishonest_big",
            "drawnRed": 42,
            "reportedRed": 42,
            "inferredRed": 34,
            "playerTrialScore": -8,
            "oppTrialScore": 0,
            "playerTotalScore": -1170,
            "oppTotalScore": 158,
            "waitTime": 5794.212666462151,
            "responseTime": 1678911543219,
            "catchQuestion": "How many <b class=\"r\">red<\/b> marbles did your opponent report drawing? ",
            "catchKey": -1,
            "catchResponse": -1,
            "catchTime": 1678911543219,
            "trialTime": 0
        },
        {
            "exptPart": "trial",
            "trialNumber": 91,
            "roleCurrent": "receiver",
            "marblesSampled": 100,
            "probRed": 0.5,
            "practiceLambda": 5,
            "trialLambda": 0.3,
            "instructedLambda": "dishonest_big",
            "drawnRed": 70,
            "reportedRed": 70,
            "inferredRed": 65,
            "playerTrialScore": -5,
            "oppTrialScore": 0,
            "playerTotalScore": -1175,
            "oppTotalScore": 158,
            "waitTime": 5761.040710539024,
            "responseTime": 1678911553778,
            "catchQuestion": "How many <b class=\"r\">red<\/b> marbles did your opponent report drawing? ",
            "catchKey": -1,
            "catchResponse": -1,
            "catchTime": 1678911543219,
            "trialTime": 0
        },
        {
            "exptPart": "trial",
            "trialNumber": 92,
            "roleCurrent": "receiver",
            "marblesSampled": 100,
            "probRed": 0.5,
            "practiceLambda": 5,
            "trialLambda": 0.3,
            "instructedLambda": "dishonest_big",
            "drawnRed": 36,
            "reportedRed": 36,
            "inferredRed": 31,
            "playerTrialScore": -5,
            "oppTrialScore": 0,
            "playerTotalScore": -1180,
            "oppTotalScore": 158,
            "waitTime": 6276.907754035914,
            "responseTime": 1678911564520,
            "catchQuestion": "How many <b class=\"r\">red<\/b> marbles did your opponent report drawing? ",
            "catchKey": 36,
            "catchResponse": 36,
            "catchTime": 1678911564520,
            "trialTime": 0
        },
        {
            "exptPart": "trial",
            "trialNumber": 93,
            "roleCurrent": "receiver",
            "marblesSampled": 100,
            "probRed": 0.5,
            "practiceLambda": 5,
            "trialLambda": 0.3,
            "instructedLambda": "dishonest_big",
            "drawnRed": 46,
            "reportedRed": 46,
            "inferredRed": 41,
            "playerTrialScore": -5,
            "oppTrialScore": 0,
            "playerTotalScore": -1185,
            "oppTotalScore": 158,
            "waitTime": 6550.647881357512,
            "responseTime": 1678911580813,
            "catchQuestion": "How many <b class=\"r\">red<\/b> marbles did your opponent report drawing? ",
            "catchKey": 46,
            "catchResponse": 46,
            "catchTime": 1678911580813,
            "trialTime": 0
        },
        {
            "exptPart": "trial",
            "trialNumber": 94,
            "roleCurrent": "receiver",
            "marblesSampled": 100,
            "probRed": 0.5,
            "practiceLambda": 5,
            "trialLambda": 0.3,
            "instructedLambda": "dishonest_big",
            "drawnRed": 93,
            "reportedRed": 93,
            "inferredRed": 88,
            "playerTrialScore": -5,
            "oppTrialScore": 0,
            "playerTotalScore": -1190,
            "oppTotalScore": 158,
            "waitTime": 5232.820098457937,
            "responseTime": 1678911593374,
            "catchQuestion": "How many <b class=\"r\">red<\/b> marbles did your opponent report drawing? ",
            "catchKey": -1,
            "catchResponse": -1,
            "catchTime": 1678911580813,
            "trialTime": 0
        },
        {
            "exptPart": "trial",
            "trialNumber": 95,
            "roleCurrent": "receiver",
            "marblesSampled": 100,
            "probRed": 0.5,
            "practiceLambda": 5,
            "trialLambda": 0.3,
            "instructedLambda": "dishonest_big",
            "drawnRed": 76,
            "reportedRed": 76,
            "inferredRed": 66,
            "playerTrialScore": -10,
            "oppTrialScore": 0,
            "playerTotalScore": -1200,
            "oppTotalScore": 158,
            "waitTime": 5742.100399834802,
            "responseTime": 1678911601941,
            "catchQuestion": "How many <b class=\"r\">red<\/b> marbles did your opponent report drawing? ",
            "catchKey": -1,
            "catchResponse": -1,
            "catchTime": 1678911580813,
            "trialTime": 0
        },
        {
            "exptPart": "trial",
            "trialNumber": 96,
            "roleCurrent": "receiver",
            "marblesSampled": 100,
            "probRed": 0.5,
            "practiceLambda": 5,
            "trialLambda": 0.3,
            "instructedLambda": "dishonest_big",
            "drawnRed": 42,
            "reportedRed": 42,
            "inferredRed": 34,
            "playerTrialScore": -8,
            "oppTrialScore": 0,
            "playerTotalScore": -1208,
            "oppTotalScore": 158,
            "waitTime": 7312.397320202753,
            "responseTime": 1678911611924,
            "catchQuestion": "How many <b class=\"r\">red<\/b> marbles did your opponent report drawing? ",
            "catchKey": -1,
            "catchResponse": -1,
            "catchTime": 1678911580813,
            "trialTime": 0
        },
        {
            "exptPart": "trial",
            "trialNumber": 97,
            "roleCurrent": "receiver",
            "marblesSampled": 100,
            "probRed": 0.5,
            "practiceLambda": 5,
            "trialLambda": 0.3,
            "instructedLambda": "dishonest_big",
            "drawnRed": 33,
            "reportedRed": 33,
            "inferredRed": 24,
            "playerTrialScore": -9,
            "oppTrialScore": 0,
            "playerTotalScore": -1217,
            "oppTotalScore": 158,
            "waitTime": 6187.907240774823,
            "responseTime": 1678911620761,
            "catchQuestion": "How many <b class=\"r\">red<\/b> marbles did your opponent report drawing? ",
            "catchKey": -1,
            "catchResponse": -1,
            "catchTime": 1678911580813,
            "trialTime": 0
        },
        {
            "exptPart": "trial",
            "trialNumber": 98,
            "roleCurrent": "receiver",
            "marblesSampled": 100,
            "probRed": 0.5,
            "practiceLambda": 5,
            "trialLambda": 0.3,
            "instructedLambda": "dishonest_big",
            "drawnRed": 28,
            "reportedRed": 28,
            "inferredRed": 21,
            "playerTrialScore": -7,
            "oppTrialScore": 0,
            "playerTotalScore": -1224,
            "oppTotalScore": 158,
            "waitTime": 6225.3889170072225,
            "responseTime": 1678911629449,
            "catchQuestion": "How many <b class=\"r\">red<\/b> marbles did your opponent report drawing? ",
            "catchKey": 28,
            "catchResponse": 28,
            "catchTime": 1678911629449,
            "trialTime": 0
        },
        {
            "exptPart": "trial",
            "trialNumber": 99,
            "roleCurrent": "receiver",
            "marblesSampled": 100,
            "probRed": 0.5,
            "practiceLambda": 5,
            "trialLambda": 0.3,
            "instructedLambda": "dishonest_big",
            "drawnRed": 42,
            "reportedRed": 45,
            "inferredRed": 41,
            "playerTrialScore": -1,
            "oppTrialScore": 0,
            "playerTotalScore": -1225,
            "oppTotalScore": 158,
            "waitTime": 7374.75016403922,
            "responseTime": 1678911645146,
            "catchQuestion": "How many <b class=\"r\">red<\/b> marbles did your opponent report drawing? ",
            "catchKey": 45,
            "catchResponse": 45,
            "catchTime": 1678911645146,
            "trialTime": 0
        },
        {
            "exptPart": "trial",
            "trialNumber": 100,
            "roleCurrent": "receiver",
            "marblesSampled": 100,
            "probRed": 0.5,
            "practiceLambda": 5,
            "trialLambda": 0.3,
            "instructedLambda": "dishonest_big",
            "drawnRed": 65,
            "reportedRed": 65,
            "inferredRed": 57,
            "playerTrialScore": -8,
            "oppTrialScore": 0,
            "playerTotalScore": -1233,
            "oppTotalScore": 158,
            "waitTime": 6022.649098453087,
            "responseTime": 1678911658026,
            "catchQuestion": "How many <b class=\"r\">red<\/b> marbles did your opponent report drawing? ",
            "catchKey": -1,
            "catchResponse": -1,
            "catchTime": 1678911658026,
            "trialTime": 0
        }
    ]
}