{
    "client": {
        "type": "sona",
        "experiment_id": 2228,
        "credit_token": "b315147ae43241ea9c65086cb510cfb7",
        "survey_code": "47619",
        "sid": "sona-47619",
        "window": {
            "width": 1440,
            "height": 726
        },
        "screen": {
            "width": 1440,
            "height": 900
        },
        "userAgent": "Mozilla\/5.0 (Macintosh; Intel Mac OS X 10_15_7) AppleWebKit\/605.1.15 (KHTML, like Gecko) Version\/16.2 Safari\/605.1.15",
        "score": 0,
        "bonus": 0
    },
    "expt": {
        "saveURL": "submit.simple.php",
        "trials": 100,
        "practiceTrials": 2,
        "marblesSampled": 100,
        "probRed": 0.5,
        "practiceLambdaAI": 5,
        "lambdaAI": 21.9,
        "roles": [
            "sender",
            "receiver"
        ],
        "cost": "unif",
        "goal": "over",
        "oppDishonesty": "dishonest_big",
        "catchTrials": [
            24,
            34,
            58,
            13,
            8,
            93,
            43,
            35,
            30,
            32
        ],
        "scoreTotal": {
            "player": -3440,
            "opp": 324
        },
        "sona": {
            "experiment_id": 2228,
            "credit_token": "b315147ae43241ea9c65086cb510cfb7"
        },
        "pilot": false,
        "debug": false
    },
    "trials": [
        {
            "exptPart": "practice",
            "trialNumber": 1,
            "roleCurrent": "sender",
            "marblesSampled": 100,
            "probRed": 0.5,
            "practiceLambda": 5,
            "trialLambda": 21.9,
            "instructedLambda": "dishonest_big",
            "drawnRed": 40,
            "reportedRed": 40,
            "inferredRed": 33,
            "playerTrialScore": 0,
            "oppTrialScore": -7,
            "playerTotalScore": 0,
            "oppTotalScore": -7,
            "waitTime": 3163.90072202463,
            "responseTime": 1681143731568,
            "catchQuestion": "How many <b class=\"r\">red<\/b> marbles did you actually draw (before any changes)? ",
            "catchKey": 40,
            "catchResponse": 15,
            "catchTime": 1681143731568,
            "trialTime": 0
        },
        {
            "exptPart": "practice",
            "trialNumber": 2,
            "roleCurrent": "receiver",
            "marblesSampled": 100,
            "probRed": 0.5,
            "practiceLambda": 5,
            "trialLambda": 21.9,
            "instructedLambda": "dishonest_big",
            "drawnRed": 48,
            "reportedRed": 53,
            "inferredRed": 50,
            "playerTrialScore": -2,
            "oppTrialScore": 2,
            "playerTotalScore": -2,
            "oppTotalScore": -5,
            "waitTime": 5208.738110334329,
            "responseTime": 1681143784751,
            "catchQuestion": "How many <b class=\"r\">red<\/b> marbles did your opponent report drawing? ",
            "catchKey": 53,
            "catchResponse": 30,
            "catchTime": 1681143784751,
            "trialTime": 0
        },
        {
            "exptPart": "trial",
            "trialNumber": 1,
            "roleCurrent": "receiver",
            "marblesSampled": 100,
            "probRed": 0.5,
            "practiceLambda": 5,
            "trialLambda": 21.9,
            "instructedLambda": "dishonest_big",
            "drawnRed": 60,
            "reportedRed": 79,
            "inferredRed": 65,
            "playerTrialScore": -5,
            "oppTrialScore": 5,
            "playerTotalScore": -5,
            "oppTotalScore": 5,
            "waitTime": 5685.017607637697,
            "responseTime": 1681143831751,
            "catchQuestion": "How many <b class=\"r\">red<\/b> marbles did your opponent report drawing? ",
            "catchKey": -1,
            "catchResponse": -1,
            "catchTime": 1681143784751,
            "trialTime": 0
        },
        {
            "exptPart": "trial",
            "trialNumber": 2,
            "roleCurrent": "receiver",
            "marblesSampled": 100,
            "probRed": 0.5,
            "practiceLambda": 5,
            "trialLambda": 21.9,
            "instructedLambda": "dishonest_big",
            "drawnRed": 66,
            "reportedRed": 87,
            "inferredRed": 79,
            "playerTrialScore": -13,
            "oppTrialScore": 13,
            "playerTotalScore": -18,
            "oppTotalScore": 18,
            "waitTime": 5975.509661347061,
            "responseTime": 1681143844568,
            "catchQuestion": "How many <b class=\"r\">red<\/b> marbles did your opponent report drawing? ",
            "catchKey": -1,
            "catchResponse": -1,
            "catchTime": 1681143784751,
            "trialTime": 0
        },
        {
            "exptPart": "trial",
            "trialNumber": 3,
            "roleCurrent": "receiver",
            "marblesSampled": 100,
            "probRed": 0.5,
            "practiceLambda": 5,
            "trialLambda": 21.9,
            "instructedLambda": "dishonest_big",
            "drawnRed": 69,
            "reportedRed": 87,
            "inferredRed": 45,
            "playerTrialScore": -24,
            "oppTrialScore": 0,
            "playerTotalScore": -42,
            "oppTotalScore": 18,
            "waitTime": 5228.62306366772,
            "responseTime": 1681143859539,
            "catchQuestion": "How many <b class=\"r\">red<\/b> marbles did your opponent report drawing? ",
            "catchKey": -1,
            "catchResponse": -1,
            "catchTime": 1681143784751,
            "trialTime": 0
        },
        {
            "exptPart": "trial",
            "trialNumber": 4,
            "roleCurrent": "receiver",
            "marblesSampled": 100,
            "probRed": 0.5,
            "practiceLambda": 5,
            "trialLambda": 21.9,
            "instructedLambda": "dishonest_big",
            "drawnRed": 66,
            "reportedRed": 91,
            "inferredRed": 80,
            "playerTrialScore": -14,
            "oppTrialScore": 14,
            "playerTotalScore": -56,
            "oppTotalScore": 32,
            "waitTime": 5650.2974363254225,
            "responseTime": 1681143928203,
            "catchQuestion": "How many <b class=\"r\">red<\/b> marbles did your opponent report drawing? ",
            "catchKey": -1,
            "catchResponse": -1,
            "catchTime": 1681143784751,
            "trialTime": 0
        },
        {
            "exptPart": "trial",
            "trialNumber": 5,
            "roleCurrent": "receiver",
            "marblesSampled": 100,
            "probRed": 0.5,
            "practiceLambda": 5,
            "trialLambda": 21.9,
            "instructedLambda": "dishonest_big",
            "drawnRed": 63,
            "reportedRed": 82,
            "inferredRed": 79,
            "playerTrialScore": -16,
            "oppTrialScore": 16,
            "playerTotalScore": -72,
            "oppTotalScore": 48,
            "waitTime": 5903.3462141937625,
            "responseTime": 1681143946103,
            "catchQuestion": "How many <b class=\"r\">red<\/b> marbles did your opponent report drawing? ",
            "catchKey": -1,
            "catchResponse": -1,
            "catchTime": 1681143784751,
            "trialTime": 0
        },
        {
            "exptPart": "trial",
            "trialNumber": 6,
            "roleCurrent": "receiver",
            "marblesSampled": 100,
            "probRed": 0.5,
            "practiceLambda": 5,
            "trialLambda": 21.9,
            "instructedLambda": "dishonest_big",
            "drawnRed": 31,
            "reportedRed": 56,
            "inferredRed": 50,
            "playerTrialScore": -19,
            "oppTrialScore": 19,
            "playerTotalScore": -91,
            "oppTotalScore": 67,
            "waitTime": 6374.869702931797,
            "responseTime": 1681144025469,
            "catchQuestion": "How many <b class=\"r\">red<\/b> marbles did your opponent report drawing? ",
            "catchKey": -1,
            "catchResponse": -1,
            "catchTime": 1681143784751,
            "trialTime": 0
        },
        {
            "exptPart": "trial",
            "trialNumber": 7,
            "roleCurrent": "receiver",
            "marblesSampled": 100,
            "probRed": 0.5,
            "practiceLambda": 5,
            "trialLambda": 21.9,
            "instructedLambda": "dishonest_big",
            "drawnRed": 62,
            "reportedRed": 86,
            "inferredRed": 63,
            "playerTrialScore": -1,
            "oppTrialScore": 1,
            "playerTotalScore": -92,
            "oppTotalScore": 68,
            "waitTime": 5465.330303269195,
            "responseTime": 1681144036470,
            "catchQuestion": "How many <b class=\"r\">red<\/b> marbles did your opponent report drawing? ",
            "catchKey": -1,
            "catchResponse": -1,
            "catchTime": 1681143784751,
            "trialTime": 0
        },
        {
            "exptPart": "trial",
            "trialNumber": 8,
            "roleCurrent": "receiver",
            "marblesSampled": 100,
            "probRed": 0.5,
            "practiceLambda": 5,
            "trialLambda": 21.9,
            "instructedLambda": "dishonest_big",
            "drawnRed": 64,
            "reportedRed": 87,
            "inferredRed": 20,
            "playerTrialScore": -44,
            "oppTrialScore": 0,
            "playerTotalScore": -136,
            "oppTotalScore": 68,
            "waitTime": 6155.635299686541,
            "responseTime": 1681144099253,
            "catchQuestion": "How many <b class=\"r\">red<\/b> marbles did your opponent report drawing? ",
            "catchKey": -1,
            "catchResponse": -1,
            "catchTime": 1681143784751,
            "trialTime": 0
        },
        {
            "exptPart": "trial",
            "trialNumber": 9,
            "roleCurrent": "receiver",
            "marblesSampled": 100,
            "probRed": 0.5,
            "practiceLambda": 5,
            "trialLambda": 21.9,
            "instructedLambda": "dishonest_big",
            "drawnRed": 55,
            "reportedRed": 77,
            "inferredRed": 25,
            "playerTrialScore": -30,
            "oppTrialScore": 0,
            "playerTotalScore": -166,
            "oppTotalScore": 68,
            "waitTime": 5480.408915537387,
            "responseTime": 1681144111720,
            "catchQuestion": "How many <b class=\"r\">red<\/b> marbles did your opponent report drawing? ",
            "catchKey": 77,
            "catchResponse": 87,
            "catchTime": 1681144111720,
            "trialTime": 0
        },
        {
            "exptPart": "trial",
            "trialNumber": 10,
            "roleCurrent": "receiver",
            "marblesSampled": 100,
            "probRed": 0.5,
            "practiceLambda": 5,
            "trialLambda": 21.9,
            "instructedLambda": "dishonest_big",
            "drawnRed": 43,
            "reportedRed": 69,
            "inferredRed": 26,
            "playerTrialScore": -17,
            "oppTrialScore": 0,
            "playerTotalScore": -183,
            "oppTotalScore": 68,
            "waitTime": 6633.3685636206,
            "responseTime": 1681144194503,
            "catchQuestion": "How many <b class=\"r\">red<\/b> marbles did your opponent report drawing? ",
            "catchKey": -1,
            "catchResponse": -1,
            "catchTime": 1681144194503,
            "trialTime": 0
        },
        {
            "exptPart": "trial",
            "trialNumber": 11,
            "roleCurrent": "receiver",
            "marblesSampled": 100,
            "probRed": 0.5,
            "practiceLambda": 5,
            "trialLambda": 21.9,
            "instructedLambda": "dishonest_big",
            "drawnRed": 75,
            "reportedRed": 98,
            "inferredRed": 2,
            "playerTrialScore": -73,
            "oppTrialScore": 0,
            "playerTotalScore": -256,
            "oppTotalScore": 68,
            "waitTime": 6414.408350902571,
            "responseTime": 1681144217203,
            "catchQuestion": "How many <b class=\"r\">red<\/b> marbles did your opponent report drawing? ",
            "catchKey": -1,
            "catchResponse": -1,
            "catchTime": 1681144194503,
            "trialTime": 0
        },
        {
            "exptPart": "trial",
            "trialNumber": 12,
            "roleCurrent": "receiver",
            "marblesSampled": 100,
            "probRed": 0.5,
            "practiceLambda": 5,
            "trialLambda": 21.9,
            "instructedLambda": "dishonest_big",
            "drawnRed": 48,
            "reportedRed": 69,
            "inferredRed": 98,
            "playerTrialScore": -50,
            "oppTrialScore": 50,
            "playerTotalScore": -306,
            "oppTotalScore": 118,
            "waitTime": 5256.954418616448,
            "responseTime": 1681144230321,
            "catchQuestion": "How many <b class=\"r\">red<\/b> marbles did your opponent report drawing? ",
            "catchKey": -1,
            "catchResponse": -1,
            "catchTime": 1681144194503,
            "trialTime": 0
        },
        {
            "exptPart": "trial",
            "trialNumber": 13,
            "roleCurrent": "receiver",
            "marblesSampled": 100,
            "probRed": 0.5,
            "practiceLambda": 5,
            "trialLambda": 21.9,
            "instructedLambda": "dishonest_big",
            "drawnRed": 67,
            "reportedRed": 83,
            "inferredRed": 60,
            "playerTrialScore": -7,
            "oppTrialScore": 0,
            "playerTotalScore": -313,
            "oppTotalScore": 118,
            "waitTime": 5335.302784212519,
            "responseTime": 1681144267920,
            "catchQuestion": "How many <b class=\"r\">red<\/b> marbles did your opponent report drawing? ",
            "catchKey": -1,
            "catchResponse": -1,
            "catchTime": 1681144194503,
            "trialTime": 0
        },
        {
            "exptPart": "trial",
            "trialNumber": 14,
            "roleCurrent": "receiver",
            "marblesSampled": 100,
            "probRed": 0.5,
            "practiceLambda": 5,
            "trialLambda": 21.9,
            "instructedLambda": "dishonest_big",
            "drawnRed": 38,
            "reportedRed": 59,
            "inferredRed": 30,
            "playerTrialScore": -8,
            "oppTrialScore": 0,
            "playerTotalScore": -321,
            "oppTotalScore": 118,
            "waitTime": 5254.227442845013,
            "responseTime": 1681144280070,
            "catchQuestion": "How many <b class=\"r\">red<\/b> marbles did your opponent report drawing? ",
            "catchKey": 59,
            "catchResponse": 69,
            "catchTime": 1681144280070,
            "trialTime": 0
        },
        {
            "exptPart": "trial",
            "trialNumber": 15,
            "roleCurrent": "receiver",
            "marblesSampled": 100,
            "probRed": 0.5,
            "practiceLambda": 5,
            "trialLambda": 21.9,
            "instructedLambda": "dishonest_big",
            "drawnRed": 48,
            "reportedRed": 74,
            "inferredRed": 26,
            "playerTrialScore": -22,
            "oppTrialScore": 0,
            "playerTotalScore": -343,
            "oppTotalScore": 118,
            "waitTime": 5286.634869509031,
            "responseTime": 1681144318720,
            "catchQuestion": "How many <b class=\"r\">red<\/b> marbles did your opponent report drawing? ",
            "catchKey": -1,
            "catchResponse": -1,
            "catchTime": 1681144280070,
            "trialTime": 0
        },
        {
            "exptPart": "trial",
            "trialNumber": 16,
            "roleCurrent": "receiver",
            "marblesSampled": 100,
            "probRed": 0.5,
            "practiceLambda": 5,
            "trialLambda": 21.9,
            "instructedLambda": "dishonest_big",
            "drawnRed": 75,
            "reportedRed": 97,
            "inferredRed": 3,
            "playerTrialScore": -72,
            "oppTrialScore": 0,
            "playerTotalScore": -415,
            "oppTotalScore": 118,
            "waitTime": 6121.314727787327,
            "responseTime": 1681144329021,
            "catchQuestion": "How many <b class=\"r\">red<\/b> marbles did your opponent report drawing? ",
            "catchKey": -1,
            "catchResponse": -1,
            "catchTime": 1681144280070,
            "trialTime": 0
        },
        {
            "exptPart": "trial",
            "trialNumber": 17,
            "roleCurrent": "receiver",
            "marblesSampled": 100,
            "probRed": 0.5,
            "practiceLambda": 5,
            "trialLambda": 21.9,
            "instructedLambda": "dishonest_big",
            "drawnRed": 49,
            "reportedRed": 76,
            "inferredRed": 24,
            "playerTrialScore": -25,
            "oppTrialScore": 0,
            "playerTotalScore": -440,
            "oppTotalScore": 118,
            "waitTime": 5771.833416649466,
            "responseTime": 1681144350887,
            "catchQuestion": "How many <b class=\"r\">red<\/b> marbles did your opponent report drawing? ",
            "catchKey": -1,
            "catchResponse": -1,
            "catchTime": 1681144280070,
            "trialTime": 0
        },
        {
            "exptPart": "trial",
            "trialNumber": 18,
            "roleCurrent": "receiver",
            "marblesSampled": 100,
            "probRed": 0.5,
            "practiceLambda": 5,
            "trialLambda": 21.9,
            "instructedLambda": "dishonest_big",
            "drawnRed": 59,
            "reportedRed": 79,
            "inferredRed": 21,
            "playerTrialScore": -38,
            "oppTrialScore": 0,
            "playerTotalScore": -478,
            "oppTotalScore": 118,
            "waitTime": 6294.340470601668,
            "responseTime": 1681144410920,
            "catchQuestion": "How many <b class=\"r\">red<\/b> marbles did your opponent report drawing? ",
            "catchKey": -1,
            "catchResponse": -1,
            "catchTime": 1681144280070,
            "trialTime": 0
        },
        {
            "exptPart": "trial",
            "trialNumber": 19,
            "roleCurrent": "receiver",
            "marblesSampled": 100,
            "probRed": 0.5,
            "practiceLambda": 5,
            "trialLambda": 21.9,
            "instructedLambda": "dishonest_big",
            "drawnRed": 28,
            "reportedRed": 45,
            "inferredRed": 30,
            "playerTrialScore": -2,
            "oppTrialScore": 2,
            "playerTotalScore": -480,
            "oppTotalScore": 120,
            "waitTime": 5404.922097805855,
            "responseTime": 1681144426504,
            "catchQuestion": "How many <b class=\"r\">red<\/b> marbles did your opponent report drawing? ",
            "catchKey": -1,
            "catchResponse": -1,
            "catchTime": 1681144280070,
            "trialTime": 0
        },
        {
            "exptPart": "trial",
            "trialNumber": 20,
            "roleCurrent": "receiver",
            "marblesSampled": 100,
            "probRed": 0.5,
            "practiceLambda": 5,
            "trialLambda": 21.9,
            "instructedLambda": "dishonest_big",
            "drawnRed": 62,
            "reportedRed": 95,
            "inferredRed": 5,
            "playerTrialScore": -57,
            "oppTrialScore": 0,
            "playerTotalScore": -537,
            "oppTotalScore": 120,
            "waitTime": 6153.389565028363,
            "responseTime": 1681144439904,
            "catchQuestion": "How many <b class=\"r\">red<\/b> marbles did your opponent report drawing? ",
            "catchKey": -1,
            "catchResponse": -1,
            "catchTime": 1681144439904,
            "trialTime": 0
        },
        {
            "exptPart": "trial",
            "trialNumber": 21,
            "roleCurrent": "receiver",
            "marblesSampled": 100,
            "probRed": 0.5,
            "practiceLambda": 5,
            "trialLambda": 21.9,
            "instructedLambda": "dishonest_big",
            "drawnRed": 64,
            "reportedRed": 89,
            "inferredRed": 5,
            "playerTrialScore": -59,
            "oppTrialScore": 0,
            "playerTotalScore": -596,
            "oppTotalScore": 120,
            "waitTime": 7452.535714631638,
            "responseTime": 1681144457338,
            "catchQuestion": "How many <b class=\"r\">red<\/b> marbles did your opponent report drawing? ",
            "catchKey": -1,
            "catchResponse": -1,
            "catchTime": 1681144439904,
            "trialTime": 0
        },
        {
            "exptPart": "trial",
            "trialNumber": 22,
            "roleCurrent": "receiver",
            "marblesSampled": 100,
            "probRed": 0.5,
            "practiceLambda": 5,
            "trialLambda": 21.9,
            "instructedLambda": "dishonest_big",
            "drawnRed": 66,
            "reportedRed": 82,
            "inferredRed": 18,
            "playerTrialScore": -48,
            "oppTrialScore": 0,
            "playerTotalScore": -644,
            "oppTotalScore": 120,
            "waitTime": 7001.188699566099,
            "responseTime": 1681144498805,
            "catchQuestion": "How many <b class=\"r\">red<\/b> marbles did your opponent report drawing? ",
            "catchKey": -1,
            "catchResponse": -1,
            "catchTime": 1681144439904,
            "trialTime": 0
        },
        {
            "exptPart": "trial",
            "trialNumber": 23,
            "roleCurrent": "receiver",
            "marblesSampled": 100,
            "probRed": 0.5,
            "practiceLambda": 5,
            "trialLambda": 21.9,
            "instructedLambda": "dishonest_big",
            "drawnRed": 62,
            "reportedRed": 86,
            "inferredRed": 14,
            "playerTrialScore": -48,
            "oppTrialScore": 0,
            "playerTotalScore": -692,
            "oppTotalScore": 120,
            "waitTime": 6428.054470801035,
            "responseTime": 1681144509804,
            "catchQuestion": "How many <b class=\"r\">red<\/b> marbles did your opponent report drawing? ",
            "catchKey": -1,
            "catchResponse": -1,
            "catchTime": 1681144439904,
            "trialTime": 0
        },
        {
            "exptPart": "trial",
            "trialNumber": 24,
            "roleCurrent": "receiver",
            "marblesSampled": 100,
            "probRed": 0.5,
            "practiceLambda": 5,
            "trialLambda": 21.9,
            "instructedLambda": "dishonest_big",
            "drawnRed": 21,
            "reportedRed": 47,
            "inferredRed": 43,
            "playerTrialScore": -22,
            "oppTrialScore": 22,
            "playerTotalScore": -714,
            "oppTotalScore": 142,
            "waitTime": 5539.12599070244,
            "responseTime": 1681144551621,
            "catchQuestion": "How many <b class=\"r\">red<\/b> marbles did your opponent report drawing? ",
            "catchKey": -1,
            "catchResponse": -1,
            "catchTime": 1681144439904,
            "trialTime": 0
        },
        {
            "exptPart": "trial",
            "trialNumber": 25,
            "roleCurrent": "receiver",
            "marblesSampled": 100,
            "probRed": 0.5,
            "practiceLambda": 5,
            "trialLambda": 21.9,
            "instructedLambda": "dishonest_big",
            "drawnRed": 59,
            "reportedRed": 79,
            "inferredRed": 11,
            "playerTrialScore": -48,
            "oppTrialScore": 0,
            "playerTotalScore": -762,
            "oppTotalScore": 142,
            "waitTime": 5391.820216442465,
            "responseTime": 1681144566038,
            "catchQuestion": "How many <b class=\"r\">red<\/b> marbles did your opponent report drawing? ",
            "catchKey": 79,
            "catchResponse": 30,
            "catchTime": 1681144566038,
            "trialTime": 0
        },
        {
            "exptPart": "trial",
            "trialNumber": 26,
            "roleCurrent": "receiver",
            "marblesSampled": 100,
            "probRed": 0.5,
            "practiceLambda": 5,
            "trialLambda": 21.9,
            "instructedLambda": "dishonest_big",
            "drawnRed": 33,
            "reportedRed": 47,
            "inferredRed": 30,
            "playerTrialScore": -3,
            "oppTrialScore": 0,
            "playerTotalScore": -765,
            "oppTotalScore": 142,
            "waitTime": 7091.190617212734,
            "responseTime": 1681144846830,
            "catchQuestion": "How many <b class=\"r\">red<\/b> marbles did your opponent report drawing? ",
            "catchKey": -1,
            "catchResponse": -1,
            "catchTime": 1681144566038,
            "trialTime": 0
        },
        {
            "exptPart": "trial",
            "trialNumber": 27,
            "roleCurrent": "receiver",
            "marblesSampled": 100,
            "probRed": 0.5,
            "practiceLambda": 5,
            "trialLambda": 21.9,
            "instructedLambda": "dishonest_big",
            "drawnRed": 57,
            "reportedRed": 84,
            "inferredRed": 20,
            "playerTrialScore": -37,
            "oppTrialScore": 0,
            "playerTotalScore": -802,
            "oppTotalScore": 142,
            "waitTime": 5833.0330289940075,
            "responseTime": 1681144858980,
            "catchQuestion": "How many <b class=\"r\">red<\/b> marbles did your opponent report drawing? ",
            "catchKey": -1,
            "catchResponse": -1,
            "catchTime": 1681144566038,
            "trialTime": 0
        },
        {
            "exptPart": "trial",
            "trialNumber": 28,
            "roleCurrent": "receiver",
            "marblesSampled": 100,
            "probRed": 0.5,
            "practiceLambda": 5,
            "trialLambda": 21.9,
            "instructedLambda": "dishonest_big",
            "drawnRed": 11,
            "reportedRed": 31,
            "inferredRed": 70,
            "playerTrialScore": -59,
            "oppTrialScore": 59,
            "playerTotalScore": -861,
            "oppTotalScore": 201,
            "waitTime": 6054.163069417215,
            "responseTime": 1681145010331,
            "catchQuestion": "How many <b class=\"r\">red<\/b> marbles did your opponent report drawing? ",
            "catchKey": -1,
            "catchResponse": -1,
            "catchTime": 1681144566038,
            "trialTime": 0
        },
        {
            "exptPart": "trial",
            "trialNumber": 29,
            "roleCurrent": "receiver",
            "marblesSampled": 100,
            "probRed": 0.5,
            "practiceLambda": 5,
            "trialLambda": 21.9,
            "instructedLambda": "dishonest_big",
            "drawnRed": 33,
            "reportedRed": 53,
            "inferredRed": 50,
            "playerTrialScore": -17,
            "oppTrialScore": 17,
            "playerTotalScore": -878,
            "oppTotalScore": 218,
            "waitTime": 5488.59374510618,
            "responseTime": 1681145022846,
            "catchQuestion": "How many <b class=\"r\">red<\/b> marbles did your opponent report drawing? ",
            "catchKey": -1,
            "catchResponse": -1,
            "catchTime": 1681144566038,
            "trialTime": 0
        },
        {
            "exptPart": "trial",
            "trialNumber": 30,
            "roleCurrent": "receiver",
            "marblesSampled": 100,
            "probRed": 0.5,
            "practiceLambda": 5,
            "trialLambda": 21.9,
            "instructedLambda": "dishonest_big",
            "drawnRed": 70,
            "reportedRed": 91,
            "inferredRed": 9,
            "playerTrialScore": -61,
            "oppTrialScore": 0,
            "playerTotalScore": -939,
            "oppTotalScore": 218,
            "waitTime": 7010.370340134134,
            "responseTime": 1681145036030,
            "catchQuestion": "How many <b class=\"r\">red<\/b> marbles did your opponent report drawing? ",
            "catchKey": -1,
            "catchResponse": -1,
            "catchTime": 1681145036031,
            "trialTime": 0
        },
        {
            "exptPart": "trial",
            "trialNumber": 31,
            "roleCurrent": "receiver",
            "marblesSampled": 100,
            "probRed": 0.5,
            "practiceLambda": 5,
            "trialLambda": 21.9,
            "instructedLambda": "dishonest_big",
            "drawnRed": 12,
            "reportedRed": 39,
            "inferredRed": 30,
            "playerTrialScore": -18,
            "oppTrialScore": 18,
            "playerTotalScore": -957,
            "oppTotalScore": 236,
            "waitTime": 6616.563907203579,
            "responseTime": 1681145062414,
            "catchQuestion": "How many <b class=\"r\">red<\/b> marbles did your opponent report drawing? ",
            "catchKey": 39,
            "catchResponse": 10,
            "catchTime": 1681145062415,
            "trialTime": 0
        },
        {
            "exptPart": "trial",
            "trialNumber": 32,
            "roleCurrent": "receiver",
            "marblesSampled": 100,
            "probRed": 0.5,
            "practiceLambda": 5,
            "trialLambda": 21.9,
            "instructedLambda": "dishonest_big",
            "drawnRed": 44,
            "reportedRed": 64,
            "inferredRed": 30,
            "playerTrialScore": -14,
            "oppTrialScore": 0,
            "playerTotalScore": -971,
            "oppTotalScore": 236,
            "waitTime": 5471.553410515233,
            "responseTime": 1681145084448,
            "catchQuestion": "How many <b class=\"r\">red<\/b> marbles did your opponent report drawing? ",
            "catchKey": -1,
            "catchResponse": -1,
            "catchTime": 1681145062415,
            "trialTime": 0
        },
        {
            "exptPart": "trial",
            "trialNumber": 33,
            "roleCurrent": "receiver",
            "marblesSampled": 100,
            "probRed": 0.5,
            "practiceLambda": 5,
            "trialLambda": 21.9,
            "instructedLambda": "dishonest_big",
            "drawnRed": 57,
            "reportedRed": 78,
            "inferredRed": 22,
            "playerTrialScore": -35,
            "oppTrialScore": 0,
            "playerTotalScore": -1006,
            "oppTotalScore": 236,
            "waitTime": 5417.6020650240725,
            "responseTime": 1681145099781,
            "catchQuestion": "How many <b class=\"r\">red<\/b> marbles did your opponent report drawing? ",
            "catchKey": 78,
            "catchResponse": 78,
            "catchTime": 1681145099781,
            "trialTime": 0
        },
        {
            "exptPart": "trial",
            "trialNumber": 34,
            "roleCurrent": "receiver",
            "marblesSampled": 100,
            "probRed": 0.5,
            "practiceLambda": 5,
            "trialLambda": 21.9,
            "instructedLambda": "dishonest_big",
            "drawnRed": 51,
            "reportedRed": 71,
            "inferredRed": 20,
            "playerTrialScore": -31,
            "oppTrialScore": 0,
            "playerTotalScore": -1037,
            "oppTotalScore": 236,
            "waitTime": 6689.571231321776,
            "responseTime": 1681145134564,
            "catchQuestion": "How many <b class=\"r\">red<\/b> marbles did your opponent report drawing? ",
            "catchKey": -1,
            "catchResponse": -1,
            "catchTime": 1681145099781,
            "trialTime": 0
        },
        {
            "exptPart": "trial",
            "trialNumber": 35,
            "roleCurrent": "receiver",
            "marblesSampled": 100,
            "probRed": 0.5,
            "practiceLambda": 5,
            "trialLambda": 21.9,
            "instructedLambda": "dishonest_big",
            "drawnRed": 31,
            "reportedRed": 55,
            "inferredRed": 45,
            "playerTrialScore": -14,
            "oppTrialScore": 14,
            "playerTotalScore": -1051,
            "oppTotalScore": 250,
            "waitTime": 6220.503012831137,
            "responseTime": 1681145151081,
            "catchQuestion": "How many <b class=\"r\">red<\/b> marbles did your opponent report drawing? ",
            "catchKey": 55,
            "catchResponse": 55,
            "catchTime": 1681145151081,
            "trialTime": 0
        },
        {
            "exptPart": "trial",
            "trialNumber": 36,
            "roleCurrent": "receiver",
            "marblesSampled": 100,
            "probRed": 0.5,
            "practiceLambda": 5,
            "trialLambda": 21.9,
            "instructedLambda": "dishonest_big",
            "drawnRed": 28,
            "reportedRed": 51,
            "inferredRed": 33,
            "playerTrialScore": -5,
            "oppTrialScore": 5,
            "playerTotalScore": -1056,
            "oppTotalScore": 255,
            "waitTime": 5804.25510032825,
            "responseTime": 1681145207048,
            "catchQuestion": "How many <b class=\"r\">red<\/b> marbles did your opponent report drawing? ",
            "catchKey": 51,
            "catchResponse": 47,
            "catchTime": 1681145207048,
            "trialTime": 0
        },
        {
            "exptPart": "trial",
            "trialNumber": 37,
            "roleCurrent": "receiver",
            "marblesSampled": 100,
            "probRed": 0.5,
            "practiceLambda": 5,
            "trialLambda": 21.9,
            "instructedLambda": "dishonest_big",
            "drawnRed": 49,
            "reportedRed": 68,
            "inferredRed": 34,
            "playerTrialScore": -15,
            "oppTrialScore": 0,
            "playerTotalScore": -1071,
            "oppTotalScore": 255,
            "waitTime": 7421.245613822539,
            "responseTime": 1681145240148,
            "catchQuestion": "How many <b class=\"r\">red<\/b> marbles did your opponent report drawing? ",
            "catchKey": -1,
            "catchResponse": -1,
            "catchTime": 1681145207048,
            "trialTime": 0
        },
        {
            "exptPart": "trial",
            "trialNumber": 38,
            "roleCurrent": "receiver",
            "marblesSampled": 100,
            "probRed": 0.5,
            "practiceLambda": 5,
            "trialLambda": 21.9,
            "instructedLambda": "dishonest_big",
            "drawnRed": 83,
            "reportedRed": 100,
            "inferredRed": 0,
            "playerTrialScore": -83,
            "oppTrialScore": 0,
            "playerTotalScore": -1154,
            "oppTotalScore": 255,
            "waitTime": 6849.558084742939,
            "responseTime": 1681145309699,
            "catchQuestion": "How many <b class=\"r\">red<\/b> marbles did your opponent report drawing? ",
            "catchKey": -1,
            "catchResponse": -1,
            "catchTime": 1681145207048,
            "trialTime": 0
        },
        {
            "exptPart": "trial",
            "trialNumber": 39,
            "roleCurrent": "receiver",
            "marblesSampled": 100,
            "probRed": 0.5,
            "practiceLambda": 5,
            "trialLambda": 21.9,
            "instructedLambda": "dishonest_big",
            "drawnRed": 71,
            "reportedRed": 91,
            "inferredRed": 9,
            "playerTrialScore": -62,
            "oppTrialScore": 0,
            "playerTotalScore": -1216,
            "oppTotalScore": 255,
            "waitTime": 5456.072025718435,
            "responseTime": 1681145321581,
            "catchQuestion": "How many <b class=\"r\">red<\/b> marbles did your opponent report drawing? ",
            "catchKey": -1,
            "catchResponse": -1,
            "catchTime": 1681145207048,
            "trialTime": 0
        },
        {
            "exptPart": "trial",
            "trialNumber": 40,
            "roleCurrent": "receiver",
            "marblesSampled": 100,
            "probRed": 0.5,
            "practiceLambda": 5,
            "trialLambda": 21.9,
            "instructedLambda": "dishonest_big",
            "drawnRed": 20,
            "reportedRed": 42,
            "inferredRed": 58,
            "playerTrialScore": -38,
            "oppTrialScore": 38,
            "playerTotalScore": -1254,
            "oppTotalScore": 293,
            "waitTime": 5394.9108450333915,
            "responseTime": 1681145371216,
            "catchQuestion": "How many <b class=\"r\">red<\/b> marbles did your opponent report drawing? ",
            "catchKey": -1,
            "catchResponse": -1,
            "catchTime": 1681145371217,
            "trialTime": 0
        },
        {
            "exptPart": "trial",
            "trialNumber": 41,
            "roleCurrent": "receiver",
            "marblesSampled": 100,
            "probRed": 0.5,
            "practiceLambda": 5,
            "trialLambda": 21.9,
            "instructedLambda": "dishonest_big",
            "drawnRed": 55,
            "reportedRed": 72,
            "inferredRed": 10,
            "playerTrialScore": -45,
            "oppTrialScore": 0,
            "playerTotalScore": -1299,
            "oppTotalScore": 293,
            "waitTime": 5926.034082111046,
            "responseTime": 1681145386049,
            "catchQuestion": "How many <b class=\"r\">red<\/b> marbles did your opponent report drawing? ",
            "catchKey": -1,
            "catchResponse": -1,
            "catchTime": 1681145371217,
            "trialTime": 0
        },
        {
            "exptPart": "trial",
            "trialNumber": 42,
            "roleCurrent": "receiver",
            "marblesSampled": 100,
            "probRed": 0.5,
            "practiceLambda": 5,
            "trialLambda": 21.9,
            "instructedLambda": "dishonest_big",
            "drawnRed": 58,
            "reportedRed": 79,
            "inferredRed": 12,
            "playerTrialScore": -46,
            "oppTrialScore": 0,
            "playerTotalScore": -1345,
            "oppTotalScore": 293,
            "waitTime": 5383.355383788843,
            "responseTime": 1681145423417,
            "catchQuestion": "How many <b class=\"r\">red<\/b> marbles did your opponent report drawing? ",
            "catchKey": -1,
            "catchResponse": -1,
            "catchTime": 1681145371217,
            "trialTime": 0
        },
        {
            "exptPart": "trial",
            "trialNumber": 43,
            "roleCurrent": "receiver",
            "marblesSampled": 100,
            "probRed": 0.5,
            "practiceLambda": 5,
            "trialLambda": 21.9,
            "instructedLambda": "dishonest_big",
            "drawnRed": 62,
            "reportedRed": 89,
            "inferredRed": 11,
            "playerTrialScore": -51,
            "oppTrialScore": 0,
            "playerTotalScore": -1396,
            "oppTotalScore": 293,
            "waitTime": 6384.076129896798,
            "responseTime": 1681145454466,
            "catchQuestion": "How many <b class=\"r\">red<\/b> marbles did your opponent report drawing? ",
            "catchKey": -1,
            "catchResponse": -1,
            "catchTime": 1681145371217,
            "trialTime": 0
        },
        {
            "exptPart": "trial",
            "trialNumber": 44,
            "roleCurrent": "receiver",
            "marblesSampled": 100,
            "probRed": 0.5,
            "practiceLambda": 5,
            "trialLambda": 21.9,
            "instructedLambda": "dishonest_big",
            "drawnRed": 39,
            "reportedRed": 62,
            "inferredRed": 12,
            "playerTrialScore": -27,
            "oppTrialScore": 0,
            "playerTotalScore": -1423,
            "oppTotalScore": 293,
            "waitTime": 5324.430283064319,
            "responseTime": 1681145477632,
            "catchQuestion": "How many <b class=\"r\">red<\/b> marbles did your opponent report drawing? ",
            "catchKey": 62,
            "catchResponse": 15,
            "catchTime": 1681145477632,
            "trialTime": 0
        },
        {
            "exptPart": "trial",
            "trialNumber": 45,
            "roleCurrent": "receiver",
            "marblesSampled": 100,
            "probRed": 0.5,
            "practiceLambda": 5,
            "trialLambda": 21.9,
            "instructedLambda": "dishonest_big",
            "drawnRed": 51,
            "reportedRed": 70,
            "inferredRed": 30,
            "playerTrialScore": -21,
            "oppTrialScore": 0,
            "playerTotalScore": -1444,
            "oppTotalScore": 293,
            "waitTime": 7011.915685209184,
            "responseTime": 1681145510198,
            "catchQuestion": "How many <b class=\"r\">red<\/b> marbles did your opponent report drawing? ",
            "catchKey": -1,
            "catchResponse": -1,
            "catchTime": 1681145477632,
            "trialTime": 0
        },
        {
            "exptPart": "trial",
            "trialNumber": 46,
            "roleCurrent": "receiver",
            "marblesSampled": 100,
            "probRed": 0.5,
            "practiceLambda": 5,
            "trialLambda": 21.9,
            "instructedLambda": "dishonest_big",
            "drawnRed": 35,
            "reportedRed": 64,
            "inferredRed": 15,
            "playerTrialScore": -20,
            "oppTrialScore": 0,
            "playerTotalScore": -1464,
            "oppTotalScore": 293,
            "waitTime": 5499.83742164984,
            "responseTime": 1681145592383,
            "catchQuestion": "How many <b class=\"r\">red<\/b> marbles did your opponent report drawing? ",
            "catchKey": -1,
            "catchResponse": -1,
            "catchTime": 1681145477632,
            "trialTime": 0
        },
        {
            "exptPart": "trial",
            "trialNumber": 47,
            "roleCurrent": "receiver",
            "marblesSampled": 100,
            "probRed": 0.5,
            "practiceLambda": 5,
            "trialLambda": 21.9,
            "instructedLambda": "dishonest_big",
            "drawnRed": 20,
            "reportedRed": 38,
            "inferredRed": 23,
            "playerTrialScore": -3,
            "oppTrialScore": 3,
            "playerTotalScore": -1467,
            "oppTotalScore": 296,
            "waitTime": 6465.077772342657,
            "responseTime": 1681145620250,
            "catchQuestion": "How many <b class=\"r\">red<\/b> marbles did your opponent report drawing? ",
            "catchKey": -1,
            "catchResponse": -1,
            "catchTime": 1681145477632,
            "trialTime": 0
        },
        {
            "exptPart": "trial",
            "trialNumber": 48,
            "roleCurrent": "receiver",
            "marblesSampled": 100,
            "probRed": 0.5,
            "practiceLambda": 5,
            "trialLambda": 21.9,
            "instructedLambda": "dishonest_big",
            "drawnRed": 59,
            "reportedRed": 78,
            "inferredRed": 13,
            "playerTrialScore": -46,
            "oppTrialScore": 0,
            "playerTotalScore": -1513,
            "oppTotalScore": 296,
            "waitTime": 6802.996010182787,
            "responseTime": 1681145631815,
            "catchQuestion": "How many <b class=\"r\">red<\/b> marbles did your opponent report drawing? ",
            "catchKey": -1,
            "catchResponse": -1,
            "catchTime": 1681145477632,
            "trialTime": 0
        },
        {
            "exptPart": "trial",
            "trialNumber": 49,
            "roleCurrent": "receiver",
            "marblesSampled": 100,
            "probRed": 0.5,
            "practiceLambda": 5,
            "trialLambda": 21.9,
            "instructedLambda": "dishonest_big",
            "drawnRed": 29,
            "reportedRed": 54,
            "inferredRed": 25,
            "playerTrialScore": -4,
            "oppTrialScore": 0,
            "playerTotalScore": -1517,
            "oppTotalScore": 296,
            "waitTime": 5921.440080671808,
            "responseTime": 1681145646699,
            "catchQuestion": "How many <b class=\"r\">red<\/b> marbles did your opponent report drawing? ",
            "catchKey": -1,
            "catchResponse": -1,
            "catchTime": 1681145477632,
            "trialTime": 0
        },
        {
            "exptPart": "trial",
            "trialNumber": 50,
            "roleCurrent": "receiver",
            "marblesSampled": 100,
            "probRed": 0.5,
            "practiceLambda": 5,
            "trialLambda": 21.9,
            "instructedLambda": "dishonest_big",
            "drawnRed": 55,
            "reportedRed": 82,
            "inferredRed": 15,
            "playerTrialScore": -40,
            "oppTrialScore": 0,
            "playerTotalScore": -1557,
            "oppTotalScore": 296,
            "waitTime": 5302.776961645255,
            "responseTime": 1681145657133,
            "catchQuestion": "How many <b class=\"r\">red<\/b> marbles did your opponent report drawing? ",
            "catchKey": -1,
            "catchResponse": -1,
            "catchTime": 1681145657134,
            "trialTime": 0
        },
        {
            "exptPart": "trial",
            "trialNumber": 51,
            "roleCurrent": "receiver",
            "marblesSampled": 100,
            "probRed": 0.5,
            "practiceLambda": 5,
            "trialLambda": 21.9,
            "instructedLambda": "dishonest_big",
            "drawnRed": 23,
            "reportedRed": 43,
            "inferredRed": 3,
            "playerTrialScore": -20,
            "oppTrialScore": 0,
            "playerTotalScore": -1577,
            "oppTotalScore": 296,
            "waitTime": 6744.890009631674,
            "responseTime": 1681145676401,
            "catchQuestion": "How many <b class=\"r\">red<\/b> marbles did your opponent report drawing? ",
            "catchKey": -1,
            "catchResponse": -1,
            "catchTime": 1681145657134,
            "trialTime": 0
        },
        {
            "exptPart": "trial",
            "trialNumber": 52,
            "roleCurrent": "receiver",
            "marblesSampled": 100,
            "probRed": 0.5,
            "practiceLambda": 5,
            "trialLambda": 21.9,
            "instructedLambda": "dishonest_big",
            "drawnRed": 63,
            "reportedRed": 85,
            "inferredRed": 12,
            "playerTrialScore": -51,
            "oppTrialScore": 0,
            "playerTotalScore": -1628,
            "oppTotalScore": 296,
            "waitTime": 5144.624386508858,
            "responseTime": 1681145689666,
            "catchQuestion": "How many <b class=\"r\">red<\/b> marbles did your opponent report drawing? ",
            "catchKey": -1,
            "catchResponse": -1,
            "catchTime": 1681145657134,
            "trialTime": 0
        },
        {
            "exptPart": "trial",
            "trialNumber": 53,
            "roleCurrent": "receiver",
            "marblesSampled": 100,
            "probRed": 0.5,
            "practiceLambda": 5,
            "trialLambda": 21.9,
            "instructedLambda": "dishonest_big",
            "drawnRed": 43,
            "reportedRed": 67,
            "inferredRed": 13,
            "playerTrialScore": -30,
            "oppTrialScore": 0,
            "playerTotalScore": -1658,
            "oppTotalScore": 296,
            "waitTime": 5744.24687703553,
            "responseTime": 1681145715500,
            "catchQuestion": "How many <b class=\"r\">red<\/b> marbles did your opponent report drawing? ",
            "catchKey": -1,
            "catchResponse": -1,
            "catchTime": 1681145657134,
            "trialTime": 0
        },
        {
            "exptPart": "trial",
            "trialNumber": 54,
            "roleCurrent": "receiver",
            "marblesSampled": 100,
            "probRed": 0.5,
            "practiceLambda": 5,
            "trialLambda": 21.9,
            "instructedLambda": "dishonest_big",
            "drawnRed": 25,
            "reportedRed": 43,
            "inferredRed": 13,
            "playerTrialScore": -12,
            "oppTrialScore": 0,
            "playerTotalScore": -1670,
            "oppTotalScore": 296,
            "waitTime": 6299.739094874533,
            "responseTime": 1681145731933,
            "catchQuestion": "How many <b class=\"r\">red<\/b> marbles did your opponent report drawing? ",
            "catchKey": -1,
            "catchResponse": -1,
            "catchTime": 1681145657134,
            "trialTime": 0
        },
        {
            "exptPart": "trial",
            "trialNumber": 55,
            "roleCurrent": "receiver",
            "marblesSampled": 100,
            "probRed": 0.5,
            "practiceLambda": 5,
            "trialLambda": 21.9,
            "instructedLambda": "dishonest_big",
            "drawnRed": 71,
            "reportedRed": 100,
            "inferredRed": 0,
            "playerTrialScore": -71,
            "oppTrialScore": 0,
            "playerTotalScore": -1741,
            "oppTotalScore": 296,
            "waitTime": 5969.346842277504,
            "responseTime": 1681145742749,
            "catchQuestion": "How many <b class=\"r\">red<\/b> marbles did your opponent report drawing? ",
            "catchKey": -1,
            "catchResponse": -1,
            "catchTime": 1681145657134,
            "trialTime": 0
        },
        {
            "exptPart": "trial",
            "trialNumber": 56,
            "roleCurrent": "receiver",
            "marblesSampled": 100,
            "probRed": 0.5,
            "practiceLambda": 5,
            "trialLambda": 21.9,
            "instructedLambda": "dishonest_big",
            "drawnRed": 34,
            "reportedRed": 59,
            "inferredRed": 33,
            "playerTrialScore": -1,
            "oppTrialScore": 0,
            "playerTotalScore": -1742,
            "oppTotalScore": 296,
            "waitTime": 5780.996793344961,
            "responseTime": 1681145760316,
            "catchQuestion": "How many <b class=\"r\">red<\/b> marbles did your opponent report drawing? ",
            "catchKey": -1,
            "catchResponse": -1,
            "catchTime": 1681145657134,
            "trialTime": 0
        },
        {
            "exptPart": "trial",
            "trialNumber": 57,
            "roleCurrent": "receiver",
            "marblesSampled": 100,
            "probRed": 0.5,
            "practiceLambda": 5,
            "trialLambda": 21.9,
            "instructedLambda": "dishonest_big",
            "drawnRed": 50,
            "reportedRed": 76,
            "inferredRed": 23,
            "playerTrialScore": -27,
            "oppTrialScore": 0,
            "playerTotalScore": -1769,
            "oppTotalScore": 296,
            "waitTime": 5215.969591845216,
            "responseTime": 1681145774583,
            "catchQuestion": "How many <b class=\"r\">red<\/b> marbles did your opponent report drawing? ",
            "catchKey": -1,
            "catchResponse": -1,
            "catchTime": 1681145657134,
            "trialTime": 0
        },
        {
            "exptPart": "trial",
            "trialNumber": 58,
            "roleCurrent": "receiver",
            "marblesSampled": 100,
            "probRed": 0.5,
            "practiceLambda": 5,
            "trialLambda": 21.9,
            "instructedLambda": "dishonest_big",
            "drawnRed": 42,
            "reportedRed": 63,
            "inferredRed": 27,
            "playerTrialScore": -15,
            "oppTrialScore": 0,
            "playerTotalScore": -1784,
            "oppTotalScore": 296,
            "waitTime": 5529.411920809869,
            "responseTime": 1681145794733,
            "catchQuestion": "How many <b class=\"r\">red<\/b> marbles did your opponent report drawing? ",
            "catchKey": -1,
            "catchResponse": -1,
            "catchTime": 1681145657134,
            "trialTime": 0
        },
        {
            "exptPart": "trial",
            "trialNumber": 59,
            "roleCurrent": "receiver",
            "marblesSampled": 100,
            "probRed": 0.5,
            "practiceLambda": 5,
            "trialLambda": 21.9,
            "instructedLambda": "dishonest_big",
            "drawnRed": 22,
            "reportedRed": 50,
            "inferredRed": 50,
            "playerTrialScore": -28,
            "oppTrialScore": 28,
            "playerTotalScore": -1812,
            "oppTotalScore": 324,
            "waitTime": 5656.377690862271,
            "responseTime": 1681145809083,
            "catchQuestion": "How many <b class=\"r\">red<\/b> marbles did your opponent report drawing? ",
            "catchKey": 50,
            "catchResponse": 33,
            "catchTime": 1681145809083,
            "trialTime": 0
        },
        {
            "exptPart": "trial",
            "trialNumber": 60,
            "roleCurrent": "receiver",
            "marblesSampled": 100,
            "probRed": 0.5,
            "practiceLambda": 5,
            "trialLambda": 21.9,
            "instructedLambda": "dishonest_big",
            "drawnRed": 92,
            "reportedRed": 100,
            "inferredRed": 0,
            "playerTrialScore": -92,
            "oppTrialScore": 0,
            "playerTotalScore": -1904,
            "oppTotalScore": 324,
            "waitTime": 6813.956862941702,
            "responseTime": 1681145887367,
            "catchQuestion": "How many <b class=\"r\">red<\/b> marbles did your opponent report drawing? ",
            "catchKey": -1,
            "catchResponse": -1,
            "catchTime": 1681145887367,
            "trialTime": 0
        },
        {
            "exptPart": "trial",
            "trialNumber": 61,
            "roleCurrent": "receiver",
            "marblesSampled": 100,
            "probRed": 0.5,
            "practiceLambda": 5,
            "trialLambda": 21.9,
            "instructedLambda": "dishonest_big",
            "drawnRed": 48,
            "reportedRed": 73,
            "inferredRed": 31,
            "playerTrialScore": -17,
            "oppTrialScore": 0,
            "playerTotalScore": -1921,
            "oppTotalScore": 324,
            "waitTime": 6613.046542736411,
            "responseTime": 1681145919117,
            "catchQuestion": "How many <b class=\"r\">red<\/b> marbles did your opponent report drawing? ",
            "catchKey": -1,
            "catchResponse": -1,
            "catchTime": 1681145887367,
            "trialTime": 0
        },
        {
            "exptPart": "trial",
            "trialNumber": 62,
            "roleCurrent": "receiver",
            "marblesSampled": 100,
            "probRed": 0.5,
            "practiceLambda": 5,
            "trialLambda": 21.9,
            "instructedLambda": "dishonest_big",
            "drawnRed": 44,
            "reportedRed": 77,
            "inferredRed": 21,
            "playerTrialScore": -23,
            "oppTrialScore": 0,
            "playerTotalScore": -1944,
            "oppTotalScore": 324,
            "waitTime": 6323.25129908057,
            "responseTime": 1681146021884,
            "catchQuestion": "How many <b class=\"r\">red<\/b> marbles did your opponent report drawing? ",
            "catchKey": -1,
            "catchResponse": -1,
            "catchTime": 1681145887367,
            "trialTime": 0
        },
        {
            "exptPart": "trial",
            "trialNumber": 63,
            "roleCurrent": "receiver",
            "marblesSampled": 100,
            "probRed": 0.5,
            "practiceLambda": 5,
            "trialLambda": 21.9,
            "instructedLambda": "dishonest_big",
            "drawnRed": 56,
            "reportedRed": 74,
            "inferredRed": 20,
            "playerTrialScore": -36,
            "oppTrialScore": 0,
            "playerTotalScore": -1980,
            "oppTotalScore": 324,
            "waitTime": 5170.991787178193,
            "responseTime": 1681146077334,
            "catchQuestion": "How many <b class=\"r\">red<\/b> marbles did your opponent report drawing? ",
            "catchKey": -1,
            "catchResponse": -1,
            "catchTime": 1681145887367,
            "trialTime": 0
        },
        {
            "exptPart": "trial",
            "trialNumber": 64,
            "roleCurrent": "receiver",
            "marblesSampled": 100,
            "probRed": 0.5,
            "practiceLambda": 5,
            "trialLambda": 21.9,
            "instructedLambda": "dishonest_big",
            "drawnRed": 34,
            "reportedRed": 55,
            "inferredRed": 30,
            "playerTrialScore": -4,
            "oppTrialScore": 0,
            "playerTotalScore": -1984,
            "oppTotalScore": 324,
            "waitTime": 5495.80690073259,
            "responseTime": 1681146129268,
            "catchQuestion": "How many <b class=\"r\">red<\/b> marbles did your opponent report drawing? ",
            "catchKey": -1,
            "catchResponse": -1,
            "catchTime": 1681145887367,
            "trialTime": 0
        },
        {
            "exptPart": "trial",
            "trialNumber": 65,
            "roleCurrent": "receiver",
            "marblesSampled": 100,
            "probRed": 0.5,
            "practiceLambda": 5,
            "trialLambda": 21.9,
            "instructedLambda": "dishonest_big",
            "drawnRed": 33,
            "reportedRed": 59,
            "inferredRed": 12,
            "playerTrialScore": -21,
            "oppTrialScore": 0,
            "playerTotalScore": -2005,
            "oppTotalScore": 324,
            "waitTime": 7128.867512640934,
            "responseTime": 1681146141101,
            "catchQuestion": "How many <b class=\"r\">red<\/b> marbles did your opponent report drawing? ",
            "catchKey": -1,
            "catchResponse": -1,
            "catchTime": 1681145887367,
            "trialTime": 0
        },
        {
            "exptPart": "trial",
            "trialNumber": 66,
            "roleCurrent": "receiver",
            "marblesSampled": 100,
            "probRed": 0.5,
            "practiceLambda": 5,
            "trialLambda": 21.9,
            "instructedLambda": "dishonest_big",
            "drawnRed": 68,
            "reportedRed": 92,
            "inferredRed": 8,
            "playerTrialScore": -60,
            "oppTrialScore": 0,
            "playerTotalScore": -2065,
            "oppTotalScore": 324,
            "waitTime": 6279.291121891179,
            "responseTime": 1681146156834,
            "catchQuestion": "How many <b class=\"r\">red<\/b> marbles did your opponent report drawing? ",
            "catchKey": -1,
            "catchResponse": -1,
            "catchTime": 1681145887367,
            "trialTime": 0
        },
        {
            "exptPart": "trial",
            "trialNumber": 67,
            "roleCurrent": "receiver",
            "marblesSampled": 100,
            "probRed": 0.5,
            "practiceLambda": 5,
            "trialLambda": 21.9,
            "instructedLambda": "dishonest_big",
            "drawnRed": 49,
            "reportedRed": 70,
            "inferredRed": 20,
            "playerTrialScore": -29,
            "oppTrialScore": 0,
            "playerTotalScore": -2094,
            "oppTotalScore": 324,
            "waitTime": 5253.860624504315,
            "responseTime": 1681146173035,
            "catchQuestion": "How many <b class=\"r\">red<\/b> marbles did your opponent report drawing? ",
            "catchKey": -1,
            "catchResponse": -1,
            "catchTime": 1681145887367,
            "trialTime": 0
        },
        {
            "exptPart": "trial",
            "trialNumber": 68,
            "roleCurrent": "receiver",
            "marblesSampled": 100,
            "probRed": 0.5,
            "practiceLambda": 5,
            "trialLambda": 21.9,
            "instructedLambda": "dishonest_big",
            "drawnRed": 30,
            "reportedRed": 49,
            "inferredRed": 12,
            "playerTrialScore": -18,
            "oppTrialScore": 0,
            "playerTotalScore": -2112,
            "oppTotalScore": 324,
            "waitTime": 5969.333549208119,
            "responseTime": 1681146183633,
            "catchQuestion": "How many <b class=\"r\">red<\/b> marbles did your opponent report drawing? ",
            "catchKey": -1,
            "catchResponse": -1,
            "catchTime": 1681145887367,
            "trialTime": 0
        },
        {
            "exptPart": "trial",
            "trialNumber": 69,
            "roleCurrent": "receiver",
            "marblesSampled": 100,
            "probRed": 0.5,
            "practiceLambda": 5,
            "trialLambda": 21.9,
            "instructedLambda": "dishonest_big",
            "drawnRed": 39,
            "reportedRed": 59,
            "inferredRed": 11,
            "playerTrialScore": -28,
            "oppTrialScore": 0,
            "playerTotalScore": -2140,
            "oppTotalScore": 324,
            "waitTime": 6091.970952243348,
            "responseTime": 1681146194568,
            "catchQuestion": "How many <b class=\"r\">red<\/b> marbles did your opponent report drawing? ",
            "catchKey": -1,
            "catchResponse": -1,
            "catchTime": 1681145887367,
            "trialTime": 0
        },
        {
            "exptPart": "trial",
            "trialNumber": 70,
            "roleCurrent": "receiver",
            "marblesSampled": 100,
            "probRed": 0.5,
            "practiceLambda": 5,
            "trialLambda": 21.9,
            "instructedLambda": "dishonest_big",
            "drawnRed": 50,
            "reportedRed": 71,
            "inferredRed": 19,
            "playerTrialScore": -31,
            "oppTrialScore": 0,
            "playerTotalScore": -2171,
            "oppTotalScore": 324,
            "waitTime": 6908.220919973381,
            "responseTime": 1681146216734,
            "catchQuestion": "How many <b class=\"r\">red<\/b> marbles did your opponent report drawing? ",
            "catchKey": -1,
            "catchResponse": -1,
            "catchTime": 1681146216735,
            "trialTime": 0
        },
        {
            "exptPart": "trial",
            "trialNumber": 71,
            "roleCurrent": "receiver",
            "marblesSampled": 100,
            "probRed": 0.5,
            "practiceLambda": 5,
            "trialLambda": 21.9,
            "instructedLambda": "dishonest_big",
            "drawnRed": 59,
            "reportedRed": 85,
            "inferredRed": 5,
            "playerTrialScore": -54,
            "oppTrialScore": 0,
            "playerTotalScore": -2225,
            "oppTotalScore": 324,
            "waitTime": 6734.719685143618,
            "responseTime": 1681146255269,
            "catchQuestion": "How many <b class=\"r\">red<\/b> marbles did your opponent report drawing? ",
            "catchKey": -1,
            "catchResponse": -1,
            "catchTime": 1681146216735,
            "trialTime": 0
        },
        {
            "exptPart": "trial",
            "trialNumber": 72,
            "roleCurrent": "receiver",
            "marblesSampled": 100,
            "probRed": 0.5,
            "practiceLambda": 5,
            "trialLambda": 21.9,
            "instructedLambda": "dishonest_big",
            "drawnRed": 43,
            "reportedRed": 67,
            "inferredRed": 12,
            "playerTrialScore": -31,
            "oppTrialScore": 0,
            "playerTotalScore": -2256,
            "oppTotalScore": 324,
            "waitTime": 5388.755797150412,
            "responseTime": 1681146276335,
            "catchQuestion": "How many <b class=\"r\">red<\/b> marbles did your opponent report drawing? ",
            "catchKey": -1,
            "catchResponse": -1,
            "catchTime": 1681146216735,
            "trialTime": 0
        },
        {
            "exptPart": "trial",
            "trialNumber": 73,
            "roleCurrent": "receiver",
            "marblesSampled": 100,
            "probRed": 0.5,
            "practiceLambda": 5,
            "trialLambda": 21.9,
            "instructedLambda": "dishonest_big",
            "drawnRed": 49,
            "reportedRed": 71,
            "inferredRed": 12,
            "playerTrialScore": -37,
            "oppTrialScore": 0,
            "playerTotalScore": -2293,
            "oppTotalScore": 324,
            "waitTime": 5607.415764789274,
            "responseTime": 1681146288959,
            "catchQuestion": "How many <b class=\"r\">red<\/b> marbles did your opponent report drawing? ",
            "catchKey": -1,
            "catchResponse": -1,
            "catchTime": 1681146216735,
            "trialTime": 0
        },
        {
            "exptPart": "trial",
            "trialNumber": 74,
            "roleCurrent": "receiver",
            "marblesSampled": 100,
            "probRed": 0.5,
            "practiceLambda": 5,
            "trialLambda": 21.9,
            "instructedLambda": "dishonest_big",
            "drawnRed": 69,
            "reportedRed": 89,
            "inferredRed": 11,
            "playerTrialScore": -58,
            "oppTrialScore": 0,
            "playerTotalScore": -2351,
            "oppTotalScore": 324,
            "waitTime": 5946.415652493928,
            "responseTime": 1681146298651,
            "catchQuestion": "How many <b class=\"r\">red<\/b> marbles did your opponent report drawing? ",
            "catchKey": -1,
            "catchResponse": -1,
            "catchTime": 1681146216735,
            "trialTime": 0
        },
        {
            "exptPart": "trial",
            "trialNumber": 75,
            "roleCurrent": "receiver",
            "marblesSampled": 100,
            "probRed": 0.5,
            "practiceLambda": 5,
            "trialLambda": 21.9,
            "instructedLambda": "dishonest_big",
            "drawnRed": 32,
            "reportedRed": 59,
            "inferredRed": 2,
            "playerTrialScore": -30,
            "oppTrialScore": 0,
            "playerTotalScore": -2381,
            "oppTotalScore": 324,
            "waitTime": 6315.890235235181,
            "responseTime": 1681146317485,
            "catchQuestion": "How many <b class=\"r\">red<\/b> marbles did your opponent report drawing? ",
            "catchKey": -1,
            "catchResponse": -1,
            "catchTime": 1681146216735,
            "trialTime": 0
        },
        {
            "exptPart": "trial",
            "trialNumber": 76,
            "roleCurrent": "receiver",
            "marblesSampled": 100,
            "probRed": 0.5,
            "practiceLambda": 5,
            "trialLambda": 21.9,
            "instructedLambda": "dishonest_big",
            "drawnRed": 31,
            "reportedRed": 55,
            "inferredRed": 22,
            "playerTrialScore": -9,
            "oppTrialScore": 0,
            "playerTotalScore": -2390,
            "oppTotalScore": 324,
            "waitTime": 7107.6619448342435,
            "responseTime": 1681146329201,
            "catchQuestion": "How many <b class=\"r\">red<\/b> marbles did your opponent report drawing? ",
            "catchKey": -1,
            "catchResponse": -1,
            "catchTime": 1681146216735,
            "trialTime": 0
        },
        {
            "exptPart": "trial",
            "trialNumber": 77,
            "roleCurrent": "receiver",
            "marblesSampled": 100,
            "probRed": 0.5,
            "practiceLambda": 5,
            "trialLambda": 21.9,
            "instructedLambda": "dishonest_big",
            "drawnRed": 38,
            "reportedRed": 67,
            "inferredRed": 12,
            "playerTrialScore": -26,
            "oppTrialScore": 0,
            "playerTotalScore": -2416,
            "oppTotalScore": 324,
            "waitTime": 5730.512528734314,
            "responseTime": 1681146339051,
            "catchQuestion": "How many <b class=\"r\">red<\/b> marbles did your opponent report drawing? ",
            "catchKey": -1,
            "catchResponse": -1,
            "catchTime": 1681146216735,
            "trialTime": 0
        },
        {
            "exptPart": "trial",
            "trialNumber": 78,
            "roleCurrent": "receiver",
            "marblesSampled": 100,
            "probRed": 0.5,
            "practiceLambda": 5,
            "trialLambda": 21.9,
            "instructedLambda": "dishonest_big",
            "drawnRed": 71,
            "reportedRed": 90,
            "inferredRed": 10,
            "playerTrialScore": -61,
            "oppTrialScore": 0,
            "playerTotalScore": -2477,
            "oppTotalScore": 324,
            "waitTime": 6688.653479750363,
            "responseTime": 1681146362767,
            "catchQuestion": "How many <b class=\"r\">red<\/b> marbles did your opponent report drawing? ",
            "catchKey": -1,
            "catchResponse": -1,
            "catchTime": 1681146216735,
            "trialTime": 0
        },
        {
            "exptPart": "trial",
            "trialNumber": 79,
            "roleCurrent": "receiver",
            "marblesSampled": 100,
            "probRed": 0.5,
            "practiceLambda": 5,
            "trialLambda": 21.9,
            "instructedLambda": "dishonest_big",
            "drawnRed": 53,
            "reportedRed": 81,
            "inferredRed": 12,
            "playerTrialScore": -41,
            "oppTrialScore": 0,
            "playerTotalScore": -2518,
            "oppTotalScore": 324,
            "waitTime": 5341.05023251883,
            "responseTime": 1681146439720,
            "catchQuestion": "How many <b class=\"r\">red<\/b> marbles did your opponent report drawing? ",
            "catchKey": -1,
            "catchResponse": -1,
            "catchTime": 1681146216735,
            "trialTime": 0
        },
        {
            "exptPart": "trial",
            "trialNumber": 80,
            "roleCurrent": "receiver",
            "marblesSampled": 100,
            "probRed": 0.5,
            "practiceLambda": 5,
            "trialLambda": 21.9,
            "instructedLambda": "dishonest_big",
            "drawnRed": 73,
            "reportedRed": 94,
            "inferredRed": 6,
            "playerTrialScore": -67,
            "oppTrialScore": 0,
            "playerTotalScore": -2585,
            "oppTotalScore": 324,
            "waitTime": 6399.992006352413,
            "responseTime": 1681146449602,
            "catchQuestion": "How many <b class=\"r\">red<\/b> marbles did your opponent report drawing? ",
            "catchKey": -1,
            "catchResponse": -1,
            "catchTime": 1681146449602,
            "trialTime": 0
        },
        {
            "exptPart": "trial",
            "trialNumber": 81,
            "roleCurrent": "receiver",
            "marblesSampled": 100,
            "probRed": 0.5,
            "practiceLambda": 5,
            "trialLambda": 21.9,
            "instructedLambda": "dishonest_big",
            "drawnRed": 34,
            "reportedRed": 55,
            "inferredRed": 12,
            "playerTrialScore": -22,
            "oppTrialScore": 0,
            "playerTotalScore": -2607,
            "oppTotalScore": 324,
            "waitTime": 5291.197396166062,
            "responseTime": 1681146477635,
            "catchQuestion": "How many <b class=\"r\">red<\/b> marbles did your opponent report drawing? ",
            "catchKey": -1,
            "catchResponse": -1,
            "catchTime": 1681146449602,
            "trialTime": 0
        },
        {
            "exptPart": "trial",
            "trialNumber": 82,
            "roleCurrent": "receiver",
            "marblesSampled": 100,
            "probRed": 0.5,
            "practiceLambda": 5,
            "trialLambda": 21.9,
            "instructedLambda": "dishonest_big",
            "drawnRed": 26,
            "reportedRed": 48,
            "inferredRed": 12,
            "playerTrialScore": -14,
            "oppTrialScore": 0,
            "playerTotalScore": -2621,
            "oppTotalScore": 324,
            "waitTime": 5356.74050855886,
            "responseTime": 1681146499119,
            "catchQuestion": "How many <b class=\"r\">red<\/b> marbles did your opponent report drawing? ",
            "catchKey": -1,
            "catchResponse": -1,
            "catchTime": 1681146449602,
            "trialTime": 0
        },
        {
            "exptPart": "trial",
            "trialNumber": 83,
            "roleCurrent": "receiver",
            "marblesSampled": 100,
            "probRed": 0.5,
            "practiceLambda": 5,
            "trialLambda": 21.9,
            "instructedLambda": "dishonest_big",
            "drawnRed": 48,
            "reportedRed": 66,
            "inferredRed": 12,
            "playerTrialScore": -36,
            "oppTrialScore": 0,
            "playerTotalScore": -2657,
            "oppTotalScore": 324,
            "waitTime": 5661.175082602224,
            "responseTime": 1681146508302,
            "catchQuestion": "How many <b class=\"r\">red<\/b> marbles did your opponent report drawing? ",
            "catchKey": -1,
            "catchResponse": -1,
            "catchTime": 1681146449602,
            "trialTime": 0
        },
        {
            "exptPart": "trial",
            "trialNumber": 84,
            "roleCurrent": "receiver",
            "marblesSampled": 100,
            "probRed": 0.5,
            "practiceLambda": 5,
            "trialLambda": 21.9,
            "instructedLambda": "dishonest_big",
            "drawnRed": 78,
            "reportedRed": 97,
            "inferredRed": 2,
            "playerTrialScore": -76,
            "oppTrialScore": 0,
            "playerTotalScore": -2733,
            "oppTotalScore": 324,
            "waitTime": 6763.280511048451,
            "responseTime": 1681146541001,
            "catchQuestion": "How many <b class=\"r\">red<\/b> marbles did your opponent report drawing? ",
            "catchKey": -1,
            "catchResponse": -1,
            "catchTime": 1681146449602,
            "trialTime": 0
        },
        {
            "exptPart": "trial",
            "trialNumber": 85,
            "roleCurrent": "receiver",
            "marblesSampled": 100,
            "probRed": 0.5,
            "practiceLambda": 5,
            "trialLambda": 21.9,
            "instructedLambda": "dishonest_big",
            "drawnRed": 29,
            "reportedRed": 54,
            "inferredRed": 12,
            "playerTrialScore": -17,
            "oppTrialScore": 0,
            "playerTotalScore": -2750,
            "oppTotalScore": 324,
            "waitTime": 5574.299610527338,
            "responseTime": 1681146558435,
            "catchQuestion": "How many <b class=\"r\">red<\/b> marbles did your opponent report drawing? ",
            "catchKey": -1,
            "catchResponse": -1,
            "catchTime": 1681146449602,
            "trialTime": 0
        },
        {
            "exptPart": "trial",
            "trialNumber": 86,
            "roleCurrent": "receiver",
            "marblesSampled": 100,
            "probRed": 0.5,
            "practiceLambda": 5,
            "trialLambda": 21.9,
            "instructedLambda": "dishonest_big",
            "drawnRed": 87,
            "reportedRed": 100,
            "inferredRed": 0,
            "playerTrialScore": -87,
            "oppTrialScore": 0,
            "playerTotalScore": -2837,
            "oppTotalScore": 324,
            "waitTime": 6996.398489234833,
            "responseTime": 1681146594853,
            "catchQuestion": "How many <b class=\"r\">red<\/b> marbles did your opponent report drawing? ",
            "catchKey": -1,
            "catchResponse": -1,
            "catchTime": 1681146449602,
            "trialTime": 0
        },
        {
            "exptPart": "trial",
            "trialNumber": 87,
            "roleCurrent": "receiver",
            "marblesSampled": 100,
            "probRed": 0.5,
            "practiceLambda": 5,
            "trialLambda": 21.9,
            "instructedLambda": "dishonest_big",
            "drawnRed": 76,
            "reportedRed": 100,
            "inferredRed": 0,
            "playerTrialScore": -76,
            "oppTrialScore": 0,
            "playerTotalScore": -2913,
            "oppTotalScore": 324,
            "waitTime": 6244.994667216258,
            "responseTime": 1681146604720,
            "catchQuestion": "How many <b class=\"r\">red<\/b> marbles did your opponent report drawing? ",
            "catchKey": -1,
            "catchResponse": -1,
            "catchTime": 1681146449602,
            "trialTime": 0
        },
        {
            "exptPart": "trial",
            "trialNumber": 88,
            "roleCurrent": "receiver",
            "marblesSampled": 100,
            "probRed": 0.5,
            "practiceLambda": 5,
            "trialLambda": 21.9,
            "instructedLambda": "dishonest_big",
            "drawnRed": 43,
            "reportedRed": 64,
            "inferredRed": 0,
            "playerTrialScore": -43,
            "oppTrialScore": 0,
            "playerTotalScore": -2956,
            "oppTotalScore": 324,
            "waitTime": 6581.216682279044,
            "responseTime": 1681146614869,
            "catchQuestion": "How many <b class=\"r\">red<\/b> marbles did your opponent report drawing? ",
            "catchKey": -1,
            "catchResponse": -1,
            "catchTime": 1681146449602,
            "trialTime": 0
        },
        {
            "exptPart": "trial",
            "trialNumber": 89,
            "roleCurrent": "receiver",
            "marblesSampled": 100,
            "probRed": 0.5,
            "practiceLambda": 5,
            "trialLambda": 21.9,
            "instructedLambda": "dishonest_big",
            "drawnRed": 57,
            "reportedRed": 74,
            "inferredRed": 12,
            "playerTrialScore": -45,
            "oppTrialScore": 0,
            "playerTotalScore": -3001,
            "oppTotalScore": 324,
            "waitTime": 6148.651603673899,
            "responseTime": 1681146624685,
            "catchQuestion": "How many <b class=\"r\">red<\/b> marbles did your opponent report drawing? ",
            "catchKey": -1,
            "catchResponse": -1,
            "catchTime": 1681146449602,
            "trialTime": 0
        },
        {
            "exptPart": "trial",
            "trialNumber": 90,
            "roleCurrent": "receiver",
            "marblesSampled": 100,
            "probRed": 0.5,
            "practiceLambda": 5,
            "trialLambda": 21.9,
            "instructedLambda": "dishonest_big",
            "drawnRed": 29,
            "reportedRed": 49,
            "inferredRed": 11,
            "playerTrialScore": -18,
            "oppTrialScore": 0,
            "playerTotalScore": -3019,
            "oppTotalScore": 324,
            "waitTime": 6466.956865790574,
            "responseTime": 1681146648386,
            "catchQuestion": "How many <b class=\"r\">red<\/b> marbles did your opponent report drawing? ",
            "catchKey": -1,
            "catchResponse": -1,
            "catchTime": 1681146648386,
            "trialTime": 0
        },
        {
            "exptPart": "trial",
            "trialNumber": 91,
            "roleCurrent": "receiver",
            "marblesSampled": 100,
            "probRed": 0.5,
            "practiceLambda": 5,
            "trialLambda": 21.9,
            "instructedLambda": "dishonest_big",
            "drawnRed": 40,
            "reportedRed": 62,
            "inferredRed": 12,
            "playerTrialScore": -28,
            "oppTrialScore": 0,
            "playerTotalScore": -3047,
            "oppTotalScore": 324,
            "waitTime": 7161.654644684597,
            "responseTime": 1681146662335,
            "catchQuestion": "How many <b class=\"r\">red<\/b> marbles did your opponent report drawing? ",
            "catchKey": -1,
            "catchResponse": -1,
            "catchTime": 1681146648386,
            "trialTime": 0
        },
        {
            "exptPart": "trial",
            "trialNumber": 92,
            "roleCurrent": "receiver",
            "marblesSampled": 100,
            "probRed": 0.5,
            "practiceLambda": 5,
            "trialLambda": 21.9,
            "instructedLambda": "dishonest_big",
            "drawnRed": 56,
            "reportedRed": 76,
            "inferredRed": 20,
            "playerTrialScore": -36,
            "oppTrialScore": 0,
            "playerTotalScore": -3083,
            "oppTotalScore": 324,
            "waitTime": 5174.46139051693,
            "responseTime": 1681146671486,
            "catchQuestion": "How many <b class=\"r\">red<\/b> marbles did your opponent report drawing? ",
            "catchKey": -1,
            "catchResponse": -1,
            "catchTime": 1681146648386,
            "trialTime": 0
        },
        {
            "exptPart": "trial",
            "trialNumber": 93,
            "roleCurrent": "receiver",
            "marblesSampled": 100,
            "probRed": 0.5,
            "practiceLambda": 5,
            "trialLambda": 21.9,
            "instructedLambda": "dishonest_big",
            "drawnRed": 31,
            "reportedRed": 60,
            "inferredRed": 12,
            "playerTrialScore": -19,
            "oppTrialScore": 0,
            "playerTotalScore": -3102,
            "oppTotalScore": 324,
            "waitTime": 5355.034834627913,
            "responseTime": 1681146682003,
            "catchQuestion": "How many <b class=\"r\">red<\/b> marbles did your opponent report drawing? ",
            "catchKey": -1,
            "catchResponse": -1,
            "catchTime": 1681146648386,
            "trialTime": 0
        },
        {
            "exptPart": "trial",
            "trialNumber": 94,
            "roleCurrent": "receiver",
            "marblesSampled": 100,
            "probRed": 0.5,
            "practiceLambda": 5,
            "trialLambda": 21.9,
            "instructedLambda": "dishonest_big",
            "drawnRed": 59,
            "reportedRed": 74,
            "inferredRed": 12,
            "playerTrialScore": -47,
            "oppTrialScore": 0,
            "playerTotalScore": -3149,
            "oppTotalScore": 324,
            "waitTime": 5467.538501353385,
            "responseTime": 1681146701486,
            "catchQuestion": "How many <b class=\"r\">red<\/b> marbles did your opponent report drawing? ",
            "catchKey": 74,
            "catchResponse": 20,
            "catchTime": 1681146701486,
            "trialTime": 0
        },
        {
            "exptPart": "trial",
            "trialNumber": 95,
            "roleCurrent": "receiver",
            "marblesSampled": 100,
            "probRed": 0.5,
            "practiceLambda": 5,
            "trialLambda": 21.9,
            "instructedLambda": "dishonest_big",
            "drawnRed": 51,
            "reportedRed": 72,
            "inferredRed": 12,
            "playerTrialScore": -39,
            "oppTrialScore": 0,
            "playerTotalScore": -3188,
            "oppTotalScore": 324,
            "waitTime": 5255.930800043494,
            "responseTime": 1681146720519,
            "catchQuestion": "How many <b class=\"r\">red<\/b> marbles did your opponent report drawing? ",
            "catchKey": -1,
            "catchResponse": -1,
            "catchTime": 1681146701486,
            "trialTime": 0
        },
        {
            "exptPart": "trial",
            "trialNumber": 96,
            "roleCurrent": "receiver",
            "marblesSampled": 100,
            "probRed": 0.5,
            "practiceLambda": 5,
            "trialLambda": 21.9,
            "instructedLambda": "dishonest_big",
            "drawnRed": 66,
            "reportedRed": 80,
            "inferredRed": 12,
            "playerTrialScore": -54,
            "oppTrialScore": 0,
            "playerTotalScore": -3242,
            "oppTotalScore": 324,
            "waitTime": 5689.4127514874035,
            "responseTime": 1681146729719,
            "catchQuestion": "How many <b class=\"r\">red<\/b> marbles did your opponent report drawing? ",
            "catchKey": -1,
            "catchResponse": -1,
            "catchTime": 1681146701486,
            "trialTime": 0
        },
        {
            "exptPart": "trial",
            "trialNumber": 97,
            "roleCurrent": "receiver",
            "marblesSampled": 100,
            "probRed": 0.5,
            "practiceLambda": 5,
            "trialLambda": 21.9,
            "instructedLambda": "dishonest_big",
            "drawnRed": 49,
            "reportedRed": 69,
            "inferredRed": 12,
            "playerTrialScore": -37,
            "oppTrialScore": 0,
            "playerTotalScore": -3279,
            "oppTotalScore": 324,
            "waitTime": 6343.285527133297,
            "responseTime": 1681146739302,
            "catchQuestion": "How many <b class=\"r\">red<\/b> marbles did your opponent report drawing? ",
            "catchKey": -1,
            "catchResponse": -1,
            "catchTime": 1681146701486,
            "trialTime": 0
        },
        {
            "exptPart": "trial",
            "trialNumber": 98,
            "roleCurrent": "receiver",
            "marblesSampled": 100,
            "probRed": 0.5,
            "practiceLambda": 5,
            "trialLambda": 21.9,
            "instructedLambda": "dishonest_big",
            "drawnRed": 65,
            "reportedRed": 89,
            "inferredRed": 12,
            "playerTrialScore": -53,
            "oppTrialScore": 0,
            "playerTotalScore": -3332,
            "oppTotalScore": 324,
            "waitTime": 6722.689732044437,
            "responseTime": 1681146749269,
            "catchQuestion": "How many <b class=\"r\">red<\/b> marbles did your opponent report drawing? ",
            "catchKey": -1,
            "catchResponse": -1,
            "catchTime": 1681146701486,
            "trialTime": 0
        },
        {
            "exptPart": "trial",
            "trialNumber": 99,
            "roleCurrent": "receiver",
            "marblesSampled": 100,
            "probRed": 0.5,
            "practiceLambda": 5,
            "trialLambda": 21.9,
            "instructedLambda": "dishonest_big",
            "drawnRed": 38,
            "reportedRed": 59,
            "inferredRed": 12,
            "playerTrialScore": -26,
            "oppTrialScore": 0,
            "playerTotalScore": -3358,
            "oppTotalScore": 324,
            "waitTime": 7317.442694722403,
            "responseTime": 1681146759819,
            "catchQuestion": "How many <b class=\"r\">red<\/b> marbles did your opponent report drawing? ",
            "catchKey": -1,
            "catchResponse": -1,
            "catchTime": 1681146701486,
            "trialTime": 0
        },
        {
            "exptPart": "trial",
            "trialNumber": 100,
            "roleCurrent": "receiver",
            "marblesSampled": 100,
            "probRed": 0.5,
            "practiceLambda": 5,
            "trialLambda": 21.9,
            "instructedLambda": "dishonest_big",
            "drawnRed": 82,
            "reportedRed": 100,
            "inferredRed": 0,
            "playerTrialScore": -82,
            "oppTrialScore": 0,
            "playerTotalScore": -3440,
            "oppTotalScore": 324,
            "waitTime": 6685.664705088875,
            "responseTime": 1681146770176,
            "catchQuestion": "How many <b class=\"r\">red<\/b> marbles did your opponent report drawing? ",
            "catchKey": -1,
            "catchResponse": -1,
            "catchTime": 1681146770176,
            "trialTime": 0
        }
    ]
}