{
    "client": {
        "type": "sona",
        "experiment_id": 2488,
        "credit_token": "79d15902e9034cb6b65a542be205401c",
        "survey_code": "42258",
        "sid": "sona-42258",
        "window": {
            "width": 1280,
            "height": 681
        },
        "screen": {
            "width": 1280,
            "height": 800
        },
        "userAgent": "Mozilla\/5.0 (Windows NT 10.0; Win64; x64) AppleWebKit\/537.36 (KHTML, like Gecko) Chrome\/111.0.0.0 Safari\/537.36",
        "score": 0,
        "bonus": 0
    },
    "expt": {
        "saveURL": "submit.simple.php",
        "trials": 100,
        "practiceTrials": 2,
        "marblesSampled": 100,
        "probRed": 0.5,
        "practiceLambdaAI": 5,
        "lambdaAI": 21.9,
        "roles": [
            "sender",
            "receiver"
        ],
        "cost": "unif",
        "goal": "over",
        "oppDishonesty": "dishonest_small",
        "catchTrials": [
            19,
            78,
            38,
            86,
            26,
            71,
            92,
            61,
            17,
            31
        ],
        "scoreTotal": {
            "player": -2030,
            "opp": 679
        },
        "sona": {
            "experiment_id": 2488,
            "credit_token": "79d15902e9034cb6b65a542be205401c"
        },
        "pilot": false,
        "debug": false
    },
    "trials": [
        {
            "exptPart": "practice",
            "trialNumber": 1,
            "roleCurrent": "sender",
            "marblesSampled": 100,
            "probRed": 0.5,
            "practiceLambda": 5,
            "trialLambda": 21.9,
            "instructedLambda": "dishonest_small",
            "drawnRed": 65,
            "reportedRed": 45,
            "inferredRed": 43,
            "playerTrialScore": 0,
            "oppTrialScore": -22,
            "playerTotalScore": 0,
            "oppTotalScore": -22,
            "waitTime": 2609.822585022883,
            "responseTime": 1678908257439,
            "catchQuestion": "How many <b class=\"r\">red<\/b> marbles did you actually draw (before any changes)? ",
            "catchKey": 65,
            "catchResponse": 65,
            "catchTime": 1678908257440,
            "trialTime": 0
        },
        {
            "exptPart": "practice",
            "trialNumber": 2,
            "roleCurrent": "receiver",
            "marblesSampled": 100,
            "probRed": 0.5,
            "practiceLambda": 5,
            "trialLambda": 21.9,
            "instructedLambda": "dishonest_small",
            "drawnRed": 70,
            "reportedRed": 74,
            "inferredRed": 76,
            "playerTrialScore": -6,
            "oppTrialScore": 6,
            "playerTotalScore": -6,
            "oppTotalScore": -16,
            "waitTime": 5239.670681829144,
            "responseTime": 1678908298209,
            "catchQuestion": "How many <b class=\"r\">red<\/b> marbles did your opponent report drawing? ",
            "catchKey": 74,
            "catchResponse": 74,
            "catchTime": 1678908298209,
            "trialTime": 0
        },
        {
            "exptPart": "trial",
            "trialNumber": 1,
            "roleCurrent": "receiver",
            "marblesSampled": 100,
            "probRed": 0.5,
            "practiceLambda": 5,
            "trialLambda": 21.9,
            "instructedLambda": "dishonest_small",
            "drawnRed": 28,
            "reportedRed": 51,
            "inferredRed": 50,
            "playerTrialScore": -22,
            "oppTrialScore": 22,
            "playerTotalScore": -22,
            "oppTotalScore": 22,
            "waitTime": 7194.217802889013,
            "responseTime": 1678908352675,
            "catchQuestion": "How many <b class=\"r\">red<\/b> marbles did your opponent report drawing? ",
            "catchKey": -1,
            "catchResponse": -1,
            "catchTime": 1678908298209,
            "trialTime": 0
        },
        {
            "exptPart": "trial",
            "trialNumber": 2,
            "roleCurrent": "receiver",
            "marblesSampled": 100,
            "probRed": 0.5,
            "practiceLambda": 5,
            "trialLambda": 21.9,
            "instructedLambda": "dishonest_small",
            "drawnRed": 46,
            "reportedRed": 72,
            "inferredRed": 69,
            "playerTrialScore": -23,
            "oppTrialScore": 23,
            "playerTotalScore": -45,
            "oppTotalScore": 45,
            "waitTime": 5670.328427838381,
            "responseTime": 1678908373110,
            "catchQuestion": "How many <b class=\"r\">red<\/b> marbles did your opponent report drawing? ",
            "catchKey": -1,
            "catchResponse": -1,
            "catchTime": 1678908298209,
            "trialTime": 0
        },
        {
            "exptPart": "trial",
            "trialNumber": 3,
            "roleCurrent": "receiver",
            "marblesSampled": 100,
            "probRed": 0.5,
            "practiceLambda": 5,
            "trialLambda": 21.9,
            "instructedLambda": "dishonest_small",
            "drawnRed": 35,
            "reportedRed": 57,
            "inferredRed": 60,
            "playerTrialScore": -25,
            "oppTrialScore": 25,
            "playerTotalScore": -70,
            "oppTotalScore": 70,
            "waitTime": 6290.2319380036115,
            "responseTime": 1678908390174,
            "catchQuestion": "How many <b class=\"r\">red<\/b> marbles did your opponent report drawing? ",
            "catchKey": -1,
            "catchResponse": -1,
            "catchTime": 1678908298209,
            "trialTime": 0
        },
        {
            "exptPart": "trial",
            "trialNumber": 4,
            "roleCurrent": "receiver",
            "marblesSampled": 100,
            "probRed": 0.5,
            "practiceLambda": 5,
            "trialLambda": 21.9,
            "instructedLambda": "dishonest_small",
            "drawnRed": 36,
            "reportedRed": 58,
            "inferredRed": 62,
            "playerTrialScore": -26,
            "oppTrialScore": 26,
            "playerTotalScore": -96,
            "oppTotalScore": 96,
            "waitTime": 6870.2670230057975,
            "responseTime": 1678908407975,
            "catchQuestion": "How many <b class=\"r\">red<\/b> marbles did your opponent report drawing? ",
            "catchKey": -1,
            "catchResponse": -1,
            "catchTime": 1678908298209,
            "trialTime": 0
        },
        {
            "exptPart": "trial",
            "trialNumber": 5,
            "roleCurrent": "receiver",
            "marblesSampled": 100,
            "probRed": 0.5,
            "practiceLambda": 5,
            "trialLambda": 21.9,
            "instructedLambda": "dishonest_small",
            "drawnRed": 57,
            "reportedRed": 78,
            "inferredRed": 71,
            "playerTrialScore": -14,
            "oppTrialScore": 14,
            "playerTotalScore": -110,
            "oppTotalScore": 110,
            "waitTime": 5757.844849825975,
            "responseTime": 1678908421204,
            "catchQuestion": "How many <b class=\"r\">red<\/b> marbles did your opponent report drawing? ",
            "catchKey": -1,
            "catchResponse": -1,
            "catchTime": 1678908298209,
            "trialTime": 0
        },
        {
            "exptPart": "trial",
            "trialNumber": 6,
            "roleCurrent": "receiver",
            "marblesSampled": 100,
            "probRed": 0.5,
            "practiceLambda": 5,
            "trialLambda": 21.9,
            "instructedLambda": "dishonest_small",
            "drawnRed": 52,
            "reportedRed": 66,
            "inferredRed": 70,
            "playerTrialScore": -18,
            "oppTrialScore": 18,
            "playerTotalScore": -128,
            "oppTotalScore": 128,
            "waitTime": 5771.192715475221,
            "responseTime": 1678908435193,
            "catchQuestion": "How many <b class=\"r\">red<\/b> marbles did your opponent report drawing? ",
            "catchKey": -1,
            "catchResponse": -1,
            "catchTime": 1678908298209,
            "trialTime": 0
        },
        {
            "exptPart": "trial",
            "trialNumber": 7,
            "roleCurrent": "receiver",
            "marblesSampled": 100,
            "probRed": 0.5,
            "practiceLambda": 5,
            "trialLambda": 21.9,
            "instructedLambda": "dishonest_small",
            "drawnRed": 81,
            "reportedRed": 100,
            "inferredRed": 65,
            "playerTrialScore": -16,
            "oppTrialScore": 0,
            "playerTotalScore": -144,
            "oppTotalScore": 128,
            "waitTime": 6136.702110769791,
            "responseTime": 1678908478831,
            "catchQuestion": "How many <b class=\"r\">red<\/b> marbles did your opponent report drawing? ",
            "catchKey": -1,
            "catchResponse": -1,
            "catchTime": 1678908298209,
            "trialTime": 0
        },
        {
            "exptPart": "trial",
            "trialNumber": 8,
            "roleCurrent": "receiver",
            "marblesSampled": 100,
            "probRed": 0.5,
            "practiceLambda": 5,
            "trialLambda": 21.9,
            "instructedLambda": "dishonest_small",
            "drawnRed": 83,
            "reportedRed": 100,
            "inferredRed": 85,
            "playerTrialScore": -2,
            "oppTrialScore": 2,
            "playerTotalScore": -146,
            "oppTotalScore": 130,
            "waitTime": 5283.419066017524,
            "responseTime": 1678908488399,
            "catchQuestion": "How many <b class=\"r\">red<\/b> marbles did your opponent report drawing? ",
            "catchKey": -1,
            "catchResponse": -1,
            "catchTime": 1678908298209,
            "trialTime": 0
        },
        {
            "exptPart": "trial",
            "trialNumber": 9,
            "roleCurrent": "receiver",
            "marblesSampled": 100,
            "probRed": 0.5,
            "practiceLambda": 5,
            "trialLambda": 21.9,
            "instructedLambda": "dishonest_small",
            "drawnRed": 30,
            "reportedRed": 48,
            "inferredRed": 52,
            "playerTrialScore": -22,
            "oppTrialScore": 22,
            "playerTotalScore": -168,
            "oppTotalScore": 152,
            "waitTime": 5327.471600897131,
            "responseTime": 1678908513988,
            "catchQuestion": "How many <b class=\"r\">red<\/b> marbles did your opponent report drawing? ",
            "catchKey": -1,
            "catchResponse": -1,
            "catchTime": 1678908298209,
            "trialTime": 0
        },
        {
            "exptPart": "trial",
            "trialNumber": 10,
            "roleCurrent": "receiver",
            "marblesSampled": 100,
            "probRed": 0.5,
            "practiceLambda": 5,
            "trialLambda": 21.9,
            "instructedLambda": "dishonest_small",
            "drawnRed": 33,
            "reportedRed": 55,
            "inferredRed": 70,
            "playerTrialScore": -37,
            "oppTrialScore": 37,
            "playerTotalScore": -205,
            "oppTotalScore": 189,
            "waitTime": 6305.03867530011,
            "responseTime": 1678908527168,
            "catchQuestion": "How many <b class=\"r\">red<\/b> marbles did your opponent report drawing? ",
            "catchKey": -1,
            "catchResponse": -1,
            "catchTime": 1678908527168,
            "trialTime": 0
        },
        {
            "exptPart": "trial",
            "trialNumber": 11,
            "roleCurrent": "receiver",
            "marblesSampled": 100,
            "probRed": 0.5,
            "practiceLambda": 5,
            "trialLambda": 21.9,
            "instructedLambda": "dishonest_small",
            "drawnRed": 34,
            "reportedRed": 61,
            "inferredRed": 70,
            "playerTrialScore": -36,
            "oppTrialScore": 36,
            "playerTotalScore": -241,
            "oppTotalScore": 225,
            "waitTime": 6255.31431012764,
            "responseTime": 1678908545176,
            "catchQuestion": "How many <b class=\"r\">red<\/b> marbles did your opponent report drawing? ",
            "catchKey": -1,
            "catchResponse": -1,
            "catchTime": 1678908527168,
            "trialTime": 0
        },
        {
            "exptPart": "trial",
            "trialNumber": 12,
            "roleCurrent": "receiver",
            "marblesSampled": 100,
            "probRed": 0.5,
            "practiceLambda": 5,
            "trialLambda": 21.9,
            "instructedLambda": "dishonest_small",
            "drawnRed": 38,
            "reportedRed": 57,
            "inferredRed": 45,
            "playerTrialScore": -7,
            "oppTrialScore": 7,
            "playerTotalScore": -248,
            "oppTotalScore": 232,
            "waitTime": 7324.440856654883,
            "responseTime": 1678908557429,
            "catchQuestion": "How many <b class=\"r\">red<\/b> marbles did your opponent report drawing? ",
            "catchKey": -1,
            "catchResponse": -1,
            "catchTime": 1678908527168,
            "trialTime": 0
        },
        {
            "exptPart": "trial",
            "trialNumber": 13,
            "roleCurrent": "receiver",
            "marblesSampled": 100,
            "probRed": 0.5,
            "practiceLambda": 5,
            "trialLambda": 21.9,
            "instructedLambda": "dishonest_small",
            "drawnRed": 51,
            "reportedRed": 67,
            "inferredRed": 45,
            "playerTrialScore": -6,
            "oppTrialScore": 0,
            "playerTotalScore": -254,
            "oppTotalScore": 232,
            "waitTime": 5173.818215507184,
            "responseTime": 1678908566847,
            "catchQuestion": "How many <b class=\"r\">red<\/b> marbles did your opponent report drawing? ",
            "catchKey": -1,
            "catchResponse": -1,
            "catchTime": 1678908527168,
            "trialTime": 0
        },
        {
            "exptPart": "trial",
            "trialNumber": 14,
            "roleCurrent": "receiver",
            "marblesSampled": 100,
            "probRed": 0.5,
            "practiceLambda": 5,
            "trialLambda": 21.9,
            "instructedLambda": "dishonest_small",
            "drawnRed": 56,
            "reportedRed": 72,
            "inferredRed": 55,
            "playerTrialScore": -1,
            "oppTrialScore": 0,
            "playerTotalScore": -255,
            "oppTotalScore": 232,
            "waitTime": 5574.472852586392,
            "responseTime": 1678908579751,
            "catchQuestion": "How many <b class=\"r\">red<\/b> marbles did your opponent report drawing? ",
            "catchKey": -1,
            "catchResponse": -1,
            "catchTime": 1678908527168,
            "trialTime": 0
        },
        {
            "exptPart": "trial",
            "trialNumber": 15,
            "roleCurrent": "receiver",
            "marblesSampled": 100,
            "probRed": 0.5,
            "practiceLambda": 5,
            "trialLambda": 21.9,
            "instructedLambda": "dishonest_small",
            "drawnRed": 86,
            "reportedRed": 100,
            "inferredRed": 70,
            "playerTrialScore": -16,
            "oppTrialScore": 0,
            "playerTotalScore": -271,
            "oppTotalScore": 232,
            "waitTime": 5290.42042695007,
            "responseTime": 1678908588369,
            "catchQuestion": "How many <b class=\"r\">red<\/b> marbles did your opponent report drawing? ",
            "catchKey": -1,
            "catchResponse": -1,
            "catchTime": 1678908527168,
            "trialTime": 0
        },
        {
            "exptPart": "trial",
            "trialNumber": 16,
            "roleCurrent": "receiver",
            "marblesSampled": 100,
            "probRed": 0.5,
            "practiceLambda": 5,
            "trialLambda": 21.9,
            "instructedLambda": "dishonest_small",
            "drawnRed": 54,
            "reportedRed": 83,
            "inferredRed": 70,
            "playerTrialScore": -16,
            "oppTrialScore": 16,
            "playerTotalScore": -287,
            "oppTotalScore": 248,
            "waitTime": 7247.139246938063,
            "responseTime": 1678908602136,
            "catchQuestion": "How many <b class=\"r\">red<\/b> marbles did your opponent report drawing? ",
            "catchKey": -1,
            "catchResponse": -1,
            "catchTime": 1678908527168,
            "trialTime": 0
        },
        {
            "exptPart": "trial",
            "trialNumber": 17,
            "roleCurrent": "receiver",
            "marblesSampled": 100,
            "probRed": 0.5,
            "practiceLambda": 5,
            "trialLambda": 21.9,
            "instructedLambda": "dishonest_small",
            "drawnRed": 53,
            "reportedRed": 68,
            "inferredRed": 52,
            "playerTrialScore": -1,
            "oppTrialScore": 0,
            "playerTotalScore": -288,
            "oppTotalScore": 248,
            "waitTime": 6459.182063961911,
            "responseTime": 1678908620586,
            "catchQuestion": "How many <b class=\"r\">red<\/b> marbles did your opponent report drawing? ",
            "catchKey": -1,
            "catchResponse": -1,
            "catchTime": 1678908527168,
            "trialTime": 0
        },
        {
            "exptPart": "trial",
            "trialNumber": 18,
            "roleCurrent": "receiver",
            "marblesSampled": 100,
            "probRed": 0.5,
            "practiceLambda": 5,
            "trialLambda": 21.9,
            "instructedLambda": "dishonest_small",
            "drawnRed": 90,
            "reportedRed": 100,
            "inferredRed": 73,
            "playerTrialScore": -17,
            "oppTrialScore": 0,
            "playerTotalScore": -305,
            "oppTotalScore": 248,
            "waitTime": 7053.423766390839,
            "responseTime": 1678908636373,
            "catchQuestion": "How many <b class=\"r\">red<\/b> marbles did your opponent report drawing? ",
            "catchKey": 100,
            "catchResponse": 100,
            "catchTime": 1678908636373,
            "trialTime": 0
        },
        {
            "exptPart": "trial",
            "trialNumber": 19,
            "roleCurrent": "receiver",
            "marblesSampled": 100,
            "probRed": 0.5,
            "practiceLambda": 5,
            "trialLambda": 21.9,
            "instructedLambda": "dishonest_small",
            "drawnRed": 54,
            "reportedRed": 85,
            "inferredRed": 65,
            "playerTrialScore": -11,
            "oppTrialScore": 11,
            "playerTotalScore": -316,
            "oppTotalScore": 259,
            "waitTime": 5915.790185696351,
            "responseTime": 1678908654858,
            "catchQuestion": "How many <b class=\"r\">red<\/b> marbles did your opponent report drawing? ",
            "catchKey": -1,
            "catchResponse": -1,
            "catchTime": 1678908636373,
            "trialTime": 0
        },
        {
            "exptPart": "trial",
            "trialNumber": 20,
            "roleCurrent": "receiver",
            "marblesSampled": 100,
            "probRed": 0.5,
            "practiceLambda": 5,
            "trialLambda": 21.9,
            "instructedLambda": "dishonest_small",
            "drawnRed": 64,
            "reportedRed": 87,
            "inferredRed": 58,
            "playerTrialScore": -6,
            "oppTrialScore": 0,
            "playerTotalScore": -322,
            "oppTotalScore": 259,
            "waitTime": 5144.605185176015,
            "responseTime": 1678908670499,
            "catchQuestion": "How many <b class=\"r\">red<\/b> marbles did your opponent report drawing? ",
            "catchKey": 87,
            "catchResponse": 87,
            "catchTime": 1678908670499,
            "trialTime": 0
        },
        {
            "exptPart": "trial",
            "trialNumber": 21,
            "roleCurrent": "receiver",
            "marblesSampled": 100,
            "probRed": 0.5,
            "practiceLambda": 5,
            "trialLambda": 21.9,
            "instructedLambda": "dishonest_small",
            "drawnRed": 56,
            "reportedRed": 81,
            "inferredRed": 35,
            "playerTrialScore": -21,
            "oppTrialScore": 0,
            "playerTotalScore": -343,
            "oppTotalScore": 259,
            "waitTime": 5996.664721613759,
            "responseTime": 1678908689604,
            "catchQuestion": "How many <b class=\"r\">red<\/b> marbles did your opponent report drawing? ",
            "catchKey": -1,
            "catchResponse": -1,
            "catchTime": 1678908670499,
            "trialTime": 0
        },
        {
            "exptPart": "trial",
            "trialNumber": 22,
            "roleCurrent": "receiver",
            "marblesSampled": 100,
            "probRed": 0.5,
            "practiceLambda": 5,
            "trialLambda": 21.9,
            "instructedLambda": "dishonest_small",
            "drawnRed": 61,
            "reportedRed": 89,
            "inferredRed": 45,
            "playerTrialScore": -16,
            "oppTrialScore": 0,
            "playerTotalScore": -359,
            "oppTotalScore": 259,
            "waitTime": 7068.797998784682,
            "responseTime": 1678908700291,
            "catchQuestion": "How many <b class=\"r\">red<\/b> marbles did your opponent report drawing? ",
            "catchKey": -1,
            "catchResponse": -1,
            "catchTime": 1678908670499,
            "trialTime": 0
        },
        {
            "exptPart": "trial",
            "trialNumber": 23,
            "roleCurrent": "receiver",
            "marblesSampled": 100,
            "probRed": 0.5,
            "practiceLambda": 5,
            "trialLambda": 21.9,
            "instructedLambda": "dishonest_small",
            "drawnRed": 89,
            "reportedRed": 100,
            "inferredRed": 45,
            "playerTrialScore": -44,
            "oppTrialScore": 0,
            "playerTotalScore": -403,
            "oppTotalScore": 259,
            "waitTime": 6018.504338611066,
            "responseTime": 1678908711195,
            "catchQuestion": "How many <b class=\"r\">red<\/b> marbles did your opponent report drawing? ",
            "catchKey": -1,
            "catchResponse": -1,
            "catchTime": 1678908670499,
            "trialTime": 0
        },
        {
            "exptPart": "trial",
            "trialNumber": 24,
            "roleCurrent": "receiver",
            "marblesSampled": 100,
            "probRed": 0.5,
            "practiceLambda": 5,
            "trialLambda": 21.9,
            "instructedLambda": "dishonest_small",
            "drawnRed": 42,
            "reportedRed": 70,
            "inferredRed": 45,
            "playerTrialScore": -3,
            "oppTrialScore": 3,
            "playerTotalScore": -406,
            "oppTotalScore": 262,
            "waitTime": 7341.90896379725,
            "responseTime": 1678908723636,
            "catchQuestion": "How many <b class=\"r\">red<\/b> marbles did your opponent report drawing? ",
            "catchKey": -1,
            "catchResponse": -1,
            "catchTime": 1678908670499,
            "trialTime": 0
        },
        {
            "exptPart": "trial",
            "trialNumber": 25,
            "roleCurrent": "receiver",
            "marblesSampled": 100,
            "probRed": 0.5,
            "practiceLambda": 5,
            "trialLambda": 21.9,
            "instructedLambda": "dishonest_small",
            "drawnRed": 55,
            "reportedRed": 71,
            "inferredRed": 40,
            "playerTrialScore": -15,
            "oppTrialScore": 0,
            "playerTotalScore": -421,
            "oppTotalScore": 262,
            "waitTime": 7202.516244858845,
            "responseTime": 1678908775456,
            "catchQuestion": "How many <b class=\"r\">red<\/b> marbles did your opponent report drawing? ",
            "catchKey": -1,
            "catchResponse": -1,
            "catchTime": 1678908670499,
            "trialTime": 0
        },
        {
            "exptPart": "trial",
            "trialNumber": 26,
            "roleCurrent": "receiver",
            "marblesSampled": 100,
            "probRed": 0.5,
            "practiceLambda": 5,
            "trialLambda": 21.9,
            "instructedLambda": "dishonest_small",
            "drawnRed": 47,
            "reportedRed": 66,
            "inferredRed": 39,
            "playerTrialScore": -8,
            "oppTrialScore": 0,
            "playerTotalScore": -429,
            "oppTotalScore": 262,
            "waitTime": 6606.108759923072,
            "responseTime": 1678908792716,
            "catchQuestion": "How many <b class=\"r\">red<\/b> marbles did your opponent report drawing? ",
            "catchKey": -1,
            "catchResponse": -1,
            "catchTime": 1678908670499,
            "trialTime": 0
        },
        {
            "exptPart": "trial",
            "trialNumber": 27,
            "roleCurrent": "receiver",
            "marblesSampled": 100,
            "probRed": 0.5,
            "practiceLambda": 5,
            "trialLambda": 21.9,
            "instructedLambda": "dishonest_small",
            "drawnRed": 47,
            "reportedRed": 70,
            "inferredRed": 55,
            "playerTrialScore": -8,
            "oppTrialScore": 8,
            "playerTotalScore": -437,
            "oppTotalScore": 270,
            "waitTime": 5173.220517721387,
            "responseTime": 1678908804997,
            "catchQuestion": "How many <b class=\"r\">red<\/b> marbles did your opponent report drawing? ",
            "catchKey": 70,
            "catchResponse": 77,
            "catchTime": 1678908804997,
            "trialTime": 0
        },
        {
            "exptPart": "trial",
            "trialNumber": 28,
            "roleCurrent": "receiver",
            "marblesSampled": 100,
            "probRed": 0.5,
            "practiceLambda": 5,
            "trialLambda": 21.9,
            "instructedLambda": "dishonest_small",
            "drawnRed": 56,
            "reportedRed": 76,
            "inferredRed": 43,
            "playerTrialScore": -13,
            "oppTrialScore": 0,
            "playerTotalScore": -450,
            "oppTotalScore": 270,
            "waitTime": 6744.727926103517,
            "responseTime": 1678908833449,
            "catchQuestion": "How many <b class=\"r\">red<\/b> marbles did your opponent report drawing? ",
            "catchKey": -1,
            "catchResponse": -1,
            "catchTime": 1678908804997,
            "trialTime": 0
        },
        {
            "exptPart": "trial",
            "trialNumber": 29,
            "roleCurrent": "receiver",
            "marblesSampled": 100,
            "probRed": 0.5,
            "practiceLambda": 5,
            "trialLambda": 21.9,
            "instructedLambda": "dishonest_small",
            "drawnRed": 78,
            "reportedRed": 100,
            "inferredRed": 65,
            "playerTrialScore": -13,
            "oppTrialScore": 0,
            "playerTotalScore": -463,
            "oppTotalScore": 270,
            "waitTime": 6013.4468303933045,
            "responseTime": 1678908967953,
            "catchQuestion": "How many <b class=\"r\">red<\/b> marbles did your opponent report drawing? ",
            "catchKey": -1,
            "catchResponse": -1,
            "catchTime": 1678908804997,
            "trialTime": 0
        },
        {
            "exptPart": "trial",
            "trialNumber": 30,
            "roleCurrent": "receiver",
            "marblesSampled": 100,
            "probRed": 0.5,
            "practiceLambda": 5,
            "trialLambda": 21.9,
            "instructedLambda": "dishonest_small",
            "drawnRed": 58,
            "reportedRed": 75,
            "inferredRed": 50,
            "playerTrialScore": -8,
            "oppTrialScore": 0,
            "playerTotalScore": -471,
            "oppTotalScore": 270,
            "waitTime": 5618.293787391661,
            "responseTime": 1678908979395,
            "catchQuestion": "How many <b class=\"r\">red<\/b> marbles did your opponent report drawing? ",
            "catchKey": -1,
            "catchResponse": -1,
            "catchTime": 1678908979396,
            "trialTime": 0
        },
        {
            "exptPart": "trial",
            "trialNumber": 31,
            "roleCurrent": "receiver",
            "marblesSampled": 100,
            "probRed": 0.5,
            "practiceLambda": 5,
            "trialLambda": 21.9,
            "instructedLambda": "dishonest_small",
            "drawnRed": 35,
            "reportedRed": 56,
            "inferredRed": 25,
            "playerTrialScore": -10,
            "oppTrialScore": 0,
            "playerTotalScore": -481,
            "oppTotalScore": 270,
            "waitTime": 6863.971106346459,
            "responseTime": 1678908999412,
            "catchQuestion": "How many <b class=\"r\">red<\/b> marbles did your opponent report drawing? ",
            "catchKey": -1,
            "catchResponse": -1,
            "catchTime": 1678908979396,
            "trialTime": 0
        },
        {
            "exptPart": "trial",
            "trialNumber": 32,
            "roleCurrent": "receiver",
            "marblesSampled": 100,
            "probRed": 0.5,
            "practiceLambda": 5,
            "trialLambda": 21.9,
            "instructedLambda": "dishonest_small",
            "drawnRed": 31,
            "reportedRed": 53,
            "inferredRed": 23,
            "playerTrialScore": -8,
            "oppTrialScore": 0,
            "playerTotalScore": -489,
            "oppTotalScore": 270,
            "waitTime": 6776.921025795244,
            "responseTime": 1678909011339,
            "catchQuestion": "How many <b class=\"r\">red<\/b> marbles did your opponent report drawing? ",
            "catchKey": 53,
            "catchResponse": 53,
            "catchTime": 1678909011339,
            "trialTime": 0
        },
        {
            "exptPart": "trial",
            "trialNumber": 33,
            "roleCurrent": "receiver",
            "marblesSampled": 100,
            "probRed": 0.5,
            "practiceLambda": 5,
            "trialLambda": 21.9,
            "instructedLambda": "dishonest_small",
            "drawnRed": 81,
            "reportedRed": 100,
            "inferredRed": 25,
            "playerTrialScore": -56,
            "oppTrialScore": 0,
            "playerTotalScore": -545,
            "oppTotalScore": 270,
            "waitTime": 5480.980793321534,
            "responseTime": 1678909026857,
            "catchQuestion": "How many <b class=\"r\">red<\/b> marbles did your opponent report drawing? ",
            "catchKey": -1,
            "catchResponse": -1,
            "catchTime": 1678909011339,
            "trialTime": 0
        },
        {
            "exptPart": "trial",
            "trialNumber": 34,
            "roleCurrent": "receiver",
            "marblesSampled": 100,
            "probRed": 0.5,
            "practiceLambda": 5,
            "trialLambda": 21.9,
            "instructedLambda": "dishonest_small",
            "drawnRed": 59,
            "reportedRed": 82,
            "inferredRed": 25,
            "playerTrialScore": -34,
            "oppTrialScore": 0,
            "playerTotalScore": -579,
            "oppTotalScore": 270,
            "waitTime": 5769.77832282019,
            "responseTime": 1678909045801,
            "catchQuestion": "How many <b class=\"r\">red<\/b> marbles did your opponent report drawing? ",
            "catchKey": -1,
            "catchResponse": -1,
            "catchTime": 1678909011339,
            "trialTime": 0
        },
        {
            "exptPart": "trial",
            "trialNumber": 35,
            "roleCurrent": "receiver",
            "marblesSampled": 100,
            "probRed": 0.5,
            "practiceLambda": 5,
            "trialLambda": 21.9,
            "instructedLambda": "dishonest_small",
            "drawnRed": 40,
            "reportedRed": 58,
            "inferredRed": 35,
            "playerTrialScore": -5,
            "oppTrialScore": 0,
            "playerTotalScore": -584,
            "oppTotalScore": 270,
            "waitTime": 6913.954567658719,
            "responseTime": 1678909061489,
            "catchQuestion": "How many <b class=\"r\">red<\/b> marbles did your opponent report drawing? ",
            "catchKey": -1,
            "catchResponse": -1,
            "catchTime": 1678909011339,
            "trialTime": 0
        },
        {
            "exptPart": "trial",
            "trialNumber": 36,
            "roleCurrent": "receiver",
            "marblesSampled": 100,
            "probRed": 0.5,
            "practiceLambda": 5,
            "trialLambda": 21.9,
            "instructedLambda": "dishonest_small",
            "drawnRed": 26,
            "reportedRed": 47,
            "inferredRed": 35,
            "playerTrialScore": -9,
            "oppTrialScore": 9,
            "playerTotalScore": -593,
            "oppTotalScore": 279,
            "waitTime": 5435.051688260664,
            "responseTime": 1678909086735,
            "catchQuestion": "How many <b class=\"r\">red<\/b> marbles did your opponent report drawing? ",
            "catchKey": -1,
            "catchResponse": -1,
            "catchTime": 1678909011339,
            "trialTime": 0
        },
        {
            "exptPart": "trial",
            "trialNumber": 37,
            "roleCurrent": "receiver",
            "marblesSampled": 100,
            "probRed": 0.5,
            "practiceLambda": 5,
            "trialLambda": 21.9,
            "instructedLambda": "dishonest_small",
            "drawnRed": 59,
            "reportedRed": 77,
            "inferredRed": 50,
            "playerTrialScore": -9,
            "oppTrialScore": 0,
            "playerTotalScore": -602,
            "oppTotalScore": 279,
            "waitTime": 6786.467590819144,
            "responseTime": 1678909098643,
            "catchQuestion": "How many <b class=\"r\">red<\/b> marbles did your opponent report drawing? ",
            "catchKey": -1,
            "catchResponse": -1,
            "catchTime": 1678909011339,
            "trialTime": 0
        },
        {
            "exptPart": "trial",
            "trialNumber": 38,
            "roleCurrent": "receiver",
            "marblesSampled": 100,
            "probRed": 0.5,
            "practiceLambda": 5,
            "trialLambda": 21.9,
            "instructedLambda": "dishonest_small",
            "drawnRed": 41,
            "reportedRed": 61,
            "inferredRed": 45,
            "playerTrialScore": -4,
            "oppTrialScore": 4,
            "playerTotalScore": -606,
            "oppTotalScore": 283,
            "waitTime": 5225.695642037898,
            "responseTime": 1678909145583,
            "catchQuestion": "How many <b class=\"r\">red<\/b> marbles did your opponent report drawing? ",
            "catchKey": -1,
            "catchResponse": -1,
            "catchTime": 1678909011339,
            "trialTime": 0
        },
        {
            "exptPart": "trial",
            "trialNumber": 39,
            "roleCurrent": "receiver",
            "marblesSampled": 100,
            "probRed": 0.5,
            "practiceLambda": 5,
            "trialLambda": 21.9,
            "instructedLambda": "dishonest_small",
            "drawnRed": 65,
            "reportedRed": 82,
            "inferredRed": 65,
            "playerTrialScore": 0,
            "oppTrialScore": 0,
            "playerTotalScore": -606,
            "oppTotalScore": 283,
            "waitTime": 7183.504987437068,
            "responseTime": 1678909156159,
            "catchQuestion": "How many <b class=\"r\">red<\/b> marbles did your opponent report drawing? ",
            "catchKey": 82,
            "catchResponse": 82,
            "catchTime": 1678909156159,
            "trialTime": 0
        },
        {
            "exptPart": "trial",
            "trialNumber": 40,
            "roleCurrent": "receiver",
            "marblesSampled": 100,
            "probRed": 0.5,
            "practiceLambda": 5,
            "trialLambda": 21.9,
            "instructedLambda": "dishonest_small",
            "drawnRed": 38,
            "reportedRed": 64,
            "inferredRed": 55,
            "playerTrialScore": -17,
            "oppTrialScore": 17,
            "playerTotalScore": -623,
            "oppTotalScore": 300,
            "waitTime": 6287.441942033882,
            "responseTime": 1678909175585,
            "catchQuestion": "How many <b class=\"r\">red<\/b> marbles did your opponent report drawing? ",
            "catchKey": -1,
            "catchResponse": -1,
            "catchTime": 1678909175585,
            "trialTime": 0
        },
        {
            "exptPart": "trial",
            "trialNumber": 41,
            "roleCurrent": "receiver",
            "marblesSampled": 100,
            "probRed": 0.5,
            "practiceLambda": 5,
            "trialLambda": 21.9,
            "instructedLambda": "dishonest_small",
            "drawnRed": 37,
            "reportedRed": 58,
            "inferredRed": 25,
            "playerTrialScore": -12,
            "oppTrialScore": 0,
            "playerTotalScore": -635,
            "oppTotalScore": 300,
            "waitTime": 7136.878365956387,
            "responseTime": 1678909246770,
            "catchQuestion": "How many <b class=\"r\">red<\/b> marbles did your opponent report drawing? ",
            "catchKey": -1,
            "catchResponse": -1,
            "catchTime": 1678909175585,
            "trialTime": 0
        },
        {
            "exptPart": "trial",
            "trialNumber": 42,
            "roleCurrent": "receiver",
            "marblesSampled": 100,
            "probRed": 0.5,
            "practiceLambda": 5,
            "trialLambda": 21.9,
            "instructedLambda": "dishonest_small",
            "drawnRed": 32,
            "reportedRed": 49,
            "inferredRed": 25,
            "playerTrialScore": -7,
            "oppTrialScore": 0,
            "playerTotalScore": -642,
            "oppTotalScore": 300,
            "waitTime": 5785.344562056467,
            "responseTime": 1678909256216,
            "catchQuestion": "How many <b class=\"r\">red<\/b> marbles did your opponent report drawing? ",
            "catchKey": -1,
            "catchResponse": -1,
            "catchTime": 1678909175585,
            "trialTime": 0
        },
        {
            "exptPart": "trial",
            "trialNumber": 43,
            "roleCurrent": "receiver",
            "marblesSampled": 100,
            "probRed": 0.5,
            "practiceLambda": 5,
            "trialLambda": 21.9,
            "instructedLambda": "dishonest_small",
            "drawnRed": 69,
            "reportedRed": 91,
            "inferredRed": 50,
            "playerTrialScore": -19,
            "oppTrialScore": 0,
            "playerTotalScore": -661,
            "oppTotalScore": 300,
            "waitTime": 5395.56309019804,
            "responseTime": 1678909265861,
            "catchQuestion": "How many <b class=\"r\">red<\/b> marbles did your opponent report drawing? ",
            "catchKey": -1,
            "catchResponse": -1,
            "catchTime": 1678909175585,
            "trialTime": 0
        },
        {
            "exptPart": "trial",
            "trialNumber": 44,
            "roleCurrent": "receiver",
            "marblesSampled": 100,
            "probRed": 0.5,
            "practiceLambda": 5,
            "trialLambda": 21.9,
            "instructedLambda": "dishonest_small",
            "drawnRed": 45,
            "reportedRed": 67,
            "inferredRed": 35,
            "playerTrialScore": -10,
            "oppTrialScore": 0,
            "playerTotalScore": -671,
            "oppTotalScore": 300,
            "waitTime": 5284.342947836345,
            "responseTime": 1678909274496,
            "catchQuestion": "How many <b class=\"r\">red<\/b> marbles did your opponent report drawing? ",
            "catchKey": -1,
            "catchResponse": -1,
            "catchTime": 1678909175585,
            "trialTime": 0
        },
        {
            "exptPart": "trial",
            "trialNumber": 45,
            "roleCurrent": "receiver",
            "marblesSampled": 100,
            "probRed": 0.5,
            "practiceLambda": 5,
            "trialLambda": 21.9,
            "instructedLambda": "dishonest_small",
            "drawnRed": 49,
            "reportedRed": 71,
            "inferredRed": 25,
            "playerTrialScore": -24,
            "oppTrialScore": 0,
            "playerTotalScore": -695,
            "oppTotalScore": 300,
            "waitTime": 6876.830604396826,
            "responseTime": 1678909288780,
            "catchQuestion": "How many <b class=\"r\">red<\/b> marbles did your opponent report drawing? ",
            "catchKey": -1,
            "catchResponse": -1,
            "catchTime": 1678909175585,
            "trialTime": 0
        },
        {
            "exptPart": "trial",
            "trialNumber": 46,
            "roleCurrent": "receiver",
            "marblesSampled": 100,
            "probRed": 0.5,
            "practiceLambda": 5,
            "trialLambda": 21.9,
            "instructedLambda": "dishonest_small",
            "drawnRed": 32,
            "reportedRed": 50,
            "inferredRed": 20,
            "playerTrialScore": -12,
            "oppTrialScore": 0,
            "playerTotalScore": -707,
            "oppTotalScore": 300,
            "waitTime": 5284.383847775152,
            "responseTime": 1678909300307,
            "catchQuestion": "How many <b class=\"r\">red<\/b> marbles did your opponent report drawing? ",
            "catchKey": -1,
            "catchResponse": -1,
            "catchTime": 1678909175585,
            "trialTime": 0
        },
        {
            "exptPart": "trial",
            "trialNumber": 47,
            "roleCurrent": "receiver",
            "marblesSampled": 100,
            "probRed": 0.5,
            "practiceLambda": 5,
            "trialLambda": 21.9,
            "instructedLambda": "dishonest_small",
            "drawnRed": 46,
            "reportedRed": 82,
            "inferredRed": 35,
            "playerTrialScore": -11,
            "oppTrialScore": 0,
            "playerTotalScore": -718,
            "oppTotalScore": 300,
            "waitTime": 5241.4837512494,
            "responseTime": 1678909313424,
            "catchQuestion": "How many <b class=\"r\">red<\/b> marbles did your opponent report drawing? ",
            "catchKey": -1,
            "catchResponse": -1,
            "catchTime": 1678909175585,
            "trialTime": 0
        },
        {
            "exptPart": "trial",
            "trialNumber": 48,
            "roleCurrent": "receiver",
            "marblesSampled": 100,
            "probRed": 0.5,
            "practiceLambda": 5,
            "trialLambda": 21.9,
            "instructedLambda": "dishonest_small",
            "drawnRed": 34,
            "reportedRed": 62,
            "inferredRed": 25,
            "playerTrialScore": -9,
            "oppTrialScore": 0,
            "playerTotalScore": -727,
            "oppTotalScore": 300,
            "waitTime": 5422.894622597917,
            "responseTime": 1678909324763,
            "catchQuestion": "How many <b class=\"r\">red<\/b> marbles did your opponent report drawing? ",
            "catchKey": -1,
            "catchResponse": -1,
            "catchTime": 1678909175585,
            "trialTime": 0
        },
        {
            "exptPart": "trial",
            "trialNumber": 49,
            "roleCurrent": "receiver",
            "marblesSampled": 100,
            "probRed": 0.5,
            "practiceLambda": 5,
            "trialLambda": 21.9,
            "instructedLambda": "dishonest_small",
            "drawnRed": 39,
            "reportedRed": 62,
            "inferredRed": 35,
            "playerTrialScore": -4,
            "oppTrialScore": 0,
            "playerTotalScore": -731,
            "oppTotalScore": 300,
            "waitTime": 5807.018561900342,
            "responseTime": 1678909334244,
            "catchQuestion": "How many <b class=\"r\">red<\/b> marbles did your opponent report drawing? ",
            "catchKey": -1,
            "catchResponse": -1,
            "catchTime": 1678909175585,
            "trialTime": 0
        },
        {
            "exptPart": "trial",
            "trialNumber": 50,
            "roleCurrent": "receiver",
            "marblesSampled": 100,
            "probRed": 0.5,
            "practiceLambda": 5,
            "trialLambda": 21.9,
            "instructedLambda": "dishonest_small",
            "drawnRed": 27,
            "reportedRed": 58,
            "inferredRed": 40,
            "playerTrialScore": -13,
            "oppTrialScore": 13,
            "playerTotalScore": -744,
            "oppTotalScore": 313,
            "waitTime": 5548.2788251015445,
            "responseTime": 1678909344741,
            "catchQuestion": "How many <b class=\"r\">red<\/b> marbles did your opponent report drawing? ",
            "catchKey": -1,
            "catchResponse": -1,
            "catchTime": 1678909344741,
            "trialTime": 0
        },
        {
            "exptPart": "trial",
            "trialNumber": 51,
            "roleCurrent": "receiver",
            "marblesSampled": 100,
            "probRed": 0.5,
            "practiceLambda": 5,
            "trialLambda": 21.9,
            "instructedLambda": "dishonest_small",
            "drawnRed": 52,
            "reportedRed": 76,
            "inferredRed": 20,
            "playerTrialScore": -32,
            "oppTrialScore": 0,
            "playerTotalScore": -776,
            "oppTotalScore": 313,
            "waitTime": 5651.756942420858,
            "responseTime": 1678909420423,
            "catchQuestion": "How many <b class=\"r\">red<\/b> marbles did your opponent report drawing? ",
            "catchKey": -1,
            "catchResponse": -1,
            "catchTime": 1678909344741,
            "trialTime": 0
        },
        {
            "exptPart": "trial",
            "trialNumber": 52,
            "roleCurrent": "receiver",
            "marblesSampled": 100,
            "probRed": 0.5,
            "practiceLambda": 5,
            "trialLambda": 21.9,
            "instructedLambda": "dishonest_small",
            "drawnRed": 12,
            "reportedRed": 38,
            "inferredRed": 25,
            "playerTrialScore": -13,
            "oppTrialScore": 13,
            "playerTotalScore": -789,
            "oppTotalScore": 326,
            "waitTime": 6207.63335341309,
            "responseTime": 1678909471621,
            "catchQuestion": "How many <b class=\"r\">red<\/b> marbles did your opponent report drawing? ",
            "catchKey": -1,
            "catchResponse": -1,
            "catchTime": 1678909344741,
            "trialTime": 0
        },
        {
            "exptPart": "trial",
            "trialNumber": 53,
            "roleCurrent": "receiver",
            "marblesSampled": 100,
            "probRed": 0.5,
            "practiceLambda": 5,
            "trialLambda": 21.9,
            "instructedLambda": "dishonest_small",
            "drawnRed": 33,
            "reportedRed": 61,
            "inferredRed": 15,
            "playerTrialScore": -18,
            "oppTrialScore": 0,
            "playerTotalScore": -807,
            "oppTotalScore": 326,
            "waitTime": 5298.231328527992,
            "responseTime": 1678909481086,
            "catchQuestion": "How many <b class=\"r\">red<\/b> marbles did your opponent report drawing? ",
            "catchKey": -1,
            "catchResponse": -1,
            "catchTime": 1678909344741,
            "trialTime": 0
        },
        {
            "exptPart": "trial",
            "trialNumber": 54,
            "roleCurrent": "receiver",
            "marblesSampled": 100,
            "probRed": 0.5,
            "practiceLambda": 5,
            "trialLambda": 21.9,
            "instructedLambda": "dishonest_small",
            "drawnRed": 15,
            "reportedRed": 38,
            "inferredRed": 15,
            "playerTrialScore": 0,
            "oppTrialScore": 0,
            "playerTotalScore": -807,
            "oppTotalScore": 326,
            "waitTime": 5368.3088265863635,
            "responseTime": 1678909490102,
            "catchQuestion": "How many <b class=\"r\">red<\/b> marbles did your opponent report drawing? ",
            "catchKey": -1,
            "catchResponse": -1,
            "catchTime": 1678909344741,
            "trialTime": 0
        },
        {
            "exptPart": "trial",
            "trialNumber": 55,
            "roleCurrent": "receiver",
            "marblesSampled": 100,
            "probRed": 0.5,
            "practiceLambda": 5,
            "trialLambda": 21.9,
            "instructedLambda": "dishonest_small",
            "drawnRed": 47,
            "reportedRed": 63,
            "inferredRed": 25,
            "playerTrialScore": -22,
            "oppTrialScore": 0,
            "playerTotalScore": -829,
            "oppTotalScore": 326,
            "waitTime": 5313.383201695924,
            "responseTime": 1678909525814,
            "catchQuestion": "How many <b class=\"r\">red<\/b> marbles did your opponent report drawing? ",
            "catchKey": -1,
            "catchResponse": -1,
            "catchTime": 1678909344741,
            "trialTime": 0
        },
        {
            "exptPart": "trial",
            "trialNumber": 56,
            "roleCurrent": "receiver",
            "marblesSampled": 100,
            "probRed": 0.5,
            "practiceLambda": 5,
            "trialLambda": 21.9,
            "instructedLambda": "dishonest_small",
            "drawnRed": 34,
            "reportedRed": 55,
            "inferredRed": 24,
            "playerTrialScore": -10,
            "oppTrialScore": 0,
            "playerTotalScore": -839,
            "oppTotalScore": 326,
            "waitTime": 6448.096730502686,
            "responseTime": 1678909536824,
            "catchQuestion": "How many <b class=\"r\">red<\/b> marbles did your opponent report drawing? ",
            "catchKey": -1,
            "catchResponse": -1,
            "catchTime": 1678909344741,
            "trialTime": 0
        },
        {
            "exptPart": "trial",
            "trialNumber": 57,
            "roleCurrent": "receiver",
            "marblesSampled": 100,
            "probRed": 0.5,
            "practiceLambda": 5,
            "trialLambda": 21.9,
            "instructedLambda": "dishonest_small",
            "drawnRed": 60,
            "reportedRed": 84,
            "inferredRed": 35,
            "playerTrialScore": -25,
            "oppTrialScore": 0,
            "playerTotalScore": -864,
            "oppTotalScore": 326,
            "waitTime": 7071.903309308479,
            "responseTime": 1678909547620,
            "catchQuestion": "How many <b class=\"r\">red<\/b> marbles did your opponent report drawing? ",
            "catchKey": -1,
            "catchResponse": -1,
            "catchTime": 1678909344741,
            "trialTime": 0
        },
        {
            "exptPart": "trial",
            "trialNumber": 58,
            "roleCurrent": "receiver",
            "marblesSampled": 100,
            "probRed": 0.5,
            "practiceLambda": 5,
            "trialLambda": 21.9,
            "instructedLambda": "dishonest_small",
            "drawnRed": 35,
            "reportedRed": 65,
            "inferredRed": 45,
            "playerTrialScore": -10,
            "oppTrialScore": 10,
            "playerTotalScore": -874,
            "oppTotalScore": 336,
            "waitTime": 5881.822985057221,
            "responseTime": 1678909569354,
            "catchQuestion": "How many <b class=\"r\">red<\/b> marbles did your opponent report drawing? ",
            "catchKey": -1,
            "catchResponse": -1,
            "catchTime": 1678909344741,
            "trialTime": 0
        },
        {
            "exptPart": "trial",
            "trialNumber": 59,
            "roleCurrent": "receiver",
            "marblesSampled": 100,
            "probRed": 0.5,
            "practiceLambda": 5,
            "trialLambda": 21.9,
            "instructedLambda": "dishonest_small",
            "drawnRed": 41,
            "reportedRed": 58,
            "inferredRed": 48,
            "playerTrialScore": -7,
            "oppTrialScore": 7,
            "playerTotalScore": -881,
            "oppTotalScore": 343,
            "waitTime": 7109.24866867062,
            "responseTime": 1678909583646,
            "catchQuestion": "How many <b class=\"r\">red<\/b> marbles did your opponent report drawing? ",
            "catchKey": -1,
            "catchResponse": -1,
            "catchTime": 1678909344741,
            "trialTime": 0
        },
        {
            "exptPart": "trial",
            "trialNumber": 60,
            "roleCurrent": "receiver",
            "marblesSampled": 100,
            "probRed": 0.5,
            "practiceLambda": 5,
            "trialLambda": 21.9,
            "instructedLambda": "dishonest_small",
            "drawnRed": 48,
            "reportedRed": 71,
            "inferredRed": 80,
            "playerTrialScore": -32,
            "oppTrialScore": 32,
            "playerTotalScore": -913,
            "oppTotalScore": 375,
            "waitTime": 7024.466885913846,
            "responseTime": 1678909593789,
            "catchQuestion": "How many <b class=\"r\">red<\/b> marbles did your opponent report drawing? ",
            "catchKey": -1,
            "catchResponse": -1,
            "catchTime": 1678909593789,
            "trialTime": 0
        },
        {
            "exptPart": "trial",
            "trialNumber": 61,
            "roleCurrent": "receiver",
            "marblesSampled": 100,
            "probRed": 0.5,
            "practiceLambda": 5,
            "trialLambda": 21.9,
            "instructedLambda": "dishonest_small",
            "drawnRed": 73,
            "reportedRed": 100,
            "inferredRed": 50,
            "playerTrialScore": -23,
            "oppTrialScore": 0,
            "playerTotalScore": -936,
            "oppTotalScore": 375,
            "waitTime": 6305.019106862744,
            "responseTime": 1678909654418,
            "catchQuestion": "How many <b class=\"r\">red<\/b> marbles did your opponent report drawing? ",
            "catchKey": -1,
            "catchResponse": -1,
            "catchTime": 1678909593789,
            "trialTime": 0
        },
        {
            "exptPart": "trial",
            "trialNumber": 62,
            "roleCurrent": "receiver",
            "marblesSampled": 100,
            "probRed": 0.5,
            "practiceLambda": 5,
            "trialLambda": 21.9,
            "instructedLambda": "dishonest_small",
            "drawnRed": 49,
            "reportedRed": 60,
            "inferredRed": 30,
            "playerTrialScore": -19,
            "oppTrialScore": 0,
            "playerTotalScore": -955,
            "oppTotalScore": 375,
            "waitTime": 5146.733992905172,
            "responseTime": 1678909667153,
            "catchQuestion": "How many <b class=\"r\">red<\/b> marbles did your opponent report drawing? ",
            "catchKey": 60,
            "catchResponse": 60,
            "catchTime": 1678909667153,
            "trialTime": 0
        },
        {
            "exptPart": "trial",
            "trialNumber": 63,
            "roleCurrent": "receiver",
            "marblesSampled": 100,
            "probRed": 0.5,
            "practiceLambda": 5,
            "trialLambda": 21.9,
            "instructedLambda": "dishonest_small",
            "drawnRed": 54,
            "reportedRed": 78,
            "inferredRed": 85,
            "playerTrialScore": -31,
            "oppTrialScore": 31,
            "playerTotalScore": -986,
            "oppTotalScore": 406,
            "waitTime": 6419.497933768388,
            "responseTime": 1678909687916,
            "catchQuestion": "How many <b class=\"r\">red<\/b> marbles did your opponent report drawing? ",
            "catchKey": -1,
            "catchResponse": -1,
            "catchTime": 1678909667153,
            "trialTime": 0
        },
        {
            "exptPart": "trial",
            "trialNumber": 64,
            "roleCurrent": "receiver",
            "marblesSampled": 100,
            "probRed": 0.5,
            "practiceLambda": 5,
            "trialLambda": 21.9,
            "instructedLambda": "dishonest_small",
            "drawnRed": 67,
            "reportedRed": 96,
            "inferredRed": 85,
            "playerTrialScore": -18,
            "oppTrialScore": 18,
            "playerTotalScore": -1004,
            "oppTotalScore": 424,
            "waitTime": 6026.859038876988,
            "responseTime": 1678909700400,
            "catchQuestion": "How many <b class=\"r\">red<\/b> marbles did your opponent report drawing? ",
            "catchKey": -1,
            "catchResponse": -1,
            "catchTime": 1678909667153,
            "trialTime": 0
        },
        {
            "exptPart": "trial",
            "trialNumber": 65,
            "roleCurrent": "receiver",
            "marblesSampled": 100,
            "probRed": 0.5,
            "practiceLambda": 5,
            "trialLambda": 21.9,
            "instructedLambda": "dishonest_small",
            "drawnRed": 39,
            "reportedRed": 63,
            "inferredRed": 75,
            "playerTrialScore": -36,
            "oppTrialScore": 36,
            "playerTotalScore": -1040,
            "oppTotalScore": 460,
            "waitTime": 5328.530611110578,
            "responseTime": 1678909710277,
            "catchQuestion": "How many <b class=\"r\">red<\/b> marbles did your opponent report drawing? ",
            "catchKey": -1,
            "catchResponse": -1,
            "catchTime": 1678909667153,
            "trialTime": 0
        },
        {
            "exptPart": "trial",
            "trialNumber": 66,
            "roleCurrent": "receiver",
            "marblesSampled": 100,
            "probRed": 0.5,
            "practiceLambda": 5,
            "trialLambda": 21.9,
            "instructedLambda": "dishonest_small",
            "drawnRed": 64,
            "reportedRed": 89,
            "inferredRed": 75,
            "playerTrialScore": -11,
            "oppTrialScore": 11,
            "playerTotalScore": -1051,
            "oppTotalScore": 471,
            "waitTime": 7217.665654424416,
            "responseTime": 1678909722690,
            "catchQuestion": "How many <b class=\"r\">red<\/b> marbles did your opponent report drawing? ",
            "catchKey": -1,
            "catchResponse": -1,
            "catchTime": 1678909667153,
            "trialTime": 0
        },
        {
            "exptPart": "trial",
            "trialNumber": 67,
            "roleCurrent": "receiver",
            "marblesSampled": 100,
            "probRed": 0.5,
            "practiceLambda": 5,
            "trialLambda": 21.9,
            "instructedLambda": "dishonest_small",
            "drawnRed": 13,
            "reportedRed": 31,
            "inferredRed": 50,
            "playerTrialScore": -37,
            "oppTrialScore": 37,
            "playerTotalScore": -1088,
            "oppTotalScore": 508,
            "waitTime": 6746.3795557705025,
            "responseTime": 1678909745028,
            "catchQuestion": "How many <b class=\"r\">red<\/b> marbles did your opponent report drawing? ",
            "catchKey": -1,
            "catchResponse": -1,
            "catchTime": 1678909667153,
            "trialTime": 0
        },
        {
            "exptPart": "trial",
            "trialNumber": 68,
            "roleCurrent": "receiver",
            "marblesSampled": 100,
            "probRed": 0.5,
            "practiceLambda": 5,
            "trialLambda": 21.9,
            "instructedLambda": "dishonest_small",
            "drawnRed": 32,
            "reportedRed": 52,
            "inferredRed": 58,
            "playerTrialScore": -26,
            "oppTrialScore": 26,
            "playerTotalScore": -1114,
            "oppTotalScore": 534,
            "waitTime": 6265.269820564841,
            "responseTime": 1678909757976,
            "catchQuestion": "How many <b class=\"r\">red<\/b> marbles did your opponent report drawing? ",
            "catchKey": -1,
            "catchResponse": -1,
            "catchTime": 1678909667153,
            "trialTime": 0
        },
        {
            "exptPart": "trial",
            "trialNumber": 69,
            "roleCurrent": "receiver",
            "marblesSampled": 100,
            "probRed": 0.5,
            "practiceLambda": 5,
            "trialLambda": 21.9,
            "instructedLambda": "dishonest_small",
            "drawnRed": 93,
            "reportedRed": 100,
            "inferredRed": 54,
            "playerTrialScore": -39,
            "oppTrialScore": 0,
            "playerTotalScore": -1153,
            "oppTotalScore": 534,
            "waitTime": 6197.868139760994,
            "responseTime": 1678909768241,
            "catchQuestion": "How many <b class=\"r\">red<\/b> marbles did your opponent report drawing? ",
            "catchKey": -1,
            "catchResponse": -1,
            "catchTime": 1678909667153,
            "trialTime": 0
        },
        {
            "exptPart": "trial",
            "trialNumber": 70,
            "roleCurrent": "receiver",
            "marblesSampled": 100,
            "probRed": 0.5,
            "practiceLambda": 5,
            "trialLambda": 21.9,
            "instructedLambda": "dishonest_small",
            "drawnRed": 27,
            "reportedRed": 59,
            "inferredRed": 45,
            "playerTrialScore": -18,
            "oppTrialScore": 18,
            "playerTotalScore": -1171,
            "oppTotalScore": 552,
            "waitTime": 6144.624342432426,
            "responseTime": 1678909777907,
            "catchQuestion": "How many <b class=\"r\">red<\/b> marbles did your opponent report drawing? ",
            "catchKey": -1,
            "catchResponse": -1,
            "catchTime": 1678909777907,
            "trialTime": 0
        },
        {
            "exptPart": "trial",
            "trialNumber": 71,
            "roleCurrent": "receiver",
            "marblesSampled": 100,
            "probRed": 0.5,
            "practiceLambda": 5,
            "trialLambda": 21.9,
            "instructedLambda": "dishonest_small",
            "drawnRed": 49,
            "reportedRed": 66,
            "inferredRed": 10,
            "playerTrialScore": -39,
            "oppTrialScore": 0,
            "playerTotalScore": -1210,
            "oppTotalScore": 552,
            "waitTime": 5145.213101875566,
            "responseTime": 1678909789543,
            "catchQuestion": "How many <b class=\"r\">red<\/b> marbles did your opponent report drawing? ",
            "catchKey": -1,
            "catchResponse": -1,
            "catchTime": 1678909777907,
            "trialTime": 0
        },
        {
            "exptPart": "trial",
            "trialNumber": 72,
            "roleCurrent": "receiver",
            "marblesSampled": 100,
            "probRed": 0.5,
            "practiceLambda": 5,
            "trialLambda": 21.9,
            "instructedLambda": "dishonest_small",
            "drawnRed": 32,
            "reportedRed": 61,
            "inferredRed": 15,
            "playerTrialScore": -17,
            "oppTrialScore": 0,
            "playerTotalScore": -1227,
            "oppTotalScore": 552,
            "waitTime": 6897.216842886808,
            "responseTime": 1678909799672,
            "catchQuestion": "How many <b class=\"r\">red<\/b> marbles did your opponent report drawing? ",
            "catchKey": 61,
            "catchResponse": 56,
            "catchTime": 1678909799672,
            "trialTime": 0
        },
        {
            "exptPart": "trial",
            "trialNumber": 73,
            "roleCurrent": "receiver",
            "marblesSampled": 100,
            "probRed": 0.5,
            "practiceLambda": 5,
            "trialLambda": 21.9,
            "instructedLambda": "dishonest_small",
            "drawnRed": 41,
            "reportedRed": 58,
            "inferredRed": 25,
            "playerTrialScore": -16,
            "oppTrialScore": 0,
            "playerTotalScore": -1243,
            "oppTotalScore": 552,
            "waitTime": 5793.247895595265,
            "responseTime": 1678909821649,
            "catchQuestion": "How many <b class=\"r\">red<\/b> marbles did your opponent report drawing? ",
            "catchKey": -1,
            "catchResponse": -1,
            "catchTime": 1678909799672,
            "trialTime": 0
        },
        {
            "exptPart": "trial",
            "trialNumber": 74,
            "roleCurrent": "receiver",
            "marblesSampled": 100,
            "probRed": 0.5,
            "practiceLambda": 5,
            "trialLambda": 21.9,
            "instructedLambda": "dishonest_small",
            "drawnRed": 42,
            "reportedRed": 59,
            "inferredRed": 20,
            "playerTrialScore": -22,
            "oppTrialScore": 0,
            "playerTotalScore": -1265,
            "oppTotalScore": 552,
            "waitTime": 6224.58582694592,
            "responseTime": 1678909832185,
            "catchQuestion": "How many <b class=\"r\">red<\/b> marbles did your opponent report drawing? ",
            "catchKey": -1,
            "catchResponse": -1,
            "catchTime": 1678909799672,
            "trialTime": 0
        },
        {
            "exptPart": "trial",
            "trialNumber": 75,
            "roleCurrent": "receiver",
            "marblesSampled": 100,
            "probRed": 0.5,
            "practiceLambda": 5,
            "trialLambda": 21.9,
            "instructedLambda": "dishonest_small",
            "drawnRed": 52,
            "reportedRed": 68,
            "inferredRed": 15,
            "playerTrialScore": -37,
            "oppTrialScore": 0,
            "playerTotalScore": -1302,
            "oppTotalScore": 552,
            "waitTime": 5699.148019119747,
            "responseTime": 1678909841113,
            "catchQuestion": "How many <b class=\"r\">red<\/b> marbles did your opponent report drawing? ",
            "catchKey": -1,
            "catchResponse": -1,
            "catchTime": 1678909799672,
            "trialTime": 0
        },
        {
            "exptPart": "trial",
            "trialNumber": 76,
            "roleCurrent": "receiver",
            "marblesSampled": 100,
            "probRed": 0.5,
            "practiceLambda": 5,
            "trialLambda": 21.9,
            "instructedLambda": "dishonest_small",
            "drawnRed": 42,
            "reportedRed": 74,
            "inferredRed": 35,
            "playerTrialScore": -7,
            "oppTrialScore": 0,
            "playerTotalScore": -1309,
            "oppTotalScore": 552,
            "waitTime": 5393.5275340708395,
            "responseTime": 1678909851779,
            "catchQuestion": "How many <b class=\"r\">red<\/b> marbles did your opponent report drawing? ",
            "catchKey": -1,
            "catchResponse": -1,
            "catchTime": 1678909799672,
            "trialTime": 0
        },
        {
            "exptPart": "trial",
            "trialNumber": 77,
            "roleCurrent": "receiver",
            "marblesSampled": 100,
            "probRed": 0.5,
            "practiceLambda": 5,
            "trialLambda": 21.9,
            "instructedLambda": "dishonest_small",
            "drawnRed": 40,
            "reportedRed": 57,
            "inferredRed": 35,
            "playerTrialScore": -5,
            "oppTrialScore": 0,
            "playerTotalScore": -1314,
            "oppTotalScore": 552,
            "waitTime": 7190.0396606382865,
            "responseTime": 1678909862744,
            "catchQuestion": "How many <b class=\"r\">red<\/b> marbles did your opponent report drawing? ",
            "catchKey": -1,
            "catchResponse": -1,
            "catchTime": 1678909799672,
            "trialTime": 0
        },
        {
            "exptPart": "trial",
            "trialNumber": 78,
            "roleCurrent": "receiver",
            "marblesSampled": 100,
            "probRed": 0.5,
            "practiceLambda": 5,
            "trialLambda": 21.9,
            "instructedLambda": "dishonest_small",
            "drawnRed": 23,
            "reportedRed": 43,
            "inferredRed": 23,
            "playerTrialScore": 0,
            "oppTrialScore": 0,
            "playerTotalScore": -1314,
            "oppTotalScore": 552,
            "waitTime": 7306.759848420688,
            "responseTime": 1678909873953,
            "catchQuestion": "How many <b class=\"r\">red<\/b> marbles did your opponent report drawing? ",
            "catchKey": -1,
            "catchResponse": -1,
            "catchTime": 1678909799672,
            "trialTime": 0
        },
        {
            "exptPart": "trial",
            "trialNumber": 79,
            "roleCurrent": "receiver",
            "marblesSampled": 100,
            "probRed": 0.5,
            "practiceLambda": 5,
            "trialLambda": 21.9,
            "instructedLambda": "dishonest_small",
            "drawnRed": 63,
            "reportedRed": 88,
            "inferredRed": 10,
            "playerTrialScore": -53,
            "oppTrialScore": 0,
            "playerTotalScore": -1367,
            "oppTotalScore": 552,
            "waitTime": 5608.160892381564,
            "responseTime": 1678909883974,
            "catchQuestion": "How many <b class=\"r\">red<\/b> marbles did your opponent report drawing? ",
            "catchKey": 88,
            "catchResponse": 88,
            "catchTime": 1678909883974,
            "trialTime": 0
        },
        {
            "exptPart": "trial",
            "trialNumber": 80,
            "roleCurrent": "receiver",
            "marblesSampled": 100,
            "probRed": 0.5,
            "practiceLambda": 5,
            "trialLambda": 21.9,
            "instructedLambda": "dishonest_small",
            "drawnRed": 39,
            "reportedRed": 68,
            "inferredRed": 46,
            "playerTrialScore": -7,
            "oppTrialScore": 7,
            "playerTotalScore": -1374,
            "oppTotalScore": 559,
            "waitTime": 5696.433110465598,
            "responseTime": 1678909902244,
            "catchQuestion": "How many <b class=\"r\">red<\/b> marbles did your opponent report drawing? ",
            "catchKey": -1,
            "catchResponse": -1,
            "catchTime": 1678909902244,
            "trialTime": 0
        },
        {
            "exptPart": "trial",
            "trialNumber": 81,
            "roleCurrent": "receiver",
            "marblesSampled": 100,
            "probRed": 0.5,
            "practiceLambda": 5,
            "trialLambda": 21.9,
            "instructedLambda": "dishonest_small",
            "drawnRed": 50,
            "reportedRed": 61,
            "inferredRed": 80,
            "playerTrialScore": -30,
            "oppTrialScore": 30,
            "playerTotalScore": -1404,
            "oppTotalScore": 589,
            "waitTime": 5708.513990882334,
            "responseTime": 1678909915611,
            "catchQuestion": "How many <b class=\"r\">red<\/b> marbles did your opponent report drawing? ",
            "catchKey": -1,
            "catchResponse": -1,
            "catchTime": 1678909902244,
            "trialTime": 0
        },
        {
            "exptPart": "trial",
            "trialNumber": 82,
            "roleCurrent": "receiver",
            "marblesSampled": 100,
            "probRed": 0.5,
            "practiceLambda": 5,
            "trialLambda": 21.9,
            "instructedLambda": "dishonest_small",
            "drawnRed": 78,
            "reportedRed": 100,
            "inferredRed": 52,
            "playerTrialScore": -26,
            "oppTrialScore": 0,
            "playerTotalScore": -1430,
            "oppTotalScore": 589,
            "waitTime": 6982.179907311171,
            "responseTime": 1678909927193,
            "catchQuestion": "How many <b class=\"r\">red<\/b> marbles did your opponent report drawing? ",
            "catchKey": -1,
            "catchResponse": -1,
            "catchTime": 1678909902244,
            "trialTime": 0
        },
        {
            "exptPart": "trial",
            "trialNumber": 83,
            "roleCurrent": "receiver",
            "marblesSampled": 100,
            "probRed": 0.5,
            "practiceLambda": 5,
            "trialLambda": 21.9,
            "instructedLambda": "dishonest_small",
            "drawnRed": 57,
            "reportedRed": 80,
            "inferredRed": 50,
            "playerTrialScore": -7,
            "oppTrialScore": 0,
            "playerTotalScore": -1437,
            "oppTotalScore": 589,
            "waitTime": 7121.542563488114,
            "responseTime": 1678909949435,
            "catchQuestion": "How many <b class=\"r\">red<\/b> marbles did your opponent report drawing? ",
            "catchKey": -1,
            "catchResponse": -1,
            "catchTime": 1678909902244,
            "trialTime": 0
        },
        {
            "exptPart": "trial",
            "trialNumber": 84,
            "roleCurrent": "receiver",
            "marblesSampled": 100,
            "probRed": 0.5,
            "practiceLambda": 5,
            "trialLambda": 21.9,
            "instructedLambda": "dishonest_small",
            "drawnRed": 60,
            "reportedRed": 88,
            "inferredRed": 45,
            "playerTrialScore": -15,
            "oppTrialScore": 0,
            "playerTotalScore": -1452,
            "oppTotalScore": 589,
            "waitTime": 5214.638095621865,
            "responseTime": 1678909957005,
            "catchQuestion": "How many <b class=\"r\">red<\/b> marbles did your opponent report drawing? ",
            "catchKey": -1,
            "catchResponse": -1,
            "catchTime": 1678909902244,
            "trialTime": 0
        },
        {
            "exptPart": "trial",
            "trialNumber": 85,
            "roleCurrent": "receiver",
            "marblesSampled": 100,
            "probRed": 0.5,
            "practiceLambda": 5,
            "trialLambda": 21.9,
            "instructedLambda": "dishonest_small",
            "drawnRed": 69,
            "reportedRed": 90,
            "inferredRed": 50,
            "playerTrialScore": -19,
            "oppTrialScore": 0,
            "playerTotalScore": -1471,
            "oppTotalScore": 589,
            "waitTime": 7469.480637718462,
            "responseTime": 1678909969904,
            "catchQuestion": "How many <b class=\"r\">red<\/b> marbles did your opponent report drawing? ",
            "catchKey": -1,
            "catchResponse": -1,
            "catchTime": 1678909902244,
            "trialTime": 0
        },
        {
            "exptPart": "trial",
            "trialNumber": 86,
            "roleCurrent": "receiver",
            "marblesSampled": 100,
            "probRed": 0.5,
            "practiceLambda": 5,
            "trialLambda": 21.9,
            "instructedLambda": "dishonest_small",
            "drawnRed": 30,
            "reportedRed": 64,
            "inferredRed": 50,
            "playerTrialScore": -20,
            "oppTrialScore": 20,
            "playerTotalScore": -1491,
            "oppTotalScore": 609,
            "waitTime": 5622.473012307917,
            "responseTime": 1678909980603,
            "catchQuestion": "How many <b class=\"r\">red<\/b> marbles did your opponent report drawing? ",
            "catchKey": -1,
            "catchResponse": -1,
            "catchTime": 1678909902244,
            "trialTime": 0
        },
        {
            "exptPart": "trial",
            "trialNumber": 87,
            "roleCurrent": "receiver",
            "marblesSampled": 100,
            "probRed": 0.5,
            "practiceLambda": 5,
            "trialLambda": 21.9,
            "instructedLambda": "dishonest_small",
            "drawnRed": 17,
            "reportedRed": 37,
            "inferredRed": 50,
            "playerTrialScore": -33,
            "oppTrialScore": 33,
            "playerTotalScore": -1524,
            "oppTotalScore": 642,
            "waitTime": 5409.534300261006,
            "responseTime": 1678909996348,
            "catchQuestion": "How many <b class=\"r\">red<\/b> marbles did your opponent report drawing? ",
            "catchKey": 37,
            "catchResponse": 37,
            "catchTime": 1678909996348,
            "trialTime": 0
        },
        {
            "exptPart": "trial",
            "trialNumber": 88,
            "roleCurrent": "receiver",
            "marblesSampled": 100,
            "probRed": 0.5,
            "practiceLambda": 5,
            "trialLambda": 21.9,
            "instructedLambda": "dishonest_small",
            "drawnRed": 22,
            "reportedRed": 51,
            "inferredRed": 50,
            "playerTrialScore": -28,
            "oppTrialScore": 28,
            "playerTotalScore": -1552,
            "oppTotalScore": 670,
            "waitTime": 5977.18671878088,
            "responseTime": 1678910015755,
            "catchQuestion": "How many <b class=\"r\">red<\/b> marbles did your opponent report drawing? ",
            "catchKey": -1,
            "catchResponse": -1,
            "catchTime": 1678909996348,
            "trialTime": 0
        },
        {
            "exptPart": "trial",
            "trialNumber": 89,
            "roleCurrent": "receiver",
            "marblesSampled": 100,
            "probRed": 0.5,
            "practiceLambda": 5,
            "trialLambda": 21.9,
            "instructedLambda": "dishonest_small",
            "drawnRed": 67,
            "reportedRed": 91,
            "inferredRed": 50,
            "playerTrialScore": -17,
            "oppTrialScore": 0,
            "playerTotalScore": -1569,
            "oppTotalScore": 670,
            "waitTime": 6313.870724658123,
            "responseTime": 1678910029061,
            "catchQuestion": "How many <b class=\"r\">red<\/b> marbles did your opponent report drawing? ",
            "catchKey": -1,
            "catchResponse": -1,
            "catchTime": 1678909996348,
            "trialTime": 0
        },
        {
            "exptPart": "trial",
            "trialNumber": 90,
            "roleCurrent": "receiver",
            "marblesSampled": 100,
            "probRed": 0.5,
            "practiceLambda": 5,
            "trialLambda": 21.9,
            "instructedLambda": "dishonest_small",
            "drawnRed": 41,
            "reportedRed": 55,
            "inferredRed": 50,
            "playerTrialScore": -9,
            "oppTrialScore": 9,
            "playerTotalScore": -1578,
            "oppTotalScore": 679,
            "waitTime": 5810.066289131714,
            "responseTime": 1678910044032,
            "catchQuestion": "How many <b class=\"r\">red<\/b> marbles did your opponent report drawing? ",
            "catchKey": -1,
            "catchResponse": -1,
            "catchTime": 1678910044032,
            "trialTime": 0
        },
        {
            "exptPart": "trial",
            "trialNumber": 91,
            "roleCurrent": "receiver",
            "marblesSampled": 100,
            "probRed": 0.5,
            "practiceLambda": 5,
            "trialLambda": 21.9,
            "instructedLambda": "dishonest_small",
            "drawnRed": 83,
            "reportedRed": 100,
            "inferredRed": 10,
            "playerTrialScore": -73,
            "oppTrialScore": 0,
            "playerTotalScore": -1651,
            "oppTotalScore": 679,
            "waitTime": 5237.266230579809,
            "responseTime": 1678910058798,
            "catchQuestion": "How many <b class=\"r\">red<\/b> marbles did your opponent report drawing? ",
            "catchKey": -1,
            "catchResponse": -1,
            "catchTime": 1678910044032,
            "trialTime": 0
        },
        {
            "exptPart": "trial",
            "trialNumber": 92,
            "roleCurrent": "receiver",
            "marblesSampled": 100,
            "probRed": 0.5,
            "practiceLambda": 5,
            "trialLambda": 21.9,
            "instructedLambda": "dishonest_small",
            "drawnRed": 41,
            "reportedRed": 71,
            "inferredRed": 10,
            "playerTrialScore": -31,
            "oppTrialScore": 0,
            "playerTotalScore": -1682,
            "oppTotalScore": 679,
            "waitTime": 6776.51421898773,
            "responseTime": 1678910069414,
            "catchQuestion": "How many <b class=\"r\">red<\/b> marbles did your opponent report drawing? ",
            "catchKey": -1,
            "catchResponse": -1,
            "catchTime": 1678910044032,
            "trialTime": 0
        },
        {
            "exptPart": "trial",
            "trialNumber": 93,
            "roleCurrent": "receiver",
            "marblesSampled": 100,
            "probRed": 0.5,
            "practiceLambda": 5,
            "trialLambda": 21.9,
            "instructedLambda": "dishonest_small",
            "drawnRed": 80,
            "reportedRed": 100,
            "inferredRed": 10,
            "playerTrialScore": -70,
            "oppTrialScore": 0,
            "playerTotalScore": -1752,
            "oppTotalScore": 679,
            "waitTime": 5437.741992813084,
            "responseTime": 1678910077571,
            "catchQuestion": "How many <b class=\"r\">red<\/b> marbles did your opponent report drawing? ",
            "catchKey": 100,
            "catchResponse": 100,
            "catchTime": 1678910077571,
            "trialTime": 0
        },
        {
            "exptPart": "trial",
            "trialNumber": 94,
            "roleCurrent": "receiver",
            "marblesSampled": 100,
            "probRed": 0.5,
            "practiceLambda": 5,
            "trialLambda": 21.9,
            "instructedLambda": "dishonest_small",
            "drawnRed": 70,
            "reportedRed": 84,
            "inferredRed": 15,
            "playerTrialScore": -55,
            "oppTrialScore": 0,
            "playerTotalScore": -1807,
            "oppTotalScore": 679,
            "waitTime": 6697.468949970641,
            "responseTime": 1678910092559,
            "catchQuestion": "How many <b class=\"r\">red<\/b> marbles did your opponent report drawing? ",
            "catchKey": -1,
            "catchResponse": -1,
            "catchTime": 1678910077571,
            "trialTime": 0
        },
        {
            "exptPart": "trial",
            "trialNumber": 95,
            "roleCurrent": "receiver",
            "marblesSampled": 100,
            "probRed": 0.5,
            "practiceLambda": 5,
            "trialLambda": 21.9,
            "instructedLambda": "dishonest_small",
            "drawnRed": 72,
            "reportedRed": 95,
            "inferredRed": 35,
            "playerTrialScore": -37,
            "oppTrialScore": 0,
            "playerTotalScore": -1844,
            "oppTotalScore": 679,
            "waitTime": 6216.858463822606,
            "responseTime": 1678910102520,
            "catchQuestion": "How many <b class=\"r\">red<\/b> marbles did your opponent report drawing? ",
            "catchKey": -1,
            "catchResponse": -1,
            "catchTime": 1678910077571,
            "trialTime": 0
        },
        {
            "exptPart": "trial",
            "trialNumber": 96,
            "roleCurrent": "receiver",
            "marblesSampled": 100,
            "probRed": 0.5,
            "practiceLambda": 5,
            "trialLambda": 21.9,
            "instructedLambda": "dishonest_small",
            "drawnRed": 77,
            "reportedRed": 100,
            "inferredRed": 45,
            "playerTrialScore": -32,
            "oppTrialScore": 0,
            "playerTotalScore": -1876,
            "oppTotalScore": 679,
            "waitTime": 5568.209206408967,
            "responseTime": 1678910112856,
            "catchQuestion": "How many <b class=\"r\">red<\/b> marbles did your opponent report drawing? ",
            "catchKey": -1,
            "catchResponse": -1,
            "catchTime": 1678910077571,
            "trialTime": 0
        },
        {
            "exptPart": "trial",
            "trialNumber": 97,
            "roleCurrent": "receiver",
            "marblesSampled": 100,
            "probRed": 0.5,
            "practiceLambda": 5,
            "trialLambda": 21.9,
            "instructedLambda": "dishonest_small",
            "drawnRed": 41,
            "reportedRed": 60,
            "inferredRed": 15,
            "playerTrialScore": -26,
            "oppTrialScore": 0,
            "playerTotalScore": -1902,
            "oppTotalScore": 679,
            "waitTime": 5795.0316673693615,
            "responseTime": 1678910131600,
            "catchQuestion": "How many <b class=\"r\">red<\/b> marbles did your opponent report drawing? ",
            "catchKey": -1,
            "catchResponse": -1,
            "catchTime": 1678910077571,
            "trialTime": 0
        },
        {
            "exptPart": "trial",
            "trialNumber": 98,
            "roleCurrent": "receiver",
            "marblesSampled": 100,
            "probRed": 0.5,
            "practiceLambda": 5,
            "trialLambda": 21.9,
            "instructedLambda": "dishonest_small",
            "drawnRed": 62,
            "reportedRed": 83,
            "inferredRed": 24,
            "playerTrialScore": -38,
            "oppTrialScore": 0,
            "playerTotalScore": -1940,
            "oppTotalScore": 679,
            "waitTime": 6091.774024554737,
            "responseTime": 1678910141480,
            "catchQuestion": "How many <b class=\"r\">red<\/b> marbles did your opponent report drawing? ",
            "catchKey": -1,
            "catchResponse": -1,
            "catchTime": 1678910077571,
            "trialTime": 0
        },
        {
            "exptPart": "trial",
            "trialNumber": 99,
            "roleCurrent": "receiver",
            "marblesSampled": 100,
            "probRed": 0.5,
            "practiceLambda": 5,
            "trialLambda": 21.9,
            "instructedLambda": "dishonest_small",
            "drawnRed": 61,
            "reportedRed": 81,
            "inferredRed": 15,
            "playerTrialScore": -46,
            "oppTrialScore": 0,
            "playerTotalScore": -1986,
            "oppTotalScore": 679,
            "waitTime": 5956.214581458058,
            "responseTime": 1678910158164,
            "catchQuestion": "How many <b class=\"r\">red<\/b> marbles did your opponent report drawing? ",
            "catchKey": -1,
            "catchResponse": -1,
            "catchTime": 1678910077571,
            "trialTime": 0
        },
        {
            "exptPart": "trial",
            "trialNumber": 100,
            "roleCurrent": "receiver",
            "marblesSampled": 100,
            "probRed": 0.5,
            "practiceLambda": 5,
            "trialLambda": 21.9,
            "instructedLambda": "dishonest_small",
            "drawnRed": 68,
            "reportedRed": 87,
            "inferredRed": 24,
            "playerTrialScore": -44,
            "oppTrialScore": 0,
            "playerTotalScore": -2030,
            "oppTotalScore": 679,
            "waitTime": 7438.0295055085835,
            "responseTime": 1678910168921,
            "catchQuestion": "How many <b class=\"r\">red<\/b> marbles did your opponent report drawing? ",
            "catchKey": -1,
            "catchResponse": -1,
            "catchTime": 1678910168921,
            "trialTime": 0
        }
    ]
}