{
    "client": {
        "type": "sona",
        "experiment_id": 2228,
        "credit_token": "b315147ae43241ea9c65086cb510cfb7",
        "survey_code": "45702",
        "sid": "sona-45702",
        "window": {
            "width": 1440,
            "height": 764
        },
        "screen": {
            "width": 1440,
            "height": 900
        },
        "userAgent": "Mozilla\/5.0 (Macintosh; Intel Mac OS X 10_15_7) AppleWebKit\/537.36 (KHTML, like Gecko) Chrome\/111.0.0.0 Safari\/537.36",
        "score": 0,
        "bonus": 0
    },
    "expt": {
        "saveURL": "submit.simple.php",
        "trials": 100,
        "practiceTrials": 2,
        "marblesSampled": 100,
        "probRed": 0.5,
        "practiceLambdaAI": 5,
        "lambdaAI": 0.3,
        "roles": [
            "sender",
            "receiver"
        ],
        "cost": "unif",
        "goal": "over",
        "oppDishonesty": "dishonest_small",
        "catchTrials": [
            74,
            20,
            12,
            60,
            45,
            72,
            78,
            79,
            89,
            32
        ],
        "scoreTotal": {
            "player": -368,
            "opp": 224
        },
        "sona": {
            "experiment_id": 2228,
            "credit_token": "b315147ae43241ea9c65086cb510cfb7"
        },
        "pilot": false,
        "debug": false
    },
    "trials": [
        {
            "exptPart": "practice",
            "trialNumber": 1,
            "roleCurrent": "sender",
            "marblesSampled": 100,
            "probRed": 0.5,
            "practiceLambda": 5,
            "trialLambda": 0.3,
            "instructedLambda": "dishonest_small",
            "drawnRed": 27,
            "reportedRed": 27,
            "inferredRed": 21,
            "playerTrialScore": 0,
            "oppTrialScore": -6,
            "playerTotalScore": 0,
            "oppTotalScore": -6,
            "waitTime": 2163.32223890253,
            "responseTime": 1680845701016,
            "catchQuestion": "How many <b class=\"r\">red<\/b> marbles did you actually draw (before any changes)? ",
            "catchKey": 27,
            "catchResponse": 27,
            "catchTime": 1680845701017,
            "trialTime": 0
        },
        {
            "exptPart": "practice",
            "trialNumber": 2,
            "roleCurrent": "receiver",
            "marblesSampled": 100,
            "probRed": 0.5,
            "practiceLambda": 5,
            "trialLambda": 0.3,
            "instructedLambda": "dishonest_small",
            "drawnRed": 61,
            "reportedRed": 68,
            "inferredRed": 55,
            "playerTrialScore": -6,
            "oppTrialScore": 0,
            "playerTotalScore": -6,
            "oppTotalScore": -6,
            "waitTime": 6509.017621635769,
            "responseTime": 1680845728666,
            "catchQuestion": "How many <b class=\"r\">red<\/b> marbles did your opponent report drawing? ",
            "catchKey": 68,
            "catchResponse": 68,
            "catchTime": 1680845728666,
            "trialTime": 0
        },
        {
            "exptPart": "trial",
            "trialNumber": 1,
            "roleCurrent": "receiver",
            "marblesSampled": 100,
            "probRed": 0.5,
            "practiceLambda": 5,
            "trialLambda": 0.3,
            "instructedLambda": "dishonest_small",
            "drawnRed": 47,
            "reportedRed": 47,
            "inferredRed": 43,
            "playerTrialScore": -4,
            "oppTrialScore": 0,
            "playerTotalScore": -4,
            "oppTotalScore": 0,
            "waitTime": 7453.485897584299,
            "responseTime": 1680845757607,
            "catchQuestion": "How many <b class=\"r\">red<\/b> marbles did your opponent report drawing? ",
            "catchKey": -1,
            "catchResponse": -1,
            "catchTime": 1680845728666,
            "trialTime": 0
        },
        {
            "exptPart": "trial",
            "trialNumber": 2,
            "roleCurrent": "receiver",
            "marblesSampled": 100,
            "probRed": 0.5,
            "practiceLambda": 5,
            "trialLambda": 0.3,
            "instructedLambda": "dishonest_small",
            "drawnRed": 25,
            "reportedRed": 26,
            "inferredRed": 30,
            "playerTrialScore": -5,
            "oppTrialScore": 5,
            "playerTotalScore": -9,
            "oppTotalScore": 5,
            "waitTime": 5348.242527820352,
            "responseTime": 1680845770743,
            "catchQuestion": "How many <b class=\"r\">red<\/b> marbles did your opponent report drawing? ",
            "catchKey": -1,
            "catchResponse": -1,
            "catchTime": 1680845728666,
            "trialTime": 0
        },
        {
            "exptPart": "trial",
            "trialNumber": 3,
            "roleCurrent": "receiver",
            "marblesSampled": 100,
            "probRed": 0.5,
            "practiceLambda": 5,
            "trialLambda": 0.3,
            "instructedLambda": "dishonest_small",
            "drawnRed": 22,
            "reportedRed": 22,
            "inferredRed": 10,
            "playerTrialScore": -12,
            "oppTrialScore": 0,
            "playerTotalScore": -21,
            "oppTotalScore": 5,
            "waitTime": 6458.335820327235,
            "responseTime": 1680845780376,
            "catchQuestion": "How many <b class=\"r\">red<\/b> marbles did your opponent report drawing? ",
            "catchKey": -1,
            "catchResponse": -1,
            "catchTime": 1680845728666,
            "trialTime": 0
        },
        {
            "exptPart": "trial",
            "trialNumber": 4,
            "roleCurrent": "receiver",
            "marblesSampled": 100,
            "probRed": 0.5,
            "practiceLambda": 5,
            "trialLambda": 0.3,
            "instructedLambda": "dishonest_small",
            "drawnRed": 75,
            "reportedRed": 75,
            "inferredRed": 80,
            "playerTrialScore": -5,
            "oppTrialScore": 5,
            "playerTotalScore": -26,
            "oppTotalScore": 10,
            "waitTime": 6601.39865066499,
            "responseTime": 1680845793136,
            "catchQuestion": "How many <b class=\"r\">red<\/b> marbles did your opponent report drawing? ",
            "catchKey": -1,
            "catchResponse": -1,
            "catchTime": 1680845728666,
            "trialTime": 0
        },
        {
            "exptPart": "trial",
            "trialNumber": 5,
            "roleCurrent": "receiver",
            "marblesSampled": 100,
            "probRed": 0.5,
            "practiceLambda": 5,
            "trialLambda": 0.3,
            "instructedLambda": "dishonest_small",
            "drawnRed": 47,
            "reportedRed": 47,
            "inferredRed": 50,
            "playerTrialScore": -3,
            "oppTrialScore": 3,
            "playerTotalScore": -29,
            "oppTotalScore": 13,
            "waitTime": 5903.89535282997,
            "responseTime": 1680845839785,
            "catchQuestion": "How many <b class=\"r\">red<\/b> marbles did your opponent report drawing? ",
            "catchKey": -1,
            "catchResponse": -1,
            "catchTime": 1680845728666,
            "trialTime": 0
        },
        {
            "exptPart": "trial",
            "trialNumber": 6,
            "roleCurrent": "receiver",
            "marblesSampled": 100,
            "probRed": 0.5,
            "practiceLambda": 5,
            "trialLambda": 0.3,
            "instructedLambda": "dishonest_small",
            "drawnRed": 66,
            "reportedRed": 66,
            "inferredRed": 66,
            "playerTrialScore": 0,
            "oppTrialScore": 0,
            "playerTotalScore": -29,
            "oppTotalScore": 13,
            "waitTime": 5268.868724251995,
            "responseTime": 1680845850452,
            "catchQuestion": "How many <b class=\"r\">red<\/b> marbles did your opponent report drawing? ",
            "catchKey": -1,
            "catchResponse": -1,
            "catchTime": 1680845728666,
            "trialTime": 0
        },
        {
            "exptPart": "trial",
            "trialNumber": 7,
            "roleCurrent": "receiver",
            "marblesSampled": 100,
            "probRed": 0.5,
            "practiceLambda": 5,
            "trialLambda": 0.3,
            "instructedLambda": "dishonest_small",
            "drawnRed": 37,
            "reportedRed": 37,
            "inferredRed": 40,
            "playerTrialScore": -3,
            "oppTrialScore": 3,
            "playerTotalScore": -32,
            "oppTotalScore": 16,
            "waitTime": 5477.726589674776,
            "responseTime": 1680845860129,
            "catchQuestion": "How many <b class=\"r\">red<\/b> marbles did your opponent report drawing? ",
            "catchKey": -1,
            "catchResponse": -1,
            "catchTime": 1680845728666,
            "trialTime": 0
        },
        {
            "exptPart": "trial",
            "trialNumber": 8,
            "roleCurrent": "receiver",
            "marblesSampled": 100,
            "probRed": 0.5,
            "practiceLambda": 5,
            "trialLambda": 0.3,
            "instructedLambda": "dishonest_small",
            "drawnRed": 32,
            "reportedRed": 33,
            "inferredRed": 40,
            "playerTrialScore": -8,
            "oppTrialScore": 8,
            "playerTotalScore": -40,
            "oppTotalScore": 24,
            "waitTime": 6530.349928210886,
            "responseTime": 1680845871357,
            "catchQuestion": "How many <b class=\"r\">red<\/b> marbles did your opponent report drawing? ",
            "catchKey": -1,
            "catchResponse": -1,
            "catchTime": 1680845728666,
            "trialTime": 0
        },
        {
            "exptPart": "trial",
            "trialNumber": 9,
            "roleCurrent": "receiver",
            "marblesSampled": 100,
            "probRed": 0.5,
            "practiceLambda": 5,
            "trialLambda": 0.3,
            "instructedLambda": "dishonest_small",
            "drawnRed": 74,
            "reportedRed": 75,
            "inferredRed": 75,
            "playerTrialScore": -1,
            "oppTrialScore": 1,
            "playerTotalScore": -41,
            "oppTotalScore": 25,
            "waitTime": 6016.913808654858,
            "responseTime": 1680845885213,
            "catchQuestion": "How many <b class=\"r\">red<\/b> marbles did your opponent report drawing? ",
            "catchKey": -1,
            "catchResponse": -1,
            "catchTime": 1680845728666,
            "trialTime": 0
        },
        {
            "exptPart": "trial",
            "trialNumber": 10,
            "roleCurrent": "receiver",
            "marblesSampled": 100,
            "probRed": 0.5,
            "practiceLambda": 5,
            "trialLambda": 0.3,
            "instructedLambda": "dishonest_small",
            "drawnRed": 73,
            "reportedRed": 75,
            "inferredRed": 75,
            "playerTrialScore": -2,
            "oppTrialScore": 2,
            "playerTotalScore": -43,
            "oppTotalScore": 27,
            "waitTime": 7116.015232480371,
            "responseTime": 1680845896008,
            "catchQuestion": "How many <b class=\"r\">red<\/b> marbles did your opponent report drawing? ",
            "catchKey": -1,
            "catchResponse": -1,
            "catchTime": 1680845896008,
            "trialTime": 0
        },
        {
            "exptPart": "trial",
            "trialNumber": 11,
            "roleCurrent": "receiver",
            "marblesSampled": 100,
            "probRed": 0.5,
            "practiceLambda": 5,
            "trialLambda": 0.3,
            "instructedLambda": "dishonest_small",
            "drawnRed": 41,
            "reportedRed": 41,
            "inferredRed": 41,
            "playerTrialScore": 0,
            "oppTrialScore": 0,
            "playerTotalScore": -43,
            "oppTotalScore": 27,
            "waitTime": 7138.638827803074,
            "responseTime": 1680845917579,
            "catchQuestion": "How many <b class=\"r\">red<\/b> marbles did your opponent report drawing? ",
            "catchKey": -1,
            "catchResponse": -1,
            "catchTime": 1680845896008,
            "trialTime": 0
        },
        {
            "exptPart": "trial",
            "trialNumber": 12,
            "roleCurrent": "receiver",
            "marblesSampled": 100,
            "probRed": 0.5,
            "practiceLambda": 5,
            "trialLambda": 0.3,
            "instructedLambda": "dishonest_small",
            "drawnRed": 50,
            "reportedRed": 51,
            "inferredRed": 51,
            "playerTrialScore": -1,
            "oppTrialScore": 1,
            "playerTotalScore": -44,
            "oppTotalScore": 28,
            "waitTime": 6728.404089983669,
            "responseTime": 1680845928487,
            "catchQuestion": "How many <b class=\"r\">red<\/b> marbles did your opponent report drawing? ",
            "catchKey": -1,
            "catchResponse": -1,
            "catchTime": 1680845896008,
            "trialTime": 0
        },
        {
            "exptPart": "trial",
            "trialNumber": 13,
            "roleCurrent": "receiver",
            "marblesSampled": 100,
            "probRed": 0.5,
            "practiceLambda": 5,
            "trialLambda": 0.3,
            "instructedLambda": "dishonest_small",
            "drawnRed": 79,
            "reportedRed": 79,
            "inferredRed": 80,
            "playerTrialScore": -1,
            "oppTrialScore": 1,
            "playerTotalScore": -45,
            "oppTotalScore": 29,
            "waitTime": 6116.679771024503,
            "responseTime": 1680845939067,
            "catchQuestion": "How many <b class=\"r\">red<\/b> marbles did your opponent report drawing? ",
            "catchKey": 79,
            "catchResponse": 79,
            "catchTime": 1680845939067,
            "trialTime": 0
        },
        {
            "exptPart": "trial",
            "trialNumber": 14,
            "roleCurrent": "receiver",
            "marblesSampled": 100,
            "probRed": 0.5,
            "practiceLambda": 5,
            "trialLambda": 0.3,
            "instructedLambda": "dishonest_small",
            "drawnRed": 31,
            "reportedRed": 33,
            "inferredRed": 34,
            "playerTrialScore": -3,
            "oppTrialScore": 3,
            "playerTotalScore": -48,
            "oppTotalScore": 32,
            "waitTime": 5606.659835048005,
            "responseTime": 1680845961508,
            "catchQuestion": "How many <b class=\"r\">red<\/b> marbles did your opponent report drawing? ",
            "catchKey": -1,
            "catchResponse": -1,
            "catchTime": 1680845939067,
            "trialTime": 0
        },
        {
            "exptPart": "trial",
            "trialNumber": 15,
            "roleCurrent": "receiver",
            "marblesSampled": 100,
            "probRed": 0.5,
            "practiceLambda": 5,
            "trialLambda": 0.3,
            "instructedLambda": "dishonest_small",
            "drawnRed": 86,
            "reportedRed": 86,
            "inferredRed": 85,
            "playerTrialScore": -1,
            "oppTrialScore": 0,
            "playerTotalScore": -49,
            "oppTotalScore": 32,
            "waitTime": 5344.710272641343,
            "responseTime": 1680845971280,
            "catchQuestion": "How many <b class=\"r\">red<\/b> marbles did your opponent report drawing? ",
            "catchKey": -1,
            "catchResponse": -1,
            "catchTime": 1680845939067,
            "trialTime": 0
        },
        {
            "exptPart": "trial",
            "trialNumber": 16,
            "roleCurrent": "receiver",
            "marblesSampled": 100,
            "probRed": 0.5,
            "practiceLambda": 5,
            "trialLambda": 0.3,
            "instructedLambda": "dishonest_small",
            "drawnRed": 87,
            "reportedRed": 87,
            "inferredRed": 87,
            "playerTrialScore": 0,
            "oppTrialScore": 0,
            "playerTotalScore": -49,
            "oppTotalScore": 32,
            "waitTime": 5676.77223369901,
            "responseTime": 1680845981042,
            "catchQuestion": "How many <b class=\"r\">red<\/b> marbles did your opponent report drawing? ",
            "catchKey": -1,
            "catchResponse": -1,
            "catchTime": 1680845939067,
            "trialTime": 0
        },
        {
            "exptPart": "trial",
            "trialNumber": 17,
            "roleCurrent": "receiver",
            "marblesSampled": 100,
            "probRed": 0.5,
            "practiceLambda": 5,
            "trialLambda": 0.3,
            "instructedLambda": "dishonest_small",
            "drawnRed": 53,
            "reportedRed": 54,
            "inferredRed": 54,
            "playerTrialScore": -1,
            "oppTrialScore": 1,
            "playerTotalScore": -50,
            "oppTotalScore": 33,
            "waitTime": 6145.096156714621,
            "responseTime": 1680845994891,
            "catchQuestion": "How many <b class=\"r\">red<\/b> marbles did your opponent report drawing? ",
            "catchKey": -1,
            "catchResponse": -1,
            "catchTime": 1680845939067,
            "trialTime": 0
        },
        {
            "exptPart": "trial",
            "trialNumber": 18,
            "roleCurrent": "receiver",
            "marblesSampled": 100,
            "probRed": 0.5,
            "practiceLambda": 5,
            "trialLambda": 0.3,
            "instructedLambda": "dishonest_small",
            "drawnRed": 48,
            "reportedRed": 48,
            "inferredRed": 48,
            "playerTrialScore": 0,
            "oppTrialScore": 0,
            "playerTotalScore": -50,
            "oppTotalScore": 33,
            "waitTime": 6276.297307721743,
            "responseTime": 1680846007431,
            "catchQuestion": "How many <b class=\"r\">red<\/b> marbles did your opponent report drawing? ",
            "catchKey": -1,
            "catchResponse": -1,
            "catchTime": 1680845939067,
            "trialTime": 0
        },
        {
            "exptPart": "trial",
            "trialNumber": 19,
            "roleCurrent": "receiver",
            "marblesSampled": 100,
            "probRed": 0.5,
            "practiceLambda": 5,
            "trialLambda": 0.3,
            "instructedLambda": "dishonest_small",
            "drawnRed": 29,
            "reportedRed": 29,
            "inferredRed": 27,
            "playerTrialScore": -2,
            "oppTrialScore": 0,
            "playerTotalScore": -52,
            "oppTotalScore": 33,
            "waitTime": 5670.248871365185,
            "responseTime": 1680846019904,
            "catchQuestion": "How many <b class=\"r\">red<\/b> marbles did your opponent report drawing? ",
            "catchKey": -1,
            "catchResponse": -1,
            "catchTime": 1680845939067,
            "trialTime": 0
        },
        {
            "exptPart": "trial",
            "trialNumber": 20,
            "roleCurrent": "receiver",
            "marblesSampled": 100,
            "probRed": 0.5,
            "practiceLambda": 5,
            "trialLambda": 0.3,
            "instructedLambda": "dishonest_small",
            "drawnRed": 44,
            "reportedRed": 44,
            "inferredRed": 44,
            "playerTrialScore": 0,
            "oppTrialScore": 0,
            "playerTotalScore": -52,
            "oppTotalScore": 33,
            "waitTime": 5336.739014142997,
            "responseTime": 1680846029464,
            "catchQuestion": "How many <b class=\"r\">red<\/b> marbles did your opponent report drawing? ",
            "catchKey": -1,
            "catchResponse": -1,
            "catchTime": 1680846029464,
            "trialTime": 0
        },
        {
            "exptPart": "trial",
            "trialNumber": 21,
            "roleCurrent": "receiver",
            "marblesSampled": 100,
            "probRed": 0.5,
            "practiceLambda": 5,
            "trialLambda": 0.3,
            "instructedLambda": "dishonest_small",
            "drawnRed": 49,
            "reportedRed": 49,
            "inferredRed": 30,
            "playerTrialScore": -19,
            "oppTrialScore": 0,
            "playerTotalScore": -71,
            "oppTotalScore": 33,
            "waitTime": 6987.691960909263,
            "responseTime": 1680846046569,
            "catchQuestion": "How many <b class=\"r\">red<\/b> marbles did your opponent report drawing? ",
            "catchKey": 49,
            "catchResponse": 49,
            "catchTime": 1680846046569,
            "trialTime": 0
        },
        {
            "exptPart": "trial",
            "trialNumber": 22,
            "roleCurrent": "receiver",
            "marblesSampled": 100,
            "probRed": 0.5,
            "practiceLambda": 5,
            "trialLambda": 0.3,
            "instructedLambda": "dishonest_small",
            "drawnRed": 60,
            "reportedRed": 61,
            "inferredRed": 61,
            "playerTrialScore": -1,
            "oppTrialScore": 1,
            "playerTotalScore": -72,
            "oppTotalScore": 34,
            "waitTime": 6096.325627180775,
            "responseTime": 1680846059782,
            "catchQuestion": "How many <b class=\"r\">red<\/b> marbles did your opponent report drawing? ",
            "catchKey": -1,
            "catchResponse": -1,
            "catchTime": 1680846046569,
            "trialTime": 0
        },
        {
            "exptPart": "trial",
            "trialNumber": 23,
            "roleCurrent": "receiver",
            "marblesSampled": 100,
            "probRed": 0.5,
            "practiceLambda": 5,
            "trialLambda": 0.3,
            "instructedLambda": "dishonest_small",
            "drawnRed": 70,
            "reportedRed": 70,
            "inferredRed": 70,
            "playerTrialScore": 0,
            "oppTrialScore": 0,
            "playerTotalScore": -72,
            "oppTotalScore": 34,
            "waitTime": 6014.304153879622,
            "responseTime": 1680846083544,
            "catchQuestion": "How many <b class=\"r\">red<\/b> marbles did your opponent report drawing? ",
            "catchKey": -1,
            "catchResponse": -1,
            "catchTime": 1680846046569,
            "trialTime": 0
        },
        {
            "exptPart": "trial",
            "trialNumber": 24,
            "roleCurrent": "receiver",
            "marblesSampled": 100,
            "probRed": 0.5,
            "practiceLambda": 5,
            "trialLambda": 0.3,
            "instructedLambda": "dishonest_small",
            "drawnRed": 31,
            "reportedRed": 31,
            "inferredRed": 31,
            "playerTrialScore": 0,
            "oppTrialScore": 0,
            "playerTotalScore": -72,
            "oppTotalScore": 34,
            "waitTime": 6421.721401546379,
            "responseTime": 1680846112326,
            "catchQuestion": "How many <b class=\"r\">red<\/b> marbles did your opponent report drawing? ",
            "catchKey": -1,
            "catchResponse": -1,
            "catchTime": 1680846046569,
            "trialTime": 0
        },
        {
            "exptPart": "trial",
            "trialNumber": 25,
            "roleCurrent": "receiver",
            "marblesSampled": 100,
            "probRed": 0.5,
            "practiceLambda": 5,
            "trialLambda": 0.3,
            "instructedLambda": "dishonest_small",
            "drawnRed": 33,
            "reportedRed": 33,
            "inferredRed": 33,
            "playerTrialScore": 0,
            "oppTrialScore": 0,
            "playerTotalScore": -72,
            "oppTotalScore": 34,
            "waitTime": 5418.321317208358,
            "responseTime": 1680846122609,
            "catchQuestion": "How many <b class=\"r\">red<\/b> marbles did your opponent report drawing? ",
            "catchKey": -1,
            "catchResponse": -1,
            "catchTime": 1680846046569,
            "trialTime": 0
        },
        {
            "exptPart": "trial",
            "trialNumber": 26,
            "roleCurrent": "receiver",
            "marblesSampled": 100,
            "probRed": 0.5,
            "practiceLambda": 5,
            "trialLambda": 0.3,
            "instructedLambda": "dishonest_small",
            "drawnRed": 28,
            "reportedRed": 28,
            "inferredRed": 28,
            "playerTrialScore": 0,
            "oppTrialScore": 0,
            "playerTotalScore": -72,
            "oppTotalScore": 34,
            "waitTime": 5418.313416544572,
            "responseTime": 1680846142482,
            "catchQuestion": "How many <b class=\"r\">red<\/b> marbles did your opponent report drawing? ",
            "catchKey": -1,
            "catchResponse": -1,
            "catchTime": 1680846046569,
            "trialTime": 0
        },
        {
            "exptPart": "trial",
            "trialNumber": 27,
            "roleCurrent": "receiver",
            "marblesSampled": 100,
            "probRed": 0.5,
            "practiceLambda": 5,
            "trialLambda": 0.3,
            "instructedLambda": "dishonest_small",
            "drawnRed": 64,
            "reportedRed": 64,
            "inferredRed": 63,
            "playerTrialScore": -1,
            "oppTrialScore": 0,
            "playerTotalScore": -73,
            "oppTotalScore": 34,
            "waitTime": 7236.447043951723,
            "responseTime": 1680846153694,
            "catchQuestion": "How many <b class=\"r\">red<\/b> marbles did your opponent report drawing? ",
            "catchKey": -1,
            "catchResponse": -1,
            "catchTime": 1680846046569,
            "trialTime": 0
        },
        {
            "exptPart": "trial",
            "trialNumber": 28,
            "roleCurrent": "receiver",
            "marblesSampled": 100,
            "probRed": 0.5,
            "practiceLambda": 5,
            "trialLambda": 0.3,
            "instructedLambda": "dishonest_small",
            "drawnRed": 39,
            "reportedRed": 39,
            "inferredRed": 40,
            "playerTrialScore": -1,
            "oppTrialScore": 1,
            "playerTotalScore": -74,
            "oppTotalScore": 35,
            "waitTime": 6788.409410917149,
            "responseTime": 1680846163420,
            "catchQuestion": "How many <b class=\"r\">red<\/b> marbles did your opponent report drawing? ",
            "catchKey": -1,
            "catchResponse": -1,
            "catchTime": 1680846046569,
            "trialTime": 0
        },
        {
            "exptPart": "trial",
            "trialNumber": 29,
            "roleCurrent": "receiver",
            "marblesSampled": 100,
            "probRed": 0.5,
            "practiceLambda": 5,
            "trialLambda": 0.3,
            "instructedLambda": "dishonest_small",
            "drawnRed": 44,
            "reportedRed": 44,
            "inferredRed": 50,
            "playerTrialScore": -6,
            "oppTrialScore": 6,
            "playerTotalScore": -80,
            "oppTotalScore": 41,
            "waitTime": 5780.198688861624,
            "responseTime": 1680846177923,
            "catchQuestion": "How many <b class=\"r\">red<\/b> marbles did your opponent report drawing? ",
            "catchKey": -1,
            "catchResponse": -1,
            "catchTime": 1680846046569,
            "trialTime": 0
        },
        {
            "exptPart": "trial",
            "trialNumber": 30,
            "roleCurrent": "receiver",
            "marblesSampled": 100,
            "probRed": 0.5,
            "practiceLambda": 5,
            "trialLambda": 0.3,
            "instructedLambda": "dishonest_small",
            "drawnRed": 61,
            "reportedRed": 63,
            "inferredRed": 70,
            "playerTrialScore": -9,
            "oppTrialScore": 9,
            "playerTotalScore": -89,
            "oppTotalScore": 50,
            "waitTime": 6900.91753285968,
            "responseTime": 1680846190323,
            "catchQuestion": "How many <b class=\"r\">red<\/b> marbles did your opponent report drawing? ",
            "catchKey": -1,
            "catchResponse": -1,
            "catchTime": 1680846190323,
            "trialTime": 0
        },
        {
            "exptPart": "trial",
            "trialNumber": 31,
            "roleCurrent": "receiver",
            "marblesSampled": 100,
            "probRed": 0.5,
            "practiceLambda": 5,
            "trialLambda": 0.3,
            "instructedLambda": "dishonest_small",
            "drawnRed": 57,
            "reportedRed": 57,
            "inferredRed": 70,
            "playerTrialScore": -13,
            "oppTrialScore": 13,
            "playerTotalScore": -102,
            "oppTotalScore": 63,
            "waitTime": 6394.816388103236,
            "responseTime": 1680846203718,
            "catchQuestion": "How many <b class=\"r\">red<\/b> marbles did your opponent report drawing? ",
            "catchKey": -1,
            "catchResponse": -1,
            "catchTime": 1680846190323,
            "trialTime": 0
        },
        {
            "exptPart": "trial",
            "trialNumber": 32,
            "roleCurrent": "receiver",
            "marblesSampled": 100,
            "probRed": 0.5,
            "practiceLambda": 5,
            "trialLambda": 0.3,
            "instructedLambda": "dishonest_small",
            "drawnRed": 61,
            "reportedRed": 61,
            "inferredRed": 63,
            "playerTrialScore": -2,
            "oppTrialScore": 2,
            "playerTotalScore": -104,
            "oppTotalScore": 65,
            "waitTime": 7093.133354622454,
            "responseTime": 1680846214242,
            "catchQuestion": "How many <b class=\"r\">red<\/b> marbles did your opponent report drawing? ",
            "catchKey": -1,
            "catchResponse": -1,
            "catchTime": 1680846190323,
            "trialTime": 0
        },
        {
            "exptPart": "trial",
            "trialNumber": 33,
            "roleCurrent": "receiver",
            "marblesSampled": 100,
            "probRed": 0.5,
            "practiceLambda": 5,
            "trialLambda": 0.3,
            "instructedLambda": "dishonest_small",
            "drawnRed": 83,
            "reportedRed": 83,
            "inferredRed": 86,
            "playerTrialScore": -3,
            "oppTrialScore": 3,
            "playerTotalScore": -107,
            "oppTotalScore": 68,
            "waitTime": 5873.080915276887,
            "responseTime": 1680846222815,
            "catchQuestion": "How many <b class=\"r\">red<\/b> marbles did your opponent report drawing? ",
            "catchKey": 83,
            "catchResponse": 83,
            "catchTime": 1680846222815,
            "trialTime": 0
        },
        {
            "exptPart": "trial",
            "trialNumber": 34,
            "roleCurrent": "receiver",
            "marblesSampled": 100,
            "probRed": 0.5,
            "practiceLambda": 5,
            "trialLambda": 0.3,
            "instructedLambda": "dishonest_small",
            "drawnRed": 69,
            "reportedRed": 70,
            "inferredRed": 76,
            "playerTrialScore": -7,
            "oppTrialScore": 7,
            "playerTotalScore": -114,
            "oppTotalScore": 75,
            "waitTime": 6724.377333076047,
            "responseTime": 1680846240734,
            "catchQuestion": "How many <b class=\"r\">red<\/b> marbles did your opponent report drawing? ",
            "catchKey": -1,
            "catchResponse": -1,
            "catchTime": 1680846222815,
            "trialTime": 0
        },
        {
            "exptPart": "trial",
            "trialNumber": 35,
            "roleCurrent": "receiver",
            "marblesSampled": 100,
            "probRed": 0.5,
            "practiceLambda": 5,
            "trialLambda": 0.3,
            "instructedLambda": "dishonest_small",
            "drawnRed": 59,
            "reportedRed": 59,
            "inferredRed": 60,
            "playerTrialScore": -1,
            "oppTrialScore": 1,
            "playerTotalScore": -115,
            "oppTotalScore": 76,
            "waitTime": 5497.02773437296,
            "responseTime": 1680846249538,
            "catchQuestion": "How many <b class=\"r\">red<\/b> marbles did your opponent report drawing? ",
            "catchKey": -1,
            "catchResponse": -1,
            "catchTime": 1680846222815,
            "trialTime": 0
        },
        {
            "exptPart": "trial",
            "trialNumber": 36,
            "roleCurrent": "receiver",
            "marblesSampled": 100,
            "probRed": 0.5,
            "practiceLambda": 5,
            "trialLambda": 0.3,
            "instructedLambda": "dishonest_small",
            "drawnRed": 33,
            "reportedRed": 33,
            "inferredRed": 36,
            "playerTrialScore": -3,
            "oppTrialScore": 3,
            "playerTotalScore": -118,
            "oppTotalScore": 79,
            "waitTime": 5766.873112332435,
            "responseTime": 1680846258455,
            "catchQuestion": "How many <b class=\"r\">red<\/b> marbles did your opponent report drawing? ",
            "catchKey": -1,
            "catchResponse": -1,
            "catchTime": 1680846222815,
            "trialTime": 0
        },
        {
            "exptPart": "trial",
            "trialNumber": 37,
            "roleCurrent": "receiver",
            "marblesSampled": 100,
            "probRed": 0.5,
            "practiceLambda": 5,
            "trialLambda": 0.3,
            "instructedLambda": "dishonest_small",
            "drawnRed": 62,
            "reportedRed": 63,
            "inferredRed": 68,
            "playerTrialScore": -6,
            "oppTrialScore": 6,
            "playerTotalScore": -124,
            "oppTotalScore": 85,
            "waitTime": 6643.63926458947,
            "responseTime": 1680846268189,
            "catchQuestion": "How many <b class=\"r\">red<\/b> marbles did your opponent report drawing? ",
            "catchKey": -1,
            "catchResponse": -1,
            "catchTime": 1680846222815,
            "trialTime": 0
        },
        {
            "exptPart": "trial",
            "trialNumber": 38,
            "roleCurrent": "receiver",
            "marblesSampled": 100,
            "probRed": 0.5,
            "practiceLambda": 5,
            "trialLambda": 0.3,
            "instructedLambda": "dishonest_small",
            "drawnRed": 51,
            "reportedRed": 51,
            "inferredRed": 49,
            "playerTrialScore": -2,
            "oppTrialScore": 0,
            "playerTotalScore": -126,
            "oppTotalScore": 85,
            "waitTime": 7355.426946320548,
            "responseTime": 1680846278448,
            "catchQuestion": "How many <b class=\"r\">red<\/b> marbles did your opponent report drawing? ",
            "catchKey": -1,
            "catchResponse": -1,
            "catchTime": 1680846222815,
            "trialTime": 0
        },
        {
            "exptPart": "trial",
            "trialNumber": 39,
            "roleCurrent": "receiver",
            "marblesSampled": 100,
            "probRed": 0.5,
            "practiceLambda": 5,
            "trialLambda": 0.3,
            "instructedLambda": "dishonest_small",
            "drawnRed": 70,
            "reportedRed": 70,
            "inferredRed": 65,
            "playerTrialScore": -5,
            "oppTrialScore": 0,
            "playerTotalScore": -131,
            "oppTotalScore": 85,
            "waitTime": 6709.897549566293,
            "responseTime": 1680846288771,
            "catchQuestion": "How many <b class=\"r\">red<\/b> marbles did your opponent report drawing? ",
            "catchKey": -1,
            "catchResponse": -1,
            "catchTime": 1680846222815,
            "trialTime": 0
        },
        {
            "exptPart": "trial",
            "trialNumber": 40,
            "roleCurrent": "receiver",
            "marblesSampled": 100,
            "probRed": 0.5,
            "practiceLambda": 5,
            "trialLambda": 0.3,
            "instructedLambda": "dishonest_small",
            "drawnRed": 81,
            "reportedRed": 83,
            "inferredRed": 80,
            "playerTrialScore": -1,
            "oppTrialScore": 0,
            "playerTotalScore": -132,
            "oppTotalScore": 85,
            "waitTime": 6534.034898409737,
            "responseTime": 1680846298367,
            "catchQuestion": "How many <b class=\"r\">red<\/b> marbles did your opponent report drawing? ",
            "catchKey": -1,
            "catchResponse": -1,
            "catchTime": 1680846298367,
            "trialTime": 0
        },
        {
            "exptPart": "trial",
            "trialNumber": 41,
            "roleCurrent": "receiver",
            "marblesSampled": 100,
            "probRed": 0.5,
            "practiceLambda": 5,
            "trialLambda": 0.3,
            "instructedLambda": "dishonest_small",
            "drawnRed": 82,
            "reportedRed": 82,
            "inferredRed": 80,
            "playerTrialScore": -2,
            "oppTrialScore": 0,
            "playerTotalScore": -134,
            "oppTotalScore": 85,
            "waitTime": 5489.991503436436,
            "responseTime": 1680846327706,
            "catchQuestion": "How many <b class=\"r\">red<\/b> marbles did your opponent report drawing? ",
            "catchKey": -1,
            "catchResponse": -1,
            "catchTime": 1680846298367,
            "trialTime": 0
        },
        {
            "exptPart": "trial",
            "trialNumber": 42,
            "roleCurrent": "receiver",
            "marblesSampled": 100,
            "probRed": 0.5,
            "practiceLambda": 5,
            "trialLambda": 0.3,
            "instructedLambda": "dishonest_small",
            "drawnRed": 44,
            "reportedRed": 44,
            "inferredRed": 48,
            "playerTrialScore": -4,
            "oppTrialScore": 4,
            "playerTotalScore": -138,
            "oppTotalScore": 89,
            "waitTime": 6412.91001441293,
            "responseTime": 1680846337135,
            "catchQuestion": "How many <b class=\"r\">red<\/b> marbles did your opponent report drawing? ",
            "catchKey": -1,
            "catchResponse": -1,
            "catchTime": 1680846298367,
            "trialTime": 0
        },
        {
            "exptPart": "trial",
            "trialNumber": 43,
            "roleCurrent": "receiver",
            "marblesSampled": 100,
            "probRed": 0.5,
            "practiceLambda": 5,
            "trialLambda": 0.3,
            "instructedLambda": "dishonest_small",
            "drawnRed": 22,
            "reportedRed": 24,
            "inferredRed": 25,
            "playerTrialScore": -3,
            "oppTrialScore": 3,
            "playerTotalScore": -141,
            "oppTotalScore": 92,
            "waitTime": 5744.425706841145,
            "responseTime": 1680846345887,
            "catchQuestion": "How many <b class=\"r\">red<\/b> marbles did your opponent report drawing? ",
            "catchKey": -1,
            "catchResponse": -1,
            "catchTime": 1680846298367,
            "trialTime": 0
        },
        {
            "exptPart": "trial",
            "trialNumber": 44,
            "roleCurrent": "receiver",
            "marblesSampled": 100,
            "probRed": 0.5,
            "practiceLambda": 5,
            "trialLambda": 0.3,
            "instructedLambda": "dishonest_small",
            "drawnRed": 24,
            "reportedRed": 24,
            "inferredRed": 24,
            "playerTrialScore": 0,
            "oppTrialScore": 0,
            "playerTotalScore": -141,
            "oppTotalScore": 92,
            "waitTime": 5212.473026587927,
            "responseTime": 1680846353404,
            "catchQuestion": "How many <b class=\"r\">red<\/b> marbles did your opponent report drawing? ",
            "catchKey": -1,
            "catchResponse": -1,
            "catchTime": 1680846298367,
            "trialTime": 0
        },
        {
            "exptPart": "trial",
            "trialNumber": 45,
            "roleCurrent": "receiver",
            "marblesSampled": 100,
            "probRed": 0.5,
            "practiceLambda": 5,
            "trialLambda": 0.3,
            "instructedLambda": "dishonest_small",
            "drawnRed": 23,
            "reportedRed": 24,
            "inferredRed": 24,
            "playerTrialScore": -1,
            "oppTrialScore": 1,
            "playerTotalScore": -142,
            "oppTotalScore": 93,
            "waitTime": 5716.356658040582,
            "responseTime": 1680846362363,
            "catchQuestion": "How many <b class=\"r\">red<\/b> marbles did your opponent report drawing? ",
            "catchKey": -1,
            "catchResponse": -1,
            "catchTime": 1680846298367,
            "trialTime": 0
        },
        {
            "exptPart": "trial",
            "trialNumber": 46,
            "roleCurrent": "receiver",
            "marblesSampled": 100,
            "probRed": 0.5,
            "practiceLambda": 5,
            "trialLambda": 0.3,
            "instructedLambda": "dishonest_small",
            "drawnRed": 77,
            "reportedRed": 77,
            "inferredRed": 72,
            "playerTrialScore": -5,
            "oppTrialScore": 0,
            "playerTotalScore": -147,
            "oppTotalScore": 93,
            "waitTime": 6367.1111612074965,
            "responseTime": 1680846372607,
            "catchQuestion": "How many <b class=\"r\">red<\/b> marbles did your opponent report drawing? ",
            "catchKey": 77,
            "catchResponse": 77,
            "catchTime": 1680846372607,
            "trialTime": 0
        },
        {
            "exptPart": "trial",
            "trialNumber": 47,
            "roleCurrent": "receiver",
            "marblesSampled": 100,
            "probRed": 0.5,
            "practiceLambda": 5,
            "trialLambda": 0.3,
            "instructedLambda": "dishonest_small",
            "drawnRed": 51,
            "reportedRed": 51,
            "inferredRed": 51,
            "playerTrialScore": 0,
            "oppTrialScore": 0,
            "playerTotalScore": -147,
            "oppTotalScore": 93,
            "waitTime": 5632.19806256969,
            "responseTime": 1680846389177,
            "catchQuestion": "How many <b class=\"r\">red<\/b> marbles did your opponent report drawing? ",
            "catchKey": -1,
            "catchResponse": -1,
            "catchTime": 1680846372607,
            "trialTime": 0
        },
        {
            "exptPart": "trial",
            "trialNumber": 48,
            "roleCurrent": "receiver",
            "marblesSampled": 100,
            "probRed": 0.5,
            "practiceLambda": 5,
            "trialLambda": 0.3,
            "instructedLambda": "dishonest_small",
            "drawnRed": 34,
            "reportedRed": 34,
            "inferredRed": 35,
            "playerTrialScore": -1,
            "oppTrialScore": 1,
            "playerTotalScore": -148,
            "oppTotalScore": 94,
            "waitTime": 5478.387308158532,
            "responseTime": 1680846399335,
            "catchQuestion": "How many <b class=\"r\">red<\/b> marbles did your opponent report drawing? ",
            "catchKey": -1,
            "catchResponse": -1,
            "catchTime": 1680846372607,
            "trialTime": 0
        },
        {
            "exptPart": "trial",
            "trialNumber": 49,
            "roleCurrent": "receiver",
            "marblesSampled": 100,
            "probRed": 0.5,
            "practiceLambda": 5,
            "trialLambda": 0.3,
            "instructedLambda": "dishonest_small",
            "drawnRed": 84,
            "reportedRed": 84,
            "inferredRed": 85,
            "playerTrialScore": -1,
            "oppTrialScore": 1,
            "playerTotalScore": -149,
            "oppTotalScore": 95,
            "waitTime": 5715.531168819329,
            "responseTime": 1680846409069,
            "catchQuestion": "How many <b class=\"r\">red<\/b> marbles did your opponent report drawing? ",
            "catchKey": -1,
            "catchResponse": -1,
            "catchTime": 1680846372607,
            "trialTime": 0
        },
        {
            "exptPart": "trial",
            "trialNumber": 50,
            "roleCurrent": "receiver",
            "marblesSampled": 100,
            "probRed": 0.5,
            "practiceLambda": 5,
            "trialLambda": 0.3,
            "instructedLambda": "dishonest_small",
            "drawnRed": 48,
            "reportedRed": 49,
            "inferredRed": 50,
            "playerTrialScore": -2,
            "oppTrialScore": 2,
            "playerTotalScore": -151,
            "oppTotalScore": 97,
            "waitTime": 5479.0863475087335,
            "responseTime": 1680846418509,
            "catchQuestion": "How many <b class=\"r\">red<\/b> marbles did your opponent report drawing? ",
            "catchKey": -1,
            "catchResponse": -1,
            "catchTime": 1680846418509,
            "trialTime": 0
        },
        {
            "exptPart": "trial",
            "trialNumber": 51,
            "roleCurrent": "receiver",
            "marblesSampled": 100,
            "probRed": 0.5,
            "practiceLambda": 5,
            "trialLambda": 0.3,
            "instructedLambda": "dishonest_small",
            "drawnRed": 32,
            "reportedRed": 32,
            "inferredRed": 22,
            "playerTrialScore": -10,
            "oppTrialScore": 0,
            "playerTotalScore": -161,
            "oppTotalScore": 97,
            "waitTime": 6915.23554663304,
            "responseTime": 1680846431226,
            "catchQuestion": "How many <b class=\"r\">red<\/b> marbles did your opponent report drawing? ",
            "catchKey": -1,
            "catchResponse": -1,
            "catchTime": 1680846418509,
            "trialTime": 0
        },
        {
            "exptPart": "trial",
            "trialNumber": 52,
            "roleCurrent": "receiver",
            "marblesSampled": 100,
            "probRed": 0.5,
            "practiceLambda": 5,
            "trialLambda": 0.3,
            "instructedLambda": "dishonest_small",
            "drawnRed": 24,
            "reportedRed": 24,
            "inferredRed": 33,
            "playerTrialScore": -9,
            "oppTrialScore": 9,
            "playerTotalScore": -170,
            "oppTotalScore": 106,
            "waitTime": 7439.111770066992,
            "responseTime": 1680846441325,
            "catchQuestion": "How many <b class=\"r\">red<\/b> marbles did your opponent report drawing? ",
            "catchKey": -1,
            "catchResponse": -1,
            "catchTime": 1680846418509,
            "trialTime": 0
        },
        {
            "exptPart": "trial",
            "trialNumber": 53,
            "roleCurrent": "receiver",
            "marblesSampled": 100,
            "probRed": 0.5,
            "practiceLambda": 5,
            "trialLambda": 0.3,
            "instructedLambda": "dishonest_small",
            "drawnRed": 6,
            "reportedRed": 6,
            "inferredRed": 2,
            "playerTrialScore": -4,
            "oppTrialScore": 0,
            "playerTotalScore": -174,
            "oppTotalScore": 106,
            "waitTime": 6643.17236471202,
            "responseTime": 1680846451011,
            "catchQuestion": "How many <b class=\"r\">red<\/b> marbles did your opponent report drawing? ",
            "catchKey": -1,
            "catchResponse": -1,
            "catchTime": 1680846418509,
            "trialTime": 0
        },
        {
            "exptPart": "trial",
            "trialNumber": 54,
            "roleCurrent": "receiver",
            "marblesSampled": 100,
            "probRed": 0.5,
            "practiceLambda": 5,
            "trialLambda": 0.3,
            "instructedLambda": "dishonest_small",
            "drawnRed": 48,
            "reportedRed": 48,
            "inferredRed": 66,
            "playerTrialScore": -18,
            "oppTrialScore": 18,
            "playerTotalScore": -192,
            "oppTotalScore": 124,
            "waitTime": 7486.379494024255,
            "responseTime": 1680846460521,
            "catchQuestion": "How many <b class=\"r\">red<\/b> marbles did your opponent report drawing? ",
            "catchKey": -1,
            "catchResponse": -1,
            "catchTime": 1680846418509,
            "trialTime": 0
        },
        {
            "exptPart": "trial",
            "trialNumber": 55,
            "roleCurrent": "receiver",
            "marblesSampled": 100,
            "probRed": 0.5,
            "practiceLambda": 5,
            "trialLambda": 0.3,
            "instructedLambda": "dishonest_small",
            "drawnRed": 61,
            "reportedRed": 62,
            "inferredRed": 66,
            "playerTrialScore": -5,
            "oppTrialScore": 5,
            "playerTotalScore": -197,
            "oppTotalScore": 129,
            "waitTime": 5375.6672211820605,
            "responseTime": 1680846468497,
            "catchQuestion": "How many <b class=\"r\">red<\/b> marbles did your opponent report drawing? ",
            "catchKey": -1,
            "catchResponse": -1,
            "catchTime": 1680846418509,
            "trialTime": 0
        },
        {
            "exptPart": "trial",
            "trialNumber": 56,
            "roleCurrent": "receiver",
            "marblesSampled": 100,
            "probRed": 0.5,
            "practiceLambda": 5,
            "trialLambda": 0.3,
            "instructedLambda": "dishonest_small",
            "drawnRed": 5,
            "reportedRed": 5,
            "inferredRed": 4,
            "playerTrialScore": -1,
            "oppTrialScore": 0,
            "playerTotalScore": -198,
            "oppTotalScore": 129,
            "waitTime": 6637.415980191138,
            "responseTime": 1680846477340,
            "catchQuestion": "How many <b class=\"r\">red<\/b> marbles did your opponent report drawing? ",
            "catchKey": -1,
            "catchResponse": -1,
            "catchTime": 1680846418509,
            "trialTime": 0
        },
        {
            "exptPart": "trial",
            "trialNumber": 57,
            "roleCurrent": "receiver",
            "marblesSampled": 100,
            "probRed": 0.5,
            "practiceLambda": 5,
            "trialLambda": 0.3,
            "instructedLambda": "dishonest_small",
            "drawnRed": 47,
            "reportedRed": 47,
            "inferredRed": 88,
            "playerTrialScore": -41,
            "oppTrialScore": 41,
            "playerTotalScore": -239,
            "oppTotalScore": 170,
            "waitTime": 7457.820776743526,
            "responseTime": 1680846487644,
            "catchQuestion": "How many <b class=\"r\">red<\/b> marbles did your opponent report drawing? ",
            "catchKey": -1,
            "catchResponse": -1,
            "catchTime": 1680846418509,
            "trialTime": 0
        },
        {
            "exptPart": "trial",
            "trialNumber": 58,
            "roleCurrent": "receiver",
            "marblesSampled": 100,
            "probRed": 0.5,
            "practiceLambda": 5,
            "trialLambda": 0.3,
            "instructedLambda": "dishonest_small",
            "drawnRed": 48,
            "reportedRed": 48,
            "inferredRed": 35,
            "playerTrialScore": -13,
            "oppTrialScore": 0,
            "playerTotalScore": -252,
            "oppTotalScore": 170,
            "waitTime": 5391.874139965769,
            "responseTime": 1680846498387,
            "catchQuestion": "How many <b class=\"r\">red<\/b> marbles did your opponent report drawing? ",
            "catchKey": -1,
            "catchResponse": -1,
            "catchTime": 1680846418509,
            "trialTime": 0
        },
        {
            "exptPart": "trial",
            "trialNumber": 59,
            "roleCurrent": "receiver",
            "marblesSampled": 100,
            "probRed": 0.5,
            "practiceLambda": 5,
            "trialLambda": 0.3,
            "instructedLambda": "dishonest_small",
            "drawnRed": 43,
            "reportedRed": 43,
            "inferredRed": 64,
            "playerTrialScore": -21,
            "oppTrialScore": 21,
            "playerTotalScore": -273,
            "oppTotalScore": 191,
            "waitTime": 7277.087202605935,
            "responseTime": 1680846510963,
            "catchQuestion": "How many <b class=\"r\">red<\/b> marbles did your opponent report drawing? ",
            "catchKey": -1,
            "catchResponse": -1,
            "catchTime": 1680846418509,
            "trialTime": 0
        },
        {
            "exptPart": "trial",
            "trialNumber": 60,
            "roleCurrent": "receiver",
            "marblesSampled": 100,
            "probRed": 0.5,
            "practiceLambda": 5,
            "trialLambda": 0.3,
            "instructedLambda": "dishonest_small",
            "drawnRed": 56,
            "reportedRed": 56,
            "inferredRed": 23,
            "playerTrialScore": -33,
            "oppTrialScore": 0,
            "playerTotalScore": -306,
            "oppTotalScore": 191,
            "waitTime": 5382.403494392329,
            "responseTime": 1680846519275,
            "catchQuestion": "How many <b class=\"r\">red<\/b> marbles did your opponent report drawing? ",
            "catchKey": -1,
            "catchResponse": -1,
            "catchTime": 1680846519275,
            "trialTime": 0
        },
        {
            "exptPart": "trial",
            "trialNumber": 61,
            "roleCurrent": "receiver",
            "marblesSampled": 100,
            "probRed": 0.5,
            "practiceLambda": 5,
            "trialLambda": 0.3,
            "instructedLambda": "dishonest_small",
            "drawnRed": 44,
            "reportedRed": 44,
            "inferredRed": 34,
            "playerTrialScore": -10,
            "oppTrialScore": 0,
            "playerTotalScore": -316,
            "oppTotalScore": 191,
            "waitTime": 5530.871975743154,
            "responseTime": 1680846531850,
            "catchQuestion": "How many <b class=\"r\">red<\/b> marbles did your opponent report drawing? ",
            "catchKey": 44,
            "catchResponse": 43,
            "catchTime": 1680846531850,
            "trialTime": 0
        },
        {
            "exptPart": "trial",
            "trialNumber": 62,
            "roleCurrent": "receiver",
            "marblesSampled": 100,
            "probRed": 0.5,
            "practiceLambda": 5,
            "trialLambda": 0.3,
            "instructedLambda": "dishonest_small",
            "drawnRed": 38,
            "reportedRed": 38,
            "inferredRed": 40,
            "playerTrialScore": -2,
            "oppTrialScore": 2,
            "playerTotalScore": -318,
            "oppTotalScore": 193,
            "waitTime": 5658.395808822794,
            "responseTime": 1680846549334,
            "catchQuestion": "How many <b class=\"r\">red<\/b> marbles did your opponent report drawing? ",
            "catchKey": -1,
            "catchResponse": -1,
            "catchTime": 1680846531850,
            "trialTime": 0
        },
        {
            "exptPart": "trial",
            "trialNumber": 63,
            "roleCurrent": "receiver",
            "marblesSampled": 100,
            "probRed": 0.5,
            "practiceLambda": 5,
            "trialLambda": 0.3,
            "instructedLambda": "dishonest_small",
            "drawnRed": 37,
            "reportedRed": 37,
            "inferredRed": 40,
            "playerTrialScore": -3,
            "oppTrialScore": 3,
            "playerTotalScore": -321,
            "oppTotalScore": 196,
            "waitTime": 5591.233591294616,
            "responseTime": 1680846558042,
            "catchQuestion": "How many <b class=\"r\">red<\/b> marbles did your opponent report drawing? ",
            "catchKey": -1,
            "catchResponse": -1,
            "catchTime": 1680846531850,
            "trialTime": 0
        },
        {
            "exptPart": "trial",
            "trialNumber": 64,
            "roleCurrent": "receiver",
            "marblesSampled": 100,
            "probRed": 0.5,
            "practiceLambda": 5,
            "trialLambda": 0.3,
            "instructedLambda": "dishonest_small",
            "drawnRed": 70,
            "reportedRed": 70,
            "inferredRed": 60,
            "playerTrialScore": -10,
            "oppTrialScore": 0,
            "playerTotalScore": -331,
            "oppTotalScore": 196,
            "waitTime": 5845.263909273224,
            "responseTime": 1680846568645,
            "catchQuestion": "How many <b class=\"r\">red<\/b> marbles did your opponent report drawing? ",
            "catchKey": -1,
            "catchResponse": -1,
            "catchTime": 1680846531850,
            "trialTime": 0
        },
        {
            "exptPart": "trial",
            "trialNumber": 65,
            "roleCurrent": "receiver",
            "marblesSampled": 100,
            "probRed": 0.5,
            "practiceLambda": 5,
            "trialLambda": 0.3,
            "instructedLambda": "dishonest_small",
            "drawnRed": 68,
            "reportedRed": 69,
            "inferredRed": 60,
            "playerTrialScore": -8,
            "oppTrialScore": 0,
            "playerTotalScore": -339,
            "oppTotalScore": 196,
            "waitTime": 6413.279459568559,
            "responseTime": 1680846581413,
            "catchQuestion": "How many <b class=\"r\">red<\/b> marbles did your opponent report drawing? ",
            "catchKey": -1,
            "catchResponse": -1,
            "catchTime": 1680846531850,
            "trialTime": 0
        },
        {
            "exptPart": "trial",
            "trialNumber": 66,
            "roleCurrent": "receiver",
            "marblesSampled": 100,
            "probRed": 0.5,
            "practiceLambda": 5,
            "trialLambda": 0.3,
            "instructedLambda": "dishonest_small",
            "drawnRed": 76,
            "reportedRed": 78,
            "inferredRed": 79,
            "playerTrialScore": -3,
            "oppTrialScore": 3,
            "playerTotalScore": -342,
            "oppTotalScore": 199,
            "waitTime": 5227.428475721443,
            "responseTime": 1680846590800,
            "catchQuestion": "How many <b class=\"r\">red<\/b> marbles did your opponent report drawing? ",
            "catchKey": -1,
            "catchResponse": -1,
            "catchTime": 1680846531850,
            "trialTime": 0
        },
        {
            "exptPart": "trial",
            "trialNumber": 67,
            "roleCurrent": "receiver",
            "marblesSampled": 100,
            "probRed": 0.5,
            "practiceLambda": 5,
            "trialLambda": 0.3,
            "instructedLambda": "dishonest_small",
            "drawnRed": 29,
            "reportedRed": 29,
            "inferredRed": 30,
            "playerTrialScore": -1,
            "oppTrialScore": 1,
            "playerTotalScore": -343,
            "oppTotalScore": 200,
            "waitTime": 6236.391098434653,
            "responseTime": 1680846601856,
            "catchQuestion": "How many <b class=\"r\">red<\/b> marbles did your opponent report drawing? ",
            "catchKey": -1,
            "catchResponse": -1,
            "catchTime": 1680846531850,
            "trialTime": 0
        },
        {
            "exptPart": "trial",
            "trialNumber": 68,
            "roleCurrent": "receiver",
            "marblesSampled": 100,
            "probRed": 0.5,
            "practiceLambda": 5,
            "trialLambda": 0.3,
            "instructedLambda": "dishonest_small",
            "drawnRed": 14,
            "reportedRed": 14,
            "inferredRed": 20,
            "playerTrialScore": -6,
            "oppTrialScore": 6,
            "playerTotalScore": -349,
            "oppTotalScore": 206,
            "waitTime": 5175.472526009552,
            "responseTime": 1680846610265,
            "catchQuestion": "How many <b class=\"r\">red<\/b> marbles did your opponent report drawing? ",
            "catchKey": -1,
            "catchResponse": -1,
            "catchTime": 1680846531850,
            "trialTime": 0
        },
        {
            "exptPart": "trial",
            "trialNumber": 69,
            "roleCurrent": "receiver",
            "marblesSampled": 100,
            "probRed": 0.5,
            "practiceLambda": 5,
            "trialLambda": 0.3,
            "instructedLambda": "dishonest_small",
            "drawnRed": 47,
            "reportedRed": 47,
            "inferredRed": 50,
            "playerTrialScore": -3,
            "oppTrialScore": 3,
            "playerTotalScore": -352,
            "oppTotalScore": 209,
            "waitTime": 6086.008439326253,
            "responseTime": 1680846619353,
            "catchQuestion": "How many <b class=\"r\">red<\/b> marbles did your opponent report drawing? ",
            "catchKey": -1,
            "catchResponse": -1,
            "catchTime": 1680846531850,
            "trialTime": 0
        },
        {
            "exptPart": "trial",
            "trialNumber": 70,
            "roleCurrent": "receiver",
            "marblesSampled": 100,
            "probRed": 0.5,
            "practiceLambda": 5,
            "trialLambda": 0.3,
            "instructedLambda": "dishonest_small",
            "drawnRed": 74,
            "reportedRed": 74,
            "inferredRed": 75,
            "playerTrialScore": -1,
            "oppTrialScore": 1,
            "playerTotalScore": -353,
            "oppTotalScore": 210,
            "waitTime": 6007.454684570651,
            "responseTime": 1680846629544,
            "catchQuestion": "How many <b class=\"r\">red<\/b> marbles did your opponent report drawing? ",
            "catchKey": -1,
            "catchResponse": -1,
            "catchTime": 1680846629544,
            "trialTime": 0
        },
        {
            "exptPart": "trial",
            "trialNumber": 71,
            "roleCurrent": "receiver",
            "marblesSampled": 100,
            "probRed": 0.5,
            "practiceLambda": 5,
            "trialLambda": 0.3,
            "instructedLambda": "dishonest_small",
            "drawnRed": 22,
            "reportedRed": 22,
            "inferredRed": 22,
            "playerTrialScore": 0,
            "oppTrialScore": 0,
            "playerTotalScore": -353,
            "oppTotalScore": 210,
            "waitTime": 6834.709417783506,
            "responseTime": 1680846641642,
            "catchQuestion": "How many <b class=\"r\">red<\/b> marbles did your opponent report drawing? ",
            "catchKey": -1,
            "catchResponse": -1,
            "catchTime": 1680846629544,
            "trialTime": 0
        },
        {
            "exptPart": "trial",
            "trialNumber": 72,
            "roleCurrent": "receiver",
            "marblesSampled": 100,
            "probRed": 0.5,
            "practiceLambda": 5,
            "trialLambda": 0.3,
            "instructedLambda": "dishonest_small",
            "drawnRed": 41,
            "reportedRed": 42,
            "inferredRed": 42,
            "playerTrialScore": -1,
            "oppTrialScore": 1,
            "playerTotalScore": -354,
            "oppTotalScore": 211,
            "waitTime": 6170.864252281776,
            "responseTime": 1680846650890,
            "catchQuestion": "How many <b class=\"r\">red<\/b> marbles did your opponent report drawing? ",
            "catchKey": -1,
            "catchResponse": -1,
            "catchTime": 1680846629544,
            "trialTime": 0
        },
        {
            "exptPart": "trial",
            "trialNumber": 73,
            "roleCurrent": "receiver",
            "marblesSampled": 100,
            "probRed": 0.5,
            "practiceLambda": 5,
            "trialLambda": 0.3,
            "instructedLambda": "dishonest_small",
            "drawnRed": 46,
            "reportedRed": 47,
            "inferredRed": 47,
            "playerTrialScore": -1,
            "oppTrialScore": 1,
            "playerTotalScore": -355,
            "oppTotalScore": 212,
            "waitTime": 7224.127609772161,
            "responseTime": 1680846661511,
            "catchQuestion": "How many <b class=\"r\">red<\/b> marbles did your opponent report drawing? ",
            "catchKey": 47,
            "catchResponse": 47,
            "catchTime": 1680846661511,
            "trialTime": 0
        },
        {
            "exptPart": "trial",
            "trialNumber": 74,
            "roleCurrent": "receiver",
            "marblesSampled": 100,
            "probRed": 0.5,
            "practiceLambda": 5,
            "trialLambda": 0.3,
            "instructedLambda": "dishonest_small",
            "drawnRed": 74,
            "reportedRed": 74,
            "inferredRed": 74,
            "playerTrialScore": 0,
            "oppTrialScore": 0,
            "playerTotalScore": -355,
            "oppTotalScore": 212,
            "waitTime": 7369.805492460758,
            "responseTime": 1680846677315,
            "catchQuestion": "How many <b class=\"r\">red<\/b> marbles did your opponent report drawing? ",
            "catchKey": -1,
            "catchResponse": -1,
            "catchTime": 1680846661511,
            "trialTime": 0
        },
        {
            "exptPart": "trial",
            "trialNumber": 75,
            "roleCurrent": "receiver",
            "marblesSampled": 100,
            "probRed": 0.5,
            "practiceLambda": 5,
            "trialLambda": 0.3,
            "instructedLambda": "dishonest_small",
            "drawnRed": 9,
            "reportedRed": 9,
            "inferredRed": 9,
            "playerTrialScore": 0,
            "oppTrialScore": 0,
            "playerTotalScore": -355,
            "oppTotalScore": 212,
            "waitTime": 6201.8099407888885,
            "responseTime": 1680846686340,
            "catchQuestion": "How many <b class=\"r\">red<\/b> marbles did your opponent report drawing? ",
            "catchKey": 9,
            "catchResponse": 9,
            "catchTime": 1680846686340,
            "trialTime": 0
        },
        {
            "exptPart": "trial",
            "trialNumber": 76,
            "roleCurrent": "receiver",
            "marblesSampled": 100,
            "probRed": 0.5,
            "practiceLambda": 5,
            "trialLambda": 0.3,
            "instructedLambda": "dishonest_small",
            "drawnRed": 59,
            "reportedRed": 61,
            "inferredRed": 61,
            "playerTrialScore": -2,
            "oppTrialScore": 2,
            "playerTotalScore": -357,
            "oppTotalScore": 214,
            "waitTime": 6930.741230866055,
            "responseTime": 1680846700815,
            "catchQuestion": "How many <b class=\"r\">red<\/b> marbles did your opponent report drawing? ",
            "catchKey": -1,
            "catchResponse": -1,
            "catchTime": 1680846686340,
            "trialTime": 0
        },
        {
            "exptPart": "trial",
            "trialNumber": 77,
            "roleCurrent": "receiver",
            "marblesSampled": 100,
            "probRed": 0.5,
            "practiceLambda": 5,
            "trialLambda": 0.3,
            "instructedLambda": "dishonest_small",
            "drawnRed": 81,
            "reportedRed": 82,
            "inferredRed": 82,
            "playerTrialScore": -1,
            "oppTrialScore": 1,
            "playerTotalScore": -358,
            "oppTotalScore": 215,
            "waitTime": 5231.086237423822,
            "responseTime": 1680846709229,
            "catchQuestion": "How many <b class=\"r\">red<\/b> marbles did your opponent report drawing? ",
            "catchKey": -1,
            "catchResponse": -1,
            "catchTime": 1680846686340,
            "trialTime": 0
        },
        {
            "exptPart": "trial",
            "trialNumber": 78,
            "roleCurrent": "receiver",
            "marblesSampled": 100,
            "probRed": 0.5,
            "practiceLambda": 5,
            "trialLambda": 0.3,
            "instructedLambda": "dishonest_small",
            "drawnRed": 30,
            "reportedRed": 30,
            "inferredRed": 30,
            "playerTrialScore": 0,
            "oppTrialScore": 0,
            "playerTotalScore": -358,
            "oppTotalScore": 215,
            "waitTime": 5403.406343527327,
            "responseTime": 1680846717569,
            "catchQuestion": "How many <b class=\"r\">red<\/b> marbles did your opponent report drawing? ",
            "catchKey": -1,
            "catchResponse": -1,
            "catchTime": 1680846686340,
            "trialTime": 0
        },
        {
            "exptPart": "trial",
            "trialNumber": 79,
            "roleCurrent": "receiver",
            "marblesSampled": 100,
            "probRed": 0.5,
            "practiceLambda": 5,
            "trialLambda": 0.3,
            "instructedLambda": "dishonest_small",
            "drawnRed": 23,
            "reportedRed": 23,
            "inferredRed": 23,
            "playerTrialScore": 0,
            "oppTrialScore": 0,
            "playerTotalScore": -358,
            "oppTotalScore": 215,
            "waitTime": 6590.317410624068,
            "responseTime": 1680846726714,
            "catchQuestion": "How many <b class=\"r\">red<\/b> marbles did your opponent report drawing? ",
            "catchKey": 23,
            "catchResponse": 23,
            "catchTime": 1680846726715,
            "trialTime": 0
        },
        {
            "exptPart": "trial",
            "trialNumber": 80,
            "roleCurrent": "receiver",
            "marblesSampled": 100,
            "probRed": 0.5,
            "practiceLambda": 5,
            "trialLambda": 0.3,
            "instructedLambda": "dishonest_small",
            "drawnRed": 46,
            "reportedRed": 46,
            "inferredRed": 46,
            "playerTrialScore": 0,
            "oppTrialScore": 0,
            "playerTotalScore": -358,
            "oppTotalScore": 215,
            "waitTime": 5257.730600085475,
            "responseTime": 1680846738897,
            "catchQuestion": "How many <b class=\"r\">red<\/b> marbles did your opponent report drawing? ",
            "catchKey": 46,
            "catchResponse": 46,
            "catchTime": 1680846738897,
            "trialTime": 0
        },
        {
            "exptPart": "trial",
            "trialNumber": 81,
            "roleCurrent": "receiver",
            "marblesSampled": 100,
            "probRed": 0.5,
            "practiceLambda": 5,
            "trialLambda": 0.3,
            "instructedLambda": "dishonest_small",
            "drawnRed": 67,
            "reportedRed": 68,
            "inferredRed": 66,
            "playerTrialScore": -1,
            "oppTrialScore": 0,
            "playerTotalScore": -359,
            "oppTotalScore": 215,
            "waitTime": 5840.030219672268,
            "responseTime": 1680846751883,
            "catchQuestion": "How many <b class=\"r\">red<\/b> marbles did your opponent report drawing? ",
            "catchKey": -1,
            "catchResponse": -1,
            "catchTime": 1680846738897,
            "trialTime": 0
        },
        {
            "exptPart": "trial",
            "trialNumber": 82,
            "roleCurrent": "receiver",
            "marblesSampled": 100,
            "probRed": 0.5,
            "practiceLambda": 5,
            "trialLambda": 0.3,
            "instructedLambda": "dishonest_small",
            "drawnRed": 25,
            "reportedRed": 25,
            "inferredRed": 26,
            "playerTrialScore": -1,
            "oppTrialScore": 1,
            "playerTotalScore": -360,
            "oppTotalScore": 216,
            "waitTime": 6821.3808659631995,
            "responseTime": 1680846763911,
            "catchQuestion": "How many <b class=\"r\">red<\/b> marbles did your opponent report drawing? ",
            "catchKey": -1,
            "catchResponse": -1,
            "catchTime": 1680846738897,
            "trialTime": 0
        },
        {
            "exptPart": "trial",
            "trialNumber": 83,
            "roleCurrent": "receiver",
            "marblesSampled": 100,
            "probRed": 0.5,
            "practiceLambda": 5,
            "trialLambda": 0.3,
            "instructedLambda": "dishonest_small",
            "drawnRed": 62,
            "reportedRed": 62,
            "inferredRed": 65,
            "playerTrialScore": -3,
            "oppTrialScore": 3,
            "playerTotalScore": -363,
            "oppTotalScore": 219,
            "waitTime": 5219.943822234882,
            "responseTime": 1680846772979,
            "catchQuestion": "How many <b class=\"r\">red<\/b> marbles did your opponent report drawing? ",
            "catchKey": -1,
            "catchResponse": -1,
            "catchTime": 1680846738897,
            "trialTime": 0
        },
        {
            "exptPart": "trial",
            "trialNumber": 84,
            "roleCurrent": "receiver",
            "marblesSampled": 100,
            "probRed": 0.5,
            "practiceLambda": 5,
            "trialLambda": 0.3,
            "instructedLambda": "dishonest_small",
            "drawnRed": 46,
            "reportedRed": 46,
            "inferredRed": 46,
            "playerTrialScore": 0,
            "oppTrialScore": 0,
            "playerTotalScore": -363,
            "oppTotalScore": 219,
            "waitTime": 7124.324872024909,
            "responseTime": 1680846783503,
            "catchQuestion": "How many <b class=\"r\">red<\/b> marbles did your opponent report drawing? ",
            "catchKey": -1,
            "catchResponse": -1,
            "catchTime": 1680846738897,
            "trialTime": 0
        },
        {
            "exptPart": "trial",
            "trialNumber": 85,
            "roleCurrent": "receiver",
            "marblesSampled": 100,
            "probRed": 0.5,
            "practiceLambda": 5,
            "trialLambda": 0.3,
            "instructedLambda": "dishonest_small",
            "drawnRed": 56,
            "reportedRed": 57,
            "inferredRed": 57,
            "playerTrialScore": -1,
            "oppTrialScore": 1,
            "playerTotalScore": -364,
            "oppTotalScore": 220,
            "waitTime": 7476.9163121795,
            "responseTime": 1680846794481,
            "catchQuestion": "How many <b class=\"r\">red<\/b> marbles did your opponent report drawing? ",
            "catchKey": -1,
            "catchResponse": -1,
            "catchTime": 1680846738897,
            "trialTime": 0
        },
        {
            "exptPart": "trial",
            "trialNumber": 86,
            "roleCurrent": "receiver",
            "marblesSampled": 100,
            "probRed": 0.5,
            "practiceLambda": 5,
            "trialLambda": 0.3,
            "instructedLambda": "dishonest_small",
            "drawnRed": 46,
            "reportedRed": 46,
            "inferredRed": 46,
            "playerTrialScore": 0,
            "oppTrialScore": 0,
            "playerTotalScore": -364,
            "oppTotalScore": 220,
            "waitTime": 6325.944613282134,
            "responseTime": 1680846803449,
            "catchQuestion": "How many <b class=\"r\">red<\/b> marbles did your opponent report drawing? ",
            "catchKey": -1,
            "catchResponse": -1,
            "catchTime": 1680846738897,
            "trialTime": 0
        },
        {
            "exptPart": "trial",
            "trialNumber": 87,
            "roleCurrent": "receiver",
            "marblesSampled": 100,
            "probRed": 0.5,
            "practiceLambda": 5,
            "trialLambda": 0.3,
            "instructedLambda": "dishonest_small",
            "drawnRed": 26,
            "reportedRed": 26,
            "inferredRed": 26,
            "playerTrialScore": 0,
            "oppTrialScore": 0,
            "playerTotalScore": -364,
            "oppTotalScore": 220,
            "waitTime": 5183.880713604392,
            "responseTime": 1680846812354,
            "catchQuestion": "How many <b class=\"r\">red<\/b> marbles did your opponent report drawing? ",
            "catchKey": -1,
            "catchResponse": -1,
            "catchTime": 1680846738897,
            "trialTime": 0
        },
        {
            "exptPart": "trial",
            "trialNumber": 88,
            "roleCurrent": "receiver",
            "marblesSampled": 100,
            "probRed": 0.5,
            "practiceLambda": 5,
            "trialLambda": 0.3,
            "instructedLambda": "dishonest_small",
            "drawnRed": 68,
            "reportedRed": 68,
            "inferredRed": 68,
            "playerTrialScore": 0,
            "oppTrialScore": 0,
            "playerTotalScore": -364,
            "oppTotalScore": 220,
            "waitTime": 5329.730813737657,
            "responseTime": 1680846821236,
            "catchQuestion": "How many <b class=\"r\">red<\/b> marbles did your opponent report drawing? ",
            "catchKey": -1,
            "catchResponse": -1,
            "catchTime": 1680846738897,
            "trialTime": 0
        },
        {
            "exptPart": "trial",
            "trialNumber": 89,
            "roleCurrent": "receiver",
            "marblesSampled": 100,
            "probRed": 0.5,
            "practiceLambda": 5,
            "trialLambda": 0.3,
            "instructedLambda": "dishonest_small",
            "drawnRed": 40,
            "reportedRed": 40,
            "inferredRed": 40,
            "playerTrialScore": 0,
            "oppTrialScore": 0,
            "playerTotalScore": -364,
            "oppTotalScore": 220,
            "waitTime": 5268.244195033163,
            "responseTime": 1680846829932,
            "catchQuestion": "How many <b class=\"r\">red<\/b> marbles did your opponent report drawing? ",
            "catchKey": -1,
            "catchResponse": -1,
            "catchTime": 1680846738897,
            "trialTime": 0
        },
        {
            "exptPart": "trial",
            "trialNumber": 90,
            "roleCurrent": "receiver",
            "marblesSampled": 100,
            "probRed": 0.5,
            "practiceLambda": 5,
            "trialLambda": 0.3,
            "instructedLambda": "dishonest_small",
            "drawnRed": 33,
            "reportedRed": 33,
            "inferredRed": 33,
            "playerTrialScore": 0,
            "oppTrialScore": 0,
            "playerTotalScore": -364,
            "oppTotalScore": 220,
            "waitTime": 6015.34600957839,
            "responseTime": 1680846840098,
            "catchQuestion": "How many <b class=\"r\">red<\/b> marbles did your opponent report drawing? ",
            "catchKey": 33,
            "catchResponse": 44,
            "catchTime": 1680846840098,
            "trialTime": 0
        },
        {
            "exptPart": "trial",
            "trialNumber": 91,
            "roleCurrent": "receiver",
            "marblesSampled": 100,
            "probRed": 0.5,
            "practiceLambda": 5,
            "trialLambda": 0.3,
            "instructedLambda": "dishonest_small",
            "drawnRed": 52,
            "reportedRed": 52,
            "inferredRed": 52,
            "playerTrialScore": 0,
            "oppTrialScore": 0,
            "playerTotalScore": -364,
            "oppTotalScore": 220,
            "waitTime": 5404.6978787613025,
            "responseTime": 1680846860748,
            "catchQuestion": "How many <b class=\"r\">red<\/b> marbles did your opponent report drawing? ",
            "catchKey": -1,
            "catchResponse": -1,
            "catchTime": 1680846840098,
            "trialTime": 0
        },
        {
            "exptPart": "trial",
            "trialNumber": 92,
            "roleCurrent": "receiver",
            "marblesSampled": 100,
            "probRed": 0.5,
            "practiceLambda": 5,
            "trialLambda": 0.3,
            "instructedLambda": "dishonest_small",
            "drawnRed": 31,
            "reportedRed": 31,
            "inferredRed": 31,
            "playerTrialScore": 0,
            "oppTrialScore": 0,
            "playerTotalScore": -364,
            "oppTotalScore": 220,
            "waitTime": 6575.320080993839,
            "responseTime": 1680846870085,
            "catchQuestion": "How many <b class=\"r\">red<\/b> marbles did your opponent report drawing? ",
            "catchKey": -1,
            "catchResponse": -1,
            "catchTime": 1680846840098,
            "trialTime": 0
        },
        {
            "exptPart": "trial",
            "trialNumber": 93,
            "roleCurrent": "receiver",
            "marblesSampled": 100,
            "probRed": 0.5,
            "practiceLambda": 5,
            "trialLambda": 0.3,
            "instructedLambda": "dishonest_small",
            "drawnRed": 69,
            "reportedRed": 69,
            "inferredRed": 69,
            "playerTrialScore": 0,
            "oppTrialScore": 0,
            "playerTotalScore": -364,
            "oppTotalScore": 220,
            "waitTime": 7233.252437293259,
            "responseTime": 1680846881137,
            "catchQuestion": "How many <b class=\"r\">red<\/b> marbles did your opponent report drawing? ",
            "catchKey": -1,
            "catchResponse": -1,
            "catchTime": 1680846840098,
            "trialTime": 0
        },
        {
            "exptPart": "trial",
            "trialNumber": 94,
            "roleCurrent": "receiver",
            "marblesSampled": 100,
            "probRed": 0.5,
            "practiceLambda": 5,
            "trialLambda": 0.3,
            "instructedLambda": "dishonest_small",
            "drawnRed": 79,
            "reportedRed": 79,
            "inferredRed": 79,
            "playerTrialScore": 0,
            "oppTrialScore": 0,
            "playerTotalScore": -364,
            "oppTotalScore": 220,
            "waitTime": 6801.894095616491,
            "responseTime": 1680846890641,
            "catchQuestion": "How many <b class=\"r\">red<\/b> marbles did your opponent report drawing? ",
            "catchKey": -1,
            "catchResponse": -1,
            "catchTime": 1680846840098,
            "trialTime": 0
        },
        {
            "exptPart": "trial",
            "trialNumber": 95,
            "roleCurrent": "receiver",
            "marblesSampled": 100,
            "probRed": 0.5,
            "practiceLambda": 5,
            "trialLambda": 0.3,
            "instructedLambda": "dishonest_small",
            "drawnRed": 48,
            "reportedRed": 48,
            "inferredRed": 48,
            "playerTrialScore": 0,
            "oppTrialScore": 0,
            "playerTotalScore": -364,
            "oppTotalScore": 220,
            "waitTime": 6821.512200729903,
            "responseTime": 1680846901699,
            "catchQuestion": "How many <b class=\"r\">red<\/b> marbles did your opponent report drawing? ",
            "catchKey": -1,
            "catchResponse": -1,
            "catchTime": 1680846840098,
            "trialTime": 0
        },
        {
            "exptPart": "trial",
            "trialNumber": 96,
            "roleCurrent": "receiver",
            "marblesSampled": 100,
            "probRed": 0.5,
            "practiceLambda": 5,
            "trialLambda": 0.3,
            "instructedLambda": "dishonest_small",
            "drawnRed": 21,
            "reportedRed": 23,
            "inferredRed": 23,
            "playerTrialScore": -2,
            "oppTrialScore": 2,
            "playerTotalScore": -366,
            "oppTotalScore": 222,
            "waitTime": 5978.182061754699,
            "responseTime": 1680846911084,
            "catchQuestion": "How many <b class=\"r\">red<\/b> marbles did your opponent report drawing? ",
            "catchKey": -1,
            "catchResponse": -1,
            "catchTime": 1680846840098,
            "trialTime": 0
        },
        {
            "exptPart": "trial",
            "trialNumber": 97,
            "roleCurrent": "receiver",
            "marblesSampled": 100,
            "probRed": 0.5,
            "practiceLambda": 5,
            "trialLambda": 0.3,
            "instructedLambda": "dishonest_small",
            "drawnRed": 61,
            "reportedRed": 61,
            "inferredRed": 61,
            "playerTrialScore": 0,
            "oppTrialScore": 0,
            "playerTotalScore": -366,
            "oppTotalScore": 222,
            "waitTime": 5834.977867562731,
            "responseTime": 1680846920086,
            "catchQuestion": "How many <b class=\"r\">red<\/b> marbles did your opponent report drawing? ",
            "catchKey": -1,
            "catchResponse": -1,
            "catchTime": 1680846840098,
            "trialTime": 0
        },
        {
            "exptPart": "trial",
            "trialNumber": 98,
            "roleCurrent": "receiver",
            "marblesSampled": 100,
            "probRed": 0.5,
            "practiceLambda": 5,
            "trialLambda": 0.3,
            "instructedLambda": "dishonest_small",
            "drawnRed": 69,
            "reportedRed": 69,
            "inferredRed": 69,
            "playerTrialScore": 0,
            "oppTrialScore": 0,
            "playerTotalScore": -366,
            "oppTotalScore": 222,
            "waitTime": 5960.688662059516,
            "responseTime": 1680846929604,
            "catchQuestion": "How many <b class=\"r\">red<\/b> marbles did your opponent report drawing? ",
            "catchKey": -1,
            "catchResponse": -1,
            "catchTime": 1680846840098,
            "trialTime": 0
        },
        {
            "exptPart": "trial",
            "trialNumber": 99,
            "roleCurrent": "receiver",
            "marblesSampled": 100,
            "probRed": 0.5,
            "practiceLambda": 5,
            "trialLambda": 0.3,
            "instructedLambda": "dishonest_small",
            "drawnRed": 79,
            "reportedRed": 79,
            "inferredRed": 79,
            "playerTrialScore": 0,
            "oppTrialScore": 0,
            "playerTotalScore": -366,
            "oppTotalScore": 222,
            "waitTime": 7055.066189747527,
            "responseTime": 1680846951030,
            "catchQuestion": "How many <b class=\"r\">red<\/b> marbles did your opponent report drawing? ",
            "catchKey": -1,
            "catchResponse": -1,
            "catchTime": 1680846840098,
            "trialTime": 0
        },
        {
            "exptPart": "trial",
            "trialNumber": 100,
            "roleCurrent": "receiver",
            "marblesSampled": 100,
            "probRed": 0.5,
            "practiceLambda": 5,
            "trialLambda": 0.3,
            "instructedLambda": "dishonest_small",
            "drawnRed": 18,
            "reportedRed": 20,
            "inferredRed": 20,
            "playerTrialScore": -2,
            "oppTrialScore": 2,
            "playerTotalScore": -368,
            "oppTotalScore": 224,
            "waitTime": 6511.241887577102,
            "responseTime": 1680846966580,
            "catchQuestion": "How many <b class=\"r\">red<\/b> marbles did your opponent report drawing? ",
            "catchKey": -1,
            "catchResponse": -1,
            "catchTime": 1680846966580,
            "trialTime": 0
        }
    ]
}