{
    "client": {
        "type": "sona",
        "experiment_id": 2488,
        "credit_token": "79d15902e9034cb6b65a542be205401c",
        "survey_code": "36372",
        "sid": "sona-36372",
        "window": {
            "width": 1728,
            "height": 892
        },
        "screen": {
            "width": 1728,
            "height": 1117
        },
        "userAgent": "Mozilla\/5.0 (Macintosh; Intel Mac OS X 10_15_7) AppleWebKit\/537.36 (KHTML, like Gecko) Chrome\/109.0.0.0 Safari\/537.36",
        "score": 0,
        "bonus": 0
    },
    "expt": {
        "saveURL": "submit.simple.php",
        "trials": 100,
        "practiceTrials": 2,
        "marblesSampled": 100,
        "probRed": 0.5,
        "practiceLambdaAI": 5,
        "lambdaAI": 21.9,
        "roles": [
            "sender",
            "receiver"
        ],
        "cost": "unif",
        "goal": "over",
        "oppDishonesty": "honest",
        "catchTrials": [
            4,
            30,
            93,
            39,
            28,
            80,
            88,
            65,
            63,
            52
        ],
        "scoreTotal": {
            "player": -1868,
            "opp": 1828
        },
        "sona": {
            "experiment_id": 2488,
            "credit_token": "79d15902e9034cb6b65a542be205401c"
        },
        "pilot": false,
        "debug": false
    },
    "trials": [
        {
            "exptPart": "practice",
            "trialNumber": 1,
            "roleCurrent": "sender",
            "marblesSampled": 100,
            "probRed": 0.5,
            "practiceLambda": 5,
            "trialLambda": 21.9,
            "instructedLambda": "honest",
            "drawnRed": 61,
            "reportedRed": 65,
            "inferredRed": 64,
            "playerTrialScore": 3,
            "oppTrialScore": -3,
            "playerTotalScore": 3,
            "oppTotalScore": -3,
            "waitTime": 2824.2478908643416,
            "responseTime": 1678906614829,
            "catchQuestion": "How many <b class=\"r\">red<\/b> marbles did you actually draw (before any changes)? ",
            "catchKey": 61,
            "catchResponse": 63,
            "catchTime": 1678906614830,
            "trialTime": 0
        },
        {
            "exptPart": "practice",
            "trialNumber": 2,
            "roleCurrent": "receiver",
            "marblesSampled": 100,
            "probRed": 0.5,
            "practiceLambda": 5,
            "trialLambda": 21.9,
            "instructedLambda": "honest",
            "drawnRed": 82,
            "reportedRed": 85,
            "inferredRed": 74,
            "playerTrialScore": -8,
            "oppTrialScore": 0,
            "playerTotalScore": -5,
            "oppTotalScore": -3,
            "waitTime": 5142.75215640952,
            "responseTime": 1678906664174,
            "catchQuestion": "How many <b class=\"r\">red<\/b> marbles did your opponent report drawing? ",
            "catchKey": 85,
            "catchResponse": 85,
            "catchTime": 1678906664174,
            "trialTime": 0
        },
        {
            "exptPart": "trial",
            "trialNumber": 1,
            "roleCurrent": "receiver",
            "marblesSampled": 100,
            "probRed": 0.5,
            "practiceLambda": 5,
            "trialLambda": 21.9,
            "instructedLambda": "honest",
            "drawnRed": 65,
            "reportedRed": 83,
            "inferredRed": 78,
            "playerTrialScore": -13,
            "oppTrialScore": 13,
            "playerTotalScore": -13,
            "oppTotalScore": 13,
            "waitTime": 5285.454499253774,
            "responseTime": 1678906696043,
            "catchQuestion": "How many <b class=\"r\">red<\/b> marbles did your opponent report drawing? ",
            "catchKey": -1,
            "catchResponse": -1,
            "catchTime": 1678906664174,
            "trialTime": 0
        },
        {
            "exptPart": "trial",
            "trialNumber": 2,
            "roleCurrent": "receiver",
            "marblesSampled": 100,
            "probRed": 0.5,
            "practiceLambda": 5,
            "trialLambda": 21.9,
            "instructedLambda": "honest",
            "drawnRed": 23,
            "reportedRed": 41,
            "inferredRed": 36,
            "playerTrialScore": -13,
            "oppTrialScore": 13,
            "playerTotalScore": -26,
            "oppTotalScore": 26,
            "waitTime": 5290.143690509585,
            "responseTime": 1678906708881,
            "catchQuestion": "How many <b class=\"r\">red<\/b> marbles did your opponent report drawing? ",
            "catchKey": -1,
            "catchResponse": -1,
            "catchTime": 1678906664174,
            "trialTime": 0
        },
        {
            "exptPart": "trial",
            "trialNumber": 3,
            "roleCurrent": "receiver",
            "marblesSampled": 100,
            "probRed": 0.5,
            "practiceLambda": 5,
            "trialLambda": 21.9,
            "instructedLambda": "honest",
            "drawnRed": 42,
            "reportedRed": 62,
            "inferredRed": 56,
            "playerTrialScore": -14,
            "oppTrialScore": 14,
            "playerTotalScore": -40,
            "oppTotalScore": 40,
            "waitTime": 5853.143715097224,
            "responseTime": 1678906719996,
            "catchQuestion": "How many <b class=\"r\">red<\/b> marbles did your opponent report drawing? ",
            "catchKey": -1,
            "catchResponse": -1,
            "catchTime": 1678906664174,
            "trialTime": 0
        },
        {
            "exptPart": "trial",
            "trialNumber": 4,
            "roleCurrent": "receiver",
            "marblesSampled": 100,
            "probRed": 0.5,
            "practiceLambda": 5,
            "trialLambda": 21.9,
            "instructedLambda": "honest",
            "drawnRed": 65,
            "reportedRed": 91,
            "inferredRed": 86,
            "playerTrialScore": -21,
            "oppTrialScore": 21,
            "playerTotalScore": -61,
            "oppTotalScore": 61,
            "waitTime": 5473.3850810897875,
            "responseTime": 1678906734287,
            "catchQuestion": "How many <b class=\"r\">red<\/b> marbles did your opponent report drawing? ",
            "catchKey": -1,
            "catchResponse": -1,
            "catchTime": 1678906664174,
            "trialTime": 0
        },
        {
            "exptPart": "trial",
            "trialNumber": 5,
            "roleCurrent": "receiver",
            "marblesSampled": 100,
            "probRed": 0.5,
            "practiceLambda": 5,
            "trialLambda": 21.9,
            "instructedLambda": "honest",
            "drawnRed": 55,
            "reportedRed": 84,
            "inferredRed": 76,
            "playerTrialScore": -21,
            "oppTrialScore": 21,
            "playerTotalScore": -82,
            "oppTotalScore": 82,
            "waitTime": 7274.11544550869,
            "responseTime": 1678906745854,
            "catchQuestion": "How many <b class=\"r\">red<\/b> marbles did your opponent report drawing? ",
            "catchKey": 84,
            "catchResponse": 85,
            "catchTime": 1678906745854,
            "trialTime": 0
        },
        {
            "exptPart": "trial",
            "trialNumber": 6,
            "roleCurrent": "receiver",
            "marblesSampled": 100,
            "probRed": 0.5,
            "practiceLambda": 5,
            "trialLambda": 21.9,
            "instructedLambda": "honest",
            "drawnRed": 25,
            "reportedRed": 47,
            "inferredRed": 38,
            "playerTrialScore": -13,
            "oppTrialScore": 13,
            "playerTotalScore": -95,
            "oppTotalScore": 95,
            "waitTime": 5712.289449240925,
            "responseTime": 1678906795197,
            "catchQuestion": "How many <b class=\"r\">red<\/b> marbles did your opponent report drawing? ",
            "catchKey": -1,
            "catchResponse": -1,
            "catchTime": 1678906745854,
            "trialTime": 0
        },
        {
            "exptPart": "trial",
            "trialNumber": 7,
            "roleCurrent": "receiver",
            "marblesSampled": 100,
            "probRed": 0.5,
            "practiceLambda": 5,
            "trialLambda": 21.9,
            "instructedLambda": "honest",
            "drawnRed": 40,
            "reportedRed": 63,
            "inferredRed": 54,
            "playerTrialScore": -14,
            "oppTrialScore": 14,
            "playerTotalScore": -109,
            "oppTotalScore": 109,
            "waitTime": 6421.972249026986,
            "responseTime": 1678906806222,
            "catchQuestion": "How many <b class=\"r\">red<\/b> marbles did your opponent report drawing? ",
            "catchKey": -1,
            "catchResponse": -1,
            "catchTime": 1678906745854,
            "trialTime": 0
        },
        {
            "exptPart": "trial",
            "trialNumber": 8,
            "roleCurrent": "receiver",
            "marblesSampled": 100,
            "probRed": 0.5,
            "practiceLambda": 5,
            "trialLambda": 21.9,
            "instructedLambda": "honest",
            "drawnRed": 40,
            "reportedRed": 59,
            "inferredRed": 54,
            "playerTrialScore": -14,
            "oppTrialScore": 14,
            "playerTotalScore": -123,
            "oppTotalScore": 123,
            "waitTime": 5942.640343025347,
            "responseTime": 1678906816806,
            "catchQuestion": "How many <b class=\"r\">red<\/b> marbles did your opponent report drawing? ",
            "catchKey": -1,
            "catchResponse": -1,
            "catchTime": 1678906745854,
            "trialTime": 0
        },
        {
            "exptPart": "trial",
            "trialNumber": 9,
            "roleCurrent": "receiver",
            "marblesSampled": 100,
            "probRed": 0.5,
            "practiceLambda": 5,
            "trialLambda": 21.9,
            "instructedLambda": "honest",
            "drawnRed": 13,
            "reportedRed": 35,
            "inferredRed": 26,
            "playerTrialScore": -13,
            "oppTrialScore": 13,
            "playerTotalScore": -136,
            "oppTotalScore": 136,
            "waitTime": 5715.77012196627,
            "responseTime": 1678906830041,
            "catchQuestion": "How many <b class=\"r\">red<\/b> marbles did your opponent report drawing? ",
            "catchKey": -1,
            "catchResponse": -1,
            "catchTime": 1678906745854,
            "trialTime": 0
        },
        {
            "exptPart": "trial",
            "trialNumber": 10,
            "roleCurrent": "receiver",
            "marblesSampled": 100,
            "probRed": 0.5,
            "practiceLambda": 5,
            "trialLambda": 21.9,
            "instructedLambda": "honest",
            "drawnRed": 55,
            "reportedRed": 81,
            "inferredRed": 75,
            "playerTrialScore": -20,
            "oppTrialScore": 20,
            "playerTotalScore": -156,
            "oppTotalScore": 156,
            "waitTime": 6781.831259327696,
            "responseTime": 1678906841584,
            "catchQuestion": "How many <b class=\"r\">red<\/b> marbles did your opponent report drawing? ",
            "catchKey": -1,
            "catchResponse": -1,
            "catchTime": 1678906841584,
            "trialTime": 0
        },
        {
            "exptPart": "trial",
            "trialNumber": 11,
            "roleCurrent": "receiver",
            "marblesSampled": 100,
            "probRed": 0.5,
            "practiceLambda": 5,
            "trialLambda": 21.9,
            "instructedLambda": "honest",
            "drawnRed": 42,
            "reportedRed": 65,
            "inferredRed": 60,
            "playerTrialScore": -18,
            "oppTrialScore": 18,
            "playerTotalScore": -174,
            "oppTotalScore": 174,
            "waitTime": 5316.57404661729,
            "responseTime": 1678906859198,
            "catchQuestion": "How many <b class=\"r\">red<\/b> marbles did your opponent report drawing? ",
            "catchKey": -1,
            "catchResponse": -1,
            "catchTime": 1678906841584,
            "trialTime": 0
        },
        {
            "exptPart": "trial",
            "trialNumber": 12,
            "roleCurrent": "receiver",
            "marblesSampled": 100,
            "probRed": 0.5,
            "practiceLambda": 5,
            "trialLambda": 21.9,
            "instructedLambda": "honest",
            "drawnRed": 37,
            "reportedRed": 60,
            "inferredRed": 55,
            "playerTrialScore": -18,
            "oppTrialScore": 18,
            "playerTotalScore": -192,
            "oppTotalScore": 192,
            "waitTime": 6339.507030443099,
            "responseTime": 1678906869701,
            "catchQuestion": "How many <b class=\"r\">red<\/b> marbles did your opponent report drawing? ",
            "catchKey": -1,
            "catchResponse": -1,
            "catchTime": 1678906841584,
            "trialTime": 0
        },
        {
            "exptPart": "trial",
            "trialNumber": 13,
            "roleCurrent": "receiver",
            "marblesSampled": 100,
            "probRed": 0.5,
            "practiceLambda": 5,
            "trialLambda": 21.9,
            "instructedLambda": "honest",
            "drawnRed": 37,
            "reportedRed": 60,
            "inferredRed": 58,
            "playerTrialScore": -21,
            "oppTrialScore": 21,
            "playerTotalScore": -213,
            "oppTotalScore": 213,
            "waitTime": 5758.485529999114,
            "responseTime": 1678906879725,
            "catchQuestion": "How many <b class=\"r\">red<\/b> marbles did your opponent report drawing? ",
            "catchKey": -1,
            "catchResponse": -1,
            "catchTime": 1678906841584,
            "trialTime": 0
        },
        {
            "exptPart": "trial",
            "trialNumber": 14,
            "roleCurrent": "receiver",
            "marblesSampled": 100,
            "probRed": 0.5,
            "practiceLambda": 5,
            "trialLambda": 21.9,
            "instructedLambda": "honest",
            "drawnRed": 65,
            "reportedRed": 84,
            "inferredRed": 79,
            "playerTrialScore": -14,
            "oppTrialScore": 14,
            "playerTotalScore": -227,
            "oppTotalScore": 227,
            "waitTime": 7455.084645002501,
            "responseTime": 1678906893292,
            "catchQuestion": "How many <b class=\"r\">red<\/b> marbles did your opponent report drawing? ",
            "catchKey": -1,
            "catchResponse": -1,
            "catchTime": 1678906841584,
            "trialTime": 0
        },
        {
            "exptPart": "trial",
            "trialNumber": 15,
            "roleCurrent": "receiver",
            "marblesSampled": 100,
            "probRed": 0.5,
            "practiceLambda": 5,
            "trialLambda": 21.9,
            "instructedLambda": "honest",
            "drawnRed": 56,
            "reportedRed": 77,
            "inferredRed": 77,
            "playerTrialScore": -21,
            "oppTrialScore": 21,
            "playerTotalScore": -248,
            "oppTotalScore": 248,
            "waitTime": 6028.5589558807005,
            "responseTime": 1678906904628,
            "catchQuestion": "How many <b class=\"r\">red<\/b> marbles did your opponent report drawing? ",
            "catchKey": -1,
            "catchResponse": -1,
            "catchTime": 1678906841584,
            "trialTime": 0
        },
        {
            "exptPart": "trial",
            "trialNumber": 16,
            "roleCurrent": "receiver",
            "marblesSampled": 100,
            "probRed": 0.5,
            "practiceLambda": 5,
            "trialLambda": 21.9,
            "instructedLambda": "honest",
            "drawnRed": 28,
            "reportedRed": 56,
            "inferredRed": 50,
            "playerTrialScore": -22,
            "oppTrialScore": 22,
            "playerTotalScore": -270,
            "oppTotalScore": 270,
            "waitTime": 6286.00822168882,
            "responseTime": 1678906914713,
            "catchQuestion": "How many <b class=\"r\">red<\/b> marbles did your opponent report drawing? ",
            "catchKey": -1,
            "catchResponse": -1,
            "catchTime": 1678906841584,
            "trialTime": 0
        },
        {
            "exptPart": "trial",
            "trialNumber": 17,
            "roleCurrent": "receiver",
            "marblesSampled": 100,
            "probRed": 0.5,
            "practiceLambda": 5,
            "trialLambda": 21.9,
            "instructedLambda": "honest",
            "drawnRed": 62,
            "reportedRed": 81,
            "inferredRed": 79,
            "playerTrialScore": -17,
            "oppTrialScore": 17,
            "playerTotalScore": -287,
            "oppTotalScore": 287,
            "waitTime": 5377.373461740098,
            "responseTime": 1678906926215,
            "catchQuestion": "How many <b class=\"r\">red<\/b> marbles did your opponent report drawing? ",
            "catchKey": -1,
            "catchResponse": -1,
            "catchTime": 1678906841584,
            "trialTime": 0
        },
        {
            "exptPart": "trial",
            "trialNumber": 18,
            "roleCurrent": "receiver",
            "marblesSampled": 100,
            "probRed": 0.5,
            "practiceLambda": 5,
            "trialLambda": 21.9,
            "instructedLambda": "honest",
            "drawnRed": 78,
            "reportedRed": 98,
            "inferredRed": 90,
            "playerTrialScore": -12,
            "oppTrialScore": 12,
            "playerTotalScore": -299,
            "oppTotalScore": 299,
            "waitTime": 5853.542634457731,
            "responseTime": 1678906935260,
            "catchQuestion": "How many <b class=\"r\">red<\/b> marbles did your opponent report drawing? ",
            "catchKey": -1,
            "catchResponse": -1,
            "catchTime": 1678906841584,
            "trialTime": 0
        },
        {
            "exptPart": "trial",
            "trialNumber": 19,
            "roleCurrent": "receiver",
            "marblesSampled": 100,
            "probRed": 0.5,
            "practiceLambda": 5,
            "trialLambda": 21.9,
            "instructedLambda": "honest",
            "drawnRed": 80,
            "reportedRed": 100,
            "inferredRed": 50,
            "playerTrialScore": -30,
            "oppTrialScore": 0,
            "playerTotalScore": -329,
            "oppTotalScore": 299,
            "waitTime": 6435.475088148447,
            "responseTime": 1678906955074,
            "catchQuestion": "How many <b class=\"r\">red<\/b> marbles did your opponent report drawing? ",
            "catchKey": -1,
            "catchResponse": -1,
            "catchTime": 1678906841584,
            "trialTime": 0
        },
        {
            "exptPart": "trial",
            "trialNumber": 20,
            "roleCurrent": "receiver",
            "marblesSampled": 100,
            "probRed": 0.5,
            "practiceLambda": 5,
            "trialLambda": 21.9,
            "instructedLambda": "honest",
            "drawnRed": 15,
            "reportedRed": 40,
            "inferredRed": 36,
            "playerTrialScore": -21,
            "oppTrialScore": 21,
            "playerTotalScore": -350,
            "oppTotalScore": 320,
            "waitTime": 6484.482042601303,
            "responseTime": 1678906966598,
            "catchQuestion": "How many <b class=\"r\">red<\/b> marbles did your opponent report drawing? ",
            "catchKey": -1,
            "catchResponse": -1,
            "catchTime": 1678906966598,
            "trialTime": 0
        },
        {
            "exptPart": "trial",
            "trialNumber": 21,
            "roleCurrent": "receiver",
            "marblesSampled": 100,
            "probRed": 0.5,
            "practiceLambda": 5,
            "trialLambda": 21.9,
            "instructedLambda": "honest",
            "drawnRed": 65,
            "reportedRed": 80,
            "inferredRed": 75,
            "playerTrialScore": -10,
            "oppTrialScore": 10,
            "playerTotalScore": -360,
            "oppTotalScore": 330,
            "waitTime": 6968.862533404987,
            "responseTime": 1678906980024,
            "catchQuestion": "How many <b class=\"r\">red<\/b> marbles did your opponent report drawing? ",
            "catchKey": -1,
            "catchResponse": -1,
            "catchTime": 1678906966598,
            "trialTime": 0
        },
        {
            "exptPart": "trial",
            "trialNumber": 22,
            "roleCurrent": "receiver",
            "marblesSampled": 100,
            "probRed": 0.5,
            "practiceLambda": 5,
            "trialLambda": 21.9,
            "instructedLambda": "honest",
            "drawnRed": 56,
            "reportedRed": 81,
            "inferredRed": 76,
            "playerTrialScore": -20,
            "oppTrialScore": 20,
            "playerTotalScore": -380,
            "oppTotalScore": 350,
            "waitTime": 7319.37840965906,
            "responseTime": 1678906992274,
            "catchQuestion": "How many <b class=\"r\">red<\/b> marbles did your opponent report drawing? ",
            "catchKey": -1,
            "catchResponse": -1,
            "catchTime": 1678906966598,
            "trialTime": 0
        },
        {
            "exptPart": "trial",
            "trialNumber": 23,
            "roleCurrent": "receiver",
            "marblesSampled": 100,
            "probRed": 0.5,
            "practiceLambda": 5,
            "trialLambda": 21.9,
            "instructedLambda": "honest",
            "drawnRed": 60,
            "reportedRed": 86,
            "inferredRed": 67,
            "playerTrialScore": -7,
            "oppTrialScore": 7,
            "playerTotalScore": -387,
            "oppTotalScore": 357,
            "waitTime": 7321.681617287668,
            "responseTime": 1678907016290,
            "catchQuestion": "How many <b class=\"r\">red<\/b> marbles did your opponent report drawing? ",
            "catchKey": -1,
            "catchResponse": -1,
            "catchTime": 1678906966598,
            "trialTime": 0
        },
        {
            "exptPart": "trial",
            "trialNumber": 24,
            "roleCurrent": "receiver",
            "marblesSampled": 100,
            "probRed": 0.5,
            "practiceLambda": 5,
            "trialLambda": 21.9,
            "instructedLambda": "honest",
            "drawnRed": 65,
            "reportedRed": 83,
            "inferredRed": 78,
            "playerTrialScore": -13,
            "oppTrialScore": 13,
            "playerTotalScore": -400,
            "oppTotalScore": 370,
            "waitTime": 6361.020620628974,
            "responseTime": 1678907025416,
            "catchQuestion": "How many <b class=\"r\">red<\/b> marbles did your opponent report drawing? ",
            "catchKey": -1,
            "catchResponse": -1,
            "catchTime": 1678906966598,
            "trialTime": 0
        },
        {
            "exptPart": "trial",
            "trialNumber": 25,
            "roleCurrent": "receiver",
            "marblesSampled": 100,
            "probRed": 0.5,
            "practiceLambda": 5,
            "trialLambda": 21.9,
            "instructedLambda": "honest",
            "drawnRed": 42,
            "reportedRed": 65,
            "inferredRed": 55,
            "playerTrialScore": -13,
            "oppTrialScore": 13,
            "playerTotalScore": -413,
            "oppTotalScore": 383,
            "waitTime": 6609.313633308193,
            "responseTime": 1678907035146,
            "catchQuestion": "How many <b class=\"r\">red<\/b> marbles did your opponent report drawing? ",
            "catchKey": -1,
            "catchResponse": -1,
            "catchTime": 1678906966598,
            "trialTime": 0
        },
        {
            "exptPart": "trial",
            "trialNumber": 26,
            "roleCurrent": "receiver",
            "marblesSampled": 100,
            "probRed": 0.5,
            "practiceLambda": 5,
            "trialLambda": 21.9,
            "instructedLambda": "honest",
            "drawnRed": 62,
            "reportedRed": 86,
            "inferredRed": 75,
            "playerTrialScore": -13,
            "oppTrialScore": 13,
            "playerTotalScore": -426,
            "oppTotalScore": 396,
            "waitTime": 6668.296377413271,
            "responseTime": 1678907069672,
            "catchQuestion": "How many <b class=\"r\">red<\/b> marbles did your opponent report drawing? ",
            "catchKey": -1,
            "catchResponse": -1,
            "catchTime": 1678906966598,
            "trialTime": 0
        },
        {
            "exptPart": "trial",
            "trialNumber": 27,
            "roleCurrent": "receiver",
            "marblesSampled": 100,
            "probRed": 0.5,
            "practiceLambda": 5,
            "trialLambda": 21.9,
            "instructedLambda": "honest",
            "drawnRed": 79,
            "reportedRed": 100,
            "inferredRed": 80,
            "playerTrialScore": -1,
            "oppTrialScore": 1,
            "playerTotalScore": -427,
            "oppTotalScore": 397,
            "waitTime": 5402.882800705762,
            "responseTime": 1678907078610,
            "catchQuestion": "How many <b class=\"r\">red<\/b> marbles did your opponent report drawing? ",
            "catchKey": -1,
            "catchResponse": -1,
            "catchTime": 1678906966598,
            "trialTime": 0
        },
        {
            "exptPart": "trial",
            "trialNumber": 28,
            "roleCurrent": "receiver",
            "marblesSampled": 100,
            "probRed": 0.5,
            "practiceLambda": 5,
            "trialLambda": 21.9,
            "instructedLambda": "honest",
            "drawnRed": 17,
            "reportedRed": 49,
            "inferredRed": 40,
            "playerTrialScore": -23,
            "oppTrialScore": 23,
            "playerTotalScore": -450,
            "oppTotalScore": 420,
            "waitTime": 5206.913153079555,
            "responseTime": 1678907089884,
            "catchQuestion": "How many <b class=\"r\">red<\/b> marbles did your opponent report drawing? ",
            "catchKey": -1,
            "catchResponse": -1,
            "catchTime": 1678906966598,
            "trialTime": 0
        },
        {
            "exptPart": "trial",
            "trialNumber": 29,
            "roleCurrent": "receiver",
            "marblesSampled": 100,
            "probRed": 0.5,
            "practiceLambda": 5,
            "trialLambda": 21.9,
            "instructedLambda": "honest",
            "drawnRed": 18,
            "reportedRed": 37,
            "inferredRed": 32,
            "playerTrialScore": -14,
            "oppTrialScore": 14,
            "playerTotalScore": -464,
            "oppTotalScore": 434,
            "waitTime": 6196.8411041646705,
            "responseTime": 1678907100458,
            "catchQuestion": "How many <b class=\"r\">red<\/b> marbles did your opponent report drawing? ",
            "catchKey": 37,
            "catchResponse": 37,
            "catchTime": 1678907100458,
            "trialTime": 0
        },
        {
            "exptPart": "trial",
            "trialNumber": 30,
            "roleCurrent": "receiver",
            "marblesSampled": 100,
            "probRed": 0.5,
            "practiceLambda": 5,
            "trialLambda": 21.9,
            "instructedLambda": "honest",
            "drawnRed": 82,
            "reportedRed": 100,
            "inferredRed": 90,
            "playerTrialScore": -8,
            "oppTrialScore": 8,
            "playerTotalScore": -472,
            "oppTotalScore": 442,
            "waitTime": 7163.857784581009,
            "responseTime": 1678907116164,
            "catchQuestion": "How many <b class=\"r\">red<\/b> marbles did your opponent report drawing? ",
            "catchKey": -1,
            "catchResponse": -1,
            "catchTime": 1678907116164,
            "trialTime": 0
        },
        {
            "exptPart": "trial",
            "trialNumber": 31,
            "roleCurrent": "receiver",
            "marblesSampled": 100,
            "probRed": 0.5,
            "practiceLambda": 5,
            "trialLambda": 21.9,
            "instructedLambda": "honest",
            "drawnRed": 55,
            "reportedRed": 74,
            "inferredRed": 70,
            "playerTrialScore": -15,
            "oppTrialScore": 15,
            "playerTotalScore": -487,
            "oppTotalScore": 457,
            "waitTime": 6620.400911940897,
            "responseTime": 1678907129658,
            "catchQuestion": "How many <b class=\"r\">red<\/b> marbles did your opponent report drawing? ",
            "catchKey": 74,
            "catchResponse": 74,
            "catchTime": 1678907129658,
            "trialTime": 0
        },
        {
            "exptPart": "trial",
            "trialNumber": 32,
            "roleCurrent": "receiver",
            "marblesSampled": 100,
            "probRed": 0.5,
            "practiceLambda": 5,
            "trialLambda": 21.9,
            "instructedLambda": "honest",
            "drawnRed": 21,
            "reportedRed": 49,
            "inferredRed": 50,
            "playerTrialScore": -29,
            "oppTrialScore": 29,
            "playerTotalScore": -516,
            "oppTotalScore": 486,
            "waitTime": 5235.931146130999,
            "responseTime": 1678907143246,
            "catchQuestion": "How many <b class=\"r\">red<\/b> marbles did your opponent report drawing? ",
            "catchKey": -1,
            "catchResponse": -1,
            "catchTime": 1678907129658,
            "trialTime": 0
        },
        {
            "exptPart": "trial",
            "trialNumber": 33,
            "roleCurrent": "receiver",
            "marblesSampled": 100,
            "probRed": 0.5,
            "practiceLambda": 5,
            "trialLambda": 21.9,
            "instructedLambda": "honest",
            "drawnRed": 19,
            "reportedRed": 42,
            "inferredRed": 45,
            "playerTrialScore": -26,
            "oppTrialScore": 26,
            "playerTotalScore": -542,
            "oppTotalScore": 512,
            "waitTime": 6882.603923106588,
            "responseTime": 1678907154166,
            "catchQuestion": "How many <b class=\"r\">red<\/b> marbles did your opponent report drawing? ",
            "catchKey": -1,
            "catchResponse": -1,
            "catchTime": 1678907129658,
            "trialTime": 0
        },
        {
            "exptPart": "trial",
            "trialNumber": 34,
            "roleCurrent": "receiver",
            "marblesSampled": 100,
            "probRed": 0.5,
            "practiceLambda": 5,
            "trialLambda": 21.9,
            "instructedLambda": "honest",
            "drawnRed": 36,
            "reportedRed": 50,
            "inferredRed": 43,
            "playerTrialScore": -7,
            "oppTrialScore": 7,
            "playerTotalScore": -549,
            "oppTotalScore": 519,
            "waitTime": 5792.994709086337,
            "responseTime": 1678907165399,
            "catchQuestion": "How many <b class=\"r\">red<\/b> marbles did your opponent report drawing? ",
            "catchKey": -1,
            "catchResponse": -1,
            "catchTime": 1678907129658,
            "trialTime": 0
        },
        {
            "exptPart": "trial",
            "trialNumber": 35,
            "roleCurrent": "receiver",
            "marblesSampled": 100,
            "probRed": 0.5,
            "practiceLambda": 5,
            "trialLambda": 21.9,
            "instructedLambda": "honest",
            "drawnRed": 32,
            "reportedRed": 62,
            "inferredRed": 56,
            "playerTrialScore": -24,
            "oppTrialScore": 24,
            "playerTotalScore": -573,
            "oppTotalScore": 543,
            "waitTime": 5554.649475669883,
            "responseTime": 1678907174366,
            "catchQuestion": "How many <b class=\"r\">red<\/b> marbles did your opponent report drawing? ",
            "catchKey": -1,
            "catchResponse": -1,
            "catchTime": 1678907129658,
            "trialTime": 0
        },
        {
            "exptPart": "trial",
            "trialNumber": 36,
            "roleCurrent": "receiver",
            "marblesSampled": 100,
            "probRed": 0.5,
            "practiceLambda": 5,
            "trialLambda": 21.9,
            "instructedLambda": "honest",
            "drawnRed": 90,
            "reportedRed": 100,
            "inferredRed": 80,
            "playerTrialScore": -10,
            "oppTrialScore": 0,
            "playerTotalScore": -583,
            "oppTotalScore": 543,
            "waitTime": 7216.179862531049,
            "responseTime": 1678907184638,
            "catchQuestion": "How many <b class=\"r\">red<\/b> marbles did your opponent report drawing? ",
            "catchKey": -1,
            "catchResponse": -1,
            "catchTime": 1678907129658,
            "trialTime": 0
        },
        {
            "exptPart": "trial",
            "trialNumber": 37,
            "roleCurrent": "receiver",
            "marblesSampled": 100,
            "probRed": 0.5,
            "practiceLambda": 5,
            "trialLambda": 21.9,
            "instructedLambda": "honest",
            "drawnRed": 72,
            "reportedRed": 98,
            "inferredRed": 96,
            "playerTrialScore": -24,
            "oppTrialScore": 24,
            "playerTotalScore": -607,
            "oppTotalScore": 567,
            "waitTime": 5718.072872843544,
            "responseTime": 1678907202081,
            "catchQuestion": "How many <b class=\"r\">red<\/b> marbles did your opponent report drawing? ",
            "catchKey": -1,
            "catchResponse": -1,
            "catchTime": 1678907129658,
            "trialTime": 0
        },
        {
            "exptPart": "trial",
            "trialNumber": 38,
            "roleCurrent": "receiver",
            "marblesSampled": 100,
            "probRed": 0.5,
            "practiceLambda": 5,
            "trialLambda": 21.9,
            "instructedLambda": "honest",
            "drawnRed": 41,
            "reportedRed": 61,
            "inferredRed": 58,
            "playerTrialScore": -17,
            "oppTrialScore": 17,
            "playerTotalScore": -624,
            "oppTotalScore": 584,
            "waitTime": 7078.416770654234,
            "responseTime": 1678907212958,
            "catchQuestion": "How many <b class=\"r\">red<\/b> marbles did your opponent report drawing? ",
            "catchKey": -1,
            "catchResponse": -1,
            "catchTime": 1678907129658,
            "trialTime": 0
        },
        {
            "exptPart": "trial",
            "trialNumber": 39,
            "roleCurrent": "receiver",
            "marblesSampled": 100,
            "probRed": 0.5,
            "practiceLambda": 5,
            "trialLambda": 21.9,
            "instructedLambda": "honest",
            "drawnRed": 15,
            "reportedRed": 42,
            "inferredRed": 40,
            "playerTrialScore": -25,
            "oppTrialScore": 25,
            "playerTotalScore": -649,
            "oppTotalScore": 609,
            "waitTime": 5737.355618653937,
            "responseTime": 1678907221729,
            "catchQuestion": "How many <b class=\"r\">red<\/b> marbles did your opponent report drawing? ",
            "catchKey": -1,
            "catchResponse": -1,
            "catchTime": 1678907129658,
            "trialTime": 0
        },
        {
            "exptPart": "trial",
            "trialNumber": 40,
            "roleCurrent": "receiver",
            "marblesSampled": 100,
            "probRed": 0.5,
            "practiceLambda": 5,
            "trialLambda": 21.9,
            "instructedLambda": "honest",
            "drawnRed": 45,
            "reportedRed": 65,
            "inferredRed": 60,
            "playerTrialScore": -15,
            "oppTrialScore": 15,
            "playerTotalScore": -664,
            "oppTotalScore": 624,
            "waitTime": 7491.798916548552,
            "responseTime": 1678907231857,
            "catchQuestion": "How many <b class=\"r\">red<\/b> marbles did your opponent report drawing? ",
            "catchKey": 65,
            "catchResponse": 65,
            "catchTime": 1678907231857,
            "trialTime": 0
        },
        {
            "exptPart": "trial",
            "trialNumber": 41,
            "roleCurrent": "receiver",
            "marblesSampled": 100,
            "probRed": 0.5,
            "practiceLambda": 5,
            "trialLambda": 21.9,
            "instructedLambda": "honest",
            "drawnRed": 40,
            "reportedRed": 60,
            "inferredRed": 60,
            "playerTrialScore": -20,
            "oppTrialScore": 20,
            "playerTotalScore": -684,
            "oppTotalScore": 644,
            "waitTime": 6573.808113608382,
            "responseTime": 1678907247376,
            "catchQuestion": "How many <b class=\"r\">red<\/b> marbles did your opponent report drawing? ",
            "catchKey": -1,
            "catchResponse": -1,
            "catchTime": 1678907231857,
            "trialTime": 0
        },
        {
            "exptPart": "trial",
            "trialNumber": 42,
            "roleCurrent": "receiver",
            "marblesSampled": 100,
            "probRed": 0.5,
            "practiceLambda": 5,
            "trialLambda": 21.9,
            "instructedLambda": "honest",
            "drawnRed": 32,
            "reportedRed": 52,
            "inferredRed": 52,
            "playerTrialScore": -20,
            "oppTrialScore": 20,
            "playerTotalScore": -704,
            "oppTotalScore": 664,
            "waitTime": 7299.217159607186,
            "responseTime": 1678907257754,
            "catchQuestion": "How many <b class=\"r\">red<\/b> marbles did your opponent report drawing? ",
            "catchKey": -1,
            "catchResponse": -1,
            "catchTime": 1678907231857,
            "trialTime": 0
        },
        {
            "exptPart": "trial",
            "trialNumber": 43,
            "roleCurrent": "receiver",
            "marblesSampled": 100,
            "probRed": 0.5,
            "practiceLambda": 5,
            "trialLambda": 21.9,
            "instructedLambda": "honest",
            "drawnRed": 66,
            "reportedRed": 88,
            "inferredRed": 85,
            "playerTrialScore": -19,
            "oppTrialScore": 19,
            "playerTotalScore": -723,
            "oppTotalScore": 683,
            "waitTime": 5774.1774264902615,
            "responseTime": 1678907267675,
            "catchQuestion": "How many <b class=\"r\">red<\/b> marbles did your opponent report drawing? ",
            "catchKey": -1,
            "catchResponse": -1,
            "catchTime": 1678907231857,
            "trialTime": 0
        },
        {
            "exptPart": "trial",
            "trialNumber": 44,
            "roleCurrent": "receiver",
            "marblesSampled": 100,
            "probRed": 0.5,
            "practiceLambda": 5,
            "trialLambda": 21.9,
            "instructedLambda": "honest",
            "drawnRed": 35,
            "reportedRed": 55,
            "inferredRed": 50,
            "playerTrialScore": -15,
            "oppTrialScore": 15,
            "playerTotalScore": -738,
            "oppTotalScore": 698,
            "waitTime": 6947.338708553692,
            "responseTime": 1678907277781,
            "catchQuestion": "How many <b class=\"r\">red<\/b> marbles did your opponent report drawing? ",
            "catchKey": -1,
            "catchResponse": -1,
            "catchTime": 1678907231857,
            "trialTime": 0
        },
        {
            "exptPart": "trial",
            "trialNumber": 45,
            "roleCurrent": "receiver",
            "marblesSampled": 100,
            "probRed": 0.5,
            "practiceLambda": 5,
            "trialLambda": 21.9,
            "instructedLambda": "honest",
            "drawnRed": 64,
            "reportedRed": 77,
            "inferredRed": 70,
            "playerTrialScore": -6,
            "oppTrialScore": 6,
            "playerTotalScore": -744,
            "oppTotalScore": 704,
            "waitTime": 5133.584329696621,
            "responseTime": 1678907286532,
            "catchQuestion": "How many <b class=\"r\">red<\/b> marbles did your opponent report drawing? ",
            "catchKey": -1,
            "catchResponse": -1,
            "catchTime": 1678907231857,
            "trialTime": 0
        },
        {
            "exptPart": "trial",
            "trialNumber": 46,
            "roleCurrent": "receiver",
            "marblesSampled": 100,
            "probRed": 0.5,
            "practiceLambda": 5,
            "trialLambda": 21.9,
            "instructedLambda": "honest",
            "drawnRed": 38,
            "reportedRed": 59,
            "inferredRed": 57,
            "playerTrialScore": -19,
            "oppTrialScore": 19,
            "playerTotalScore": -763,
            "oppTotalScore": 723,
            "waitTime": 6192.228910113385,
            "responseTime": 1678907310277,
            "catchQuestion": "How many <b class=\"r\">red<\/b> marbles did your opponent report drawing? ",
            "catchKey": -1,
            "catchResponse": -1,
            "catchTime": 1678907231857,
            "trialTime": 0
        },
        {
            "exptPart": "trial",
            "trialNumber": 47,
            "roleCurrent": "receiver",
            "marblesSampled": 100,
            "probRed": 0.5,
            "practiceLambda": 5,
            "trialLambda": 21.9,
            "instructedLambda": "honest",
            "drawnRed": 73,
            "reportedRed": 95,
            "inferredRed": 90,
            "playerTrialScore": -17,
            "oppTrialScore": 17,
            "playerTotalScore": -780,
            "oppTotalScore": 740,
            "waitTime": 5602.715873553381,
            "responseTime": 1678907320028,
            "catchQuestion": "How many <b class=\"r\">red<\/b> marbles did your opponent report drawing? ",
            "catchKey": -1,
            "catchResponse": -1,
            "catchTime": 1678907231857,
            "trialTime": 0
        },
        {
            "exptPart": "trial",
            "trialNumber": 48,
            "roleCurrent": "receiver",
            "marblesSampled": 100,
            "probRed": 0.5,
            "practiceLambda": 5,
            "trialLambda": 21.9,
            "instructedLambda": "honest",
            "drawnRed": 83,
            "reportedRed": 100,
            "inferredRed": 99,
            "playerTrialScore": -16,
            "oppTrialScore": 16,
            "playerTotalScore": -796,
            "oppTotalScore": 756,
            "waitTime": 6684.0869220214545,
            "responseTime": 1678907338743,
            "catchQuestion": "How many <b class=\"r\">red<\/b> marbles did your opponent report drawing? ",
            "catchKey": -1,
            "catchResponse": -1,
            "catchTime": 1678907231857,
            "trialTime": 0
        },
        {
            "exptPart": "trial",
            "trialNumber": 49,
            "roleCurrent": "receiver",
            "marblesSampled": 100,
            "probRed": 0.5,
            "practiceLambda": 5,
            "trialLambda": 21.9,
            "instructedLambda": "honest",
            "drawnRed": 61,
            "reportedRed": 86,
            "inferredRed": 80,
            "playerTrialScore": -19,
            "oppTrialScore": 19,
            "playerTotalScore": -815,
            "oppTotalScore": 775,
            "waitTime": 6543.495254663323,
            "responseTime": 1678907349958,
            "catchQuestion": "How many <b class=\"r\">red<\/b> marbles did your opponent report drawing? ",
            "catchKey": -1,
            "catchResponse": -1,
            "catchTime": 1678907231857,
            "trialTime": 0
        },
        {
            "exptPart": "trial",
            "trialNumber": 50,
            "roleCurrent": "receiver",
            "marblesSampled": 100,
            "probRed": 0.5,
            "practiceLambda": 5,
            "trialLambda": 21.9,
            "instructedLambda": "honest",
            "drawnRed": 70,
            "reportedRed": 98,
            "inferredRed": 96,
            "playerTrialScore": -26,
            "oppTrialScore": 26,
            "playerTotalScore": -841,
            "oppTotalScore": 801,
            "waitTime": 7186.385800993113,
            "responseTime": 1678907371632,
            "catchQuestion": "How many <b class=\"r\">red<\/b> marbles did your opponent report drawing? ",
            "catchKey": -1,
            "catchResponse": -1,
            "catchTime": 1678907371633,
            "trialTime": 0
        },
        {
            "exptPart": "trial",
            "trialNumber": 51,
            "roleCurrent": "receiver",
            "marblesSampled": 100,
            "probRed": 0.5,
            "practiceLambda": 5,
            "trialLambda": 21.9,
            "instructedLambda": "honest",
            "drawnRed": 81,
            "reportedRed": 100,
            "inferredRed": 100,
            "playerTrialScore": -19,
            "oppTrialScore": 19,
            "playerTotalScore": -860,
            "oppTotalScore": 820,
            "waitTime": 6422.005202198814,
            "responseTime": 1678907382533,
            "catchQuestion": "How many <b class=\"r\">red<\/b> marbles did your opponent report drawing? ",
            "catchKey": -1,
            "catchResponse": -1,
            "catchTime": 1678907371633,
            "trialTime": 0
        },
        {
            "exptPart": "trial",
            "trialNumber": 52,
            "roleCurrent": "receiver",
            "marblesSampled": 100,
            "probRed": 0.5,
            "practiceLambda": 5,
            "trialLambda": 21.9,
            "instructedLambda": "honest",
            "drawnRed": 57,
            "reportedRed": 78,
            "inferredRed": 78,
            "playerTrialScore": -21,
            "oppTrialScore": 21,
            "playerTotalScore": -881,
            "oppTotalScore": 841,
            "waitTime": 6643.878033528101,
            "responseTime": 1678907391701,
            "catchQuestion": "How many <b class=\"r\">red<\/b> marbles did your opponent report drawing? ",
            "catchKey": -1,
            "catchResponse": -1,
            "catchTime": 1678907371633,
            "trialTime": 0
        },
        {
            "exptPart": "trial",
            "trialNumber": 53,
            "roleCurrent": "receiver",
            "marblesSampled": 100,
            "probRed": 0.5,
            "practiceLambda": 5,
            "trialLambda": 21.9,
            "instructedLambda": "honest",
            "drawnRed": 77,
            "reportedRed": 99,
            "inferredRed": 99,
            "playerTrialScore": -22,
            "oppTrialScore": 22,
            "playerTotalScore": -903,
            "oppTotalScore": 863,
            "waitTime": 7302.014372692332,
            "responseTime": 1678907401500,
            "catchQuestion": "How many <b class=\"r\">red<\/b> marbles did your opponent report drawing? ",
            "catchKey": 99,
            "catchResponse": 99,
            "catchTime": 1678907401500,
            "trialTime": 0
        },
        {
            "exptPart": "trial",
            "trialNumber": 54,
            "roleCurrent": "receiver",
            "marblesSampled": 100,
            "probRed": 0.5,
            "practiceLambda": 5,
            "trialLambda": 21.9,
            "instructedLambda": "honest",
            "drawnRed": 53,
            "reportedRed": 80,
            "inferredRed": 76,
            "playerTrialScore": -23,
            "oppTrialScore": 23,
            "playerTotalScore": -926,
            "oppTotalScore": 886,
            "waitTime": 5673.776980037402,
            "responseTime": 1678907415003,
            "catchQuestion": "How many <b class=\"r\">red<\/b> marbles did your opponent report drawing? ",
            "catchKey": -1,
            "catchResponse": -1,
            "catchTime": 1678907401500,
            "trialTime": 0
        },
        {
            "exptPart": "trial",
            "trialNumber": 55,
            "roleCurrent": "receiver",
            "marblesSampled": 100,
            "probRed": 0.5,
            "practiceLambda": 5,
            "trialLambda": 21.9,
            "instructedLambda": "honest",
            "drawnRed": 41,
            "reportedRed": 58,
            "inferredRed": 58,
            "playerTrialScore": -17,
            "oppTrialScore": 17,
            "playerTotalScore": -943,
            "oppTotalScore": 903,
            "waitTime": 5134.238467987705,
            "responseTime": 1678907422941,
            "catchQuestion": "How many <b class=\"r\">red<\/b> marbles did your opponent report drawing? ",
            "catchKey": -1,
            "catchResponse": -1,
            "catchTime": 1678907401500,
            "trialTime": 0
        },
        {
            "exptPart": "trial",
            "trialNumber": 56,
            "roleCurrent": "receiver",
            "marblesSampled": 100,
            "probRed": 0.5,
            "practiceLambda": 5,
            "trialLambda": 21.9,
            "instructedLambda": "honest",
            "drawnRed": 69,
            "reportedRed": 96,
            "inferredRed": 96,
            "playerTrialScore": -27,
            "oppTrialScore": 27,
            "playerTotalScore": -970,
            "oppTotalScore": 930,
            "waitTime": 5858.255469245955,
            "responseTime": 1678907432984,
            "catchQuestion": "How many <b class=\"r\">red<\/b> marbles did your opponent report drawing? ",
            "catchKey": -1,
            "catchResponse": -1,
            "catchTime": 1678907401500,
            "trialTime": 0
        },
        {
            "exptPart": "trial",
            "trialNumber": 57,
            "roleCurrent": "receiver",
            "marblesSampled": 100,
            "probRed": 0.5,
            "practiceLambda": 5,
            "trialLambda": 21.9,
            "instructedLambda": "honest",
            "drawnRed": 36,
            "reportedRed": 66,
            "inferredRed": 66,
            "playerTrialScore": -30,
            "oppTrialScore": 30,
            "playerTotalScore": -1000,
            "oppTotalScore": 960,
            "waitTime": 6367.826828249365,
            "responseTime": 1678907442546,
            "catchQuestion": "How many <b class=\"r\">red<\/b> marbles did your opponent report drawing? ",
            "catchKey": -1,
            "catchResponse": -1,
            "catchTime": 1678907401500,
            "trialTime": 0
        },
        {
            "exptPart": "trial",
            "trialNumber": 58,
            "roleCurrent": "receiver",
            "marblesSampled": 100,
            "probRed": 0.5,
            "practiceLambda": 5,
            "trialLambda": 21.9,
            "instructedLambda": "honest",
            "drawnRed": 18,
            "reportedRed": 34,
            "inferredRed": 30,
            "playerTrialScore": -12,
            "oppTrialScore": 12,
            "playerTotalScore": -1012,
            "oppTotalScore": 972,
            "waitTime": 5543.434985324603,
            "responseTime": 1678907450775,
            "catchQuestion": "How many <b class=\"r\">red<\/b> marbles did your opponent report drawing? ",
            "catchKey": -1,
            "catchResponse": -1,
            "catchTime": 1678907401500,
            "trialTime": 0
        },
        {
            "exptPart": "trial",
            "trialNumber": 59,
            "roleCurrent": "receiver",
            "marblesSampled": 100,
            "probRed": 0.5,
            "practiceLambda": 5,
            "trialLambda": 21.9,
            "instructedLambda": "honest",
            "drawnRed": 22,
            "reportedRed": 54,
            "inferredRed": 50,
            "playerTrialScore": -28,
            "oppTrialScore": 28,
            "playerTotalScore": -1040,
            "oppTotalScore": 1000,
            "waitTime": 5515.230872045384,
            "responseTime": 1678907459109,
            "catchQuestion": "How many <b class=\"r\">red<\/b> marbles did your opponent report drawing? ",
            "catchKey": -1,
            "catchResponse": -1,
            "catchTime": 1678907401500,
            "trialTime": 0
        },
        {
            "exptPart": "trial",
            "trialNumber": 60,
            "roleCurrent": "receiver",
            "marblesSampled": 100,
            "probRed": 0.5,
            "practiceLambda": 5,
            "trialLambda": 21.9,
            "instructedLambda": "honest",
            "drawnRed": 57,
            "reportedRed": 79,
            "inferredRed": 76,
            "playerTrialScore": -19,
            "oppTrialScore": 19,
            "playerTotalScore": -1059,
            "oppTotalScore": 1019,
            "waitTime": 7101.095043875831,
            "responseTime": 1678907470696,
            "catchQuestion": "How many <b class=\"r\">red<\/b> marbles did your opponent report drawing? ",
            "catchKey": -1,
            "catchResponse": -1,
            "catchTime": 1678907470696,
            "trialTime": 0
        },
        {
            "exptPart": "trial",
            "trialNumber": 61,
            "roleCurrent": "receiver",
            "marblesSampled": 100,
            "probRed": 0.5,
            "practiceLambda": 5,
            "trialLambda": 21.9,
            "instructedLambda": "honest",
            "drawnRed": 45,
            "reportedRed": 79,
            "inferredRed": 76,
            "playerTrialScore": -31,
            "oppTrialScore": 31,
            "playerTotalScore": -1090,
            "oppTotalScore": 1050,
            "waitTime": 5779.865101277248,
            "responseTime": 1678907481197,
            "catchQuestion": "How many <b class=\"r\">red<\/b> marbles did your opponent report drawing? ",
            "catchKey": -1,
            "catchResponse": -1,
            "catchTime": 1678907470696,
            "trialTime": 0
        },
        {
            "exptPart": "trial",
            "trialNumber": 62,
            "roleCurrent": "receiver",
            "marblesSampled": 100,
            "probRed": 0.5,
            "practiceLambda": 5,
            "trialLambda": 21.9,
            "instructedLambda": "honest",
            "drawnRed": 35,
            "reportedRed": 49,
            "inferredRed": 45,
            "playerTrialScore": -10,
            "oppTrialScore": 10,
            "playerTotalScore": -1100,
            "oppTotalScore": 1060,
            "waitTime": 6464.7347048024385,
            "responseTime": 1678907490183,
            "catchQuestion": "How many <b class=\"r\">red<\/b> marbles did your opponent report drawing? ",
            "catchKey": -1,
            "catchResponse": -1,
            "catchTime": 1678907470696,
            "trialTime": 0
        },
        {
            "exptPart": "trial",
            "trialNumber": 63,
            "roleCurrent": "receiver",
            "marblesSampled": 100,
            "probRed": 0.5,
            "practiceLambda": 5,
            "trialLambda": 21.9,
            "instructedLambda": "honest",
            "drawnRed": 22,
            "reportedRed": 39,
            "inferredRed": 37,
            "playerTrialScore": -15,
            "oppTrialScore": 15,
            "playerTotalScore": -1115,
            "oppTotalScore": 1075,
            "waitTime": 6714.33733602682,
            "responseTime": 1678907499825,
            "catchQuestion": "How many <b class=\"r\">red<\/b> marbles did your opponent report drawing? ",
            "catchKey": -1,
            "catchResponse": -1,
            "catchTime": 1678907470696,
            "trialTime": 0
        },
        {
            "exptPart": "trial",
            "trialNumber": 64,
            "roleCurrent": "receiver",
            "marblesSampled": 100,
            "probRed": 0.5,
            "practiceLambda": 5,
            "trialLambda": 21.9,
            "instructedLambda": "honest",
            "drawnRed": 40,
            "reportedRed": 72,
            "inferredRed": 68,
            "playerTrialScore": -28,
            "oppTrialScore": 28,
            "playerTotalScore": -1143,
            "oppTotalScore": 1103,
            "waitTime": 6348.98987751841,
            "responseTime": 1678907509598,
            "catchQuestion": "How many <b class=\"r\">red<\/b> marbles did your opponent report drawing? ",
            "catchKey": 72,
            "catchResponse": 72,
            "catchTime": 1678907509598,
            "trialTime": 0
        },
        {
            "exptPart": "trial",
            "trialNumber": 65,
            "roleCurrent": "receiver",
            "marblesSampled": 100,
            "probRed": 0.5,
            "practiceLambda": 5,
            "trialLambda": 21.9,
            "instructedLambda": "honest",
            "drawnRed": 76,
            "reportedRed": 99,
            "inferredRed": 99,
            "playerTrialScore": -23,
            "oppTrialScore": 23,
            "playerTotalScore": -1166,
            "oppTotalScore": 1126,
            "waitTime": 6021.598107474821,
            "responseTime": 1678907522201,
            "catchQuestion": "How many <b class=\"r\">red<\/b> marbles did your opponent report drawing? ",
            "catchKey": -1,
            "catchResponse": -1,
            "catchTime": 1678907509598,
            "trialTime": 0
        },
        {
            "exptPart": "trial",
            "trialNumber": 66,
            "roleCurrent": "receiver",
            "marblesSampled": 100,
            "probRed": 0.5,
            "practiceLambda": 5,
            "trialLambda": 21.9,
            "instructedLambda": "honest",
            "drawnRed": 18,
            "reportedRed": 39,
            "inferredRed": 39,
            "playerTrialScore": -21,
            "oppTrialScore": 21,
            "playerTotalScore": -1187,
            "oppTotalScore": 1147,
            "waitTime": 5447.045628940174,
            "responseTime": 1678907530468,
            "catchQuestion": "How many <b class=\"r\">red<\/b> marbles did your opponent report drawing? ",
            "catchKey": 39,
            "catchResponse": 39,
            "catchTime": 1678907530468,
            "trialTime": 0
        },
        {
            "exptPart": "trial",
            "trialNumber": 67,
            "roleCurrent": "receiver",
            "marblesSampled": 100,
            "probRed": 0.5,
            "practiceLambda": 5,
            "trialLambda": 21.9,
            "instructedLambda": "honest",
            "drawnRed": 31,
            "reportedRed": 46,
            "inferredRed": 46,
            "playerTrialScore": -15,
            "oppTrialScore": 15,
            "playerTotalScore": -1202,
            "oppTotalScore": 1162,
            "waitTime": 6073.035744207107,
            "responseTime": 1678907545825,
            "catchQuestion": "How many <b class=\"r\">red<\/b> marbles did your opponent report drawing? ",
            "catchKey": -1,
            "catchResponse": -1,
            "catchTime": 1678907530468,
            "trialTime": 0
        },
        {
            "exptPart": "trial",
            "trialNumber": 68,
            "roleCurrent": "receiver",
            "marblesSampled": 100,
            "probRed": 0.5,
            "practiceLambda": 5,
            "trialLambda": 21.9,
            "instructedLambda": "honest",
            "drawnRed": 36,
            "reportedRed": 51,
            "inferredRed": 51,
            "playerTrialScore": -15,
            "oppTrialScore": 15,
            "playerTotalScore": -1217,
            "oppTotalScore": 1177,
            "waitTime": 5277.972567599745,
            "responseTime": 1678907554325,
            "catchQuestion": "How many <b class=\"r\">red<\/b> marbles did your opponent report drawing? ",
            "catchKey": -1,
            "catchResponse": -1,
            "catchTime": 1678907530468,
            "trialTime": 0
        },
        {
            "exptPart": "trial",
            "trialNumber": 69,
            "roleCurrent": "receiver",
            "marblesSampled": 100,
            "probRed": 0.5,
            "practiceLambda": 5,
            "trialLambda": 21.9,
            "instructedLambda": "honest",
            "drawnRed": 31,
            "reportedRed": 57,
            "inferredRed": 57,
            "playerTrialScore": -26,
            "oppTrialScore": 26,
            "playerTotalScore": -1243,
            "oppTotalScore": 1203,
            "waitTime": 7055.963719635639,
            "responseTime": 1678907567852,
            "catchQuestion": "How many <b class=\"r\">red<\/b> marbles did your opponent report drawing? ",
            "catchKey": -1,
            "catchResponse": -1,
            "catchTime": 1678907530468,
            "trialTime": 0
        },
        {
            "exptPart": "trial",
            "trialNumber": 70,
            "roleCurrent": "receiver",
            "marblesSampled": 100,
            "probRed": 0.5,
            "practiceLambda": 5,
            "trialLambda": 21.9,
            "instructedLambda": "honest",
            "drawnRed": 26,
            "reportedRed": 50,
            "inferredRed": 50,
            "playerTrialScore": -24,
            "oppTrialScore": 24,
            "playerTotalScore": -1267,
            "oppTotalScore": 1227,
            "waitTime": 5188.476159017522,
            "responseTime": 1678907576749,
            "catchQuestion": "How many <b class=\"r\">red<\/b> marbles did your opponent report drawing? ",
            "catchKey": -1,
            "catchResponse": -1,
            "catchTime": 1678907576749,
            "trialTime": 0
        },
        {
            "exptPart": "trial",
            "trialNumber": 71,
            "roleCurrent": "receiver",
            "marblesSampled": 100,
            "probRed": 0.5,
            "practiceLambda": 5,
            "trialLambda": 21.9,
            "instructedLambda": "honest",
            "drawnRed": 39,
            "reportedRed": 58,
            "inferredRed": 50,
            "playerTrialScore": -11,
            "oppTrialScore": 11,
            "playerTotalScore": -1278,
            "oppTotalScore": 1238,
            "waitTime": 6573.892838318599,
            "responseTime": 1678907587958,
            "catchQuestion": "How many <b class=\"r\">red<\/b> marbles did your opponent report drawing? ",
            "catchKey": -1,
            "catchResponse": -1,
            "catchTime": 1678907576749,
            "trialTime": 0
        },
        {
            "exptPart": "trial",
            "trialNumber": 72,
            "roleCurrent": "receiver",
            "marblesSampled": 100,
            "probRed": 0.5,
            "practiceLambda": 5,
            "trialLambda": 21.9,
            "instructedLambda": "honest",
            "drawnRed": 86,
            "reportedRed": 100,
            "inferredRed": 99,
            "playerTrialScore": -13,
            "oppTrialScore": 13,
            "playerTotalScore": -1291,
            "oppTotalScore": 1251,
            "waitTime": 5161.552002048372,
            "responseTime": 1678907597899,
            "catchQuestion": "How many <b class=\"r\">red<\/b> marbles did your opponent report drawing? ",
            "catchKey": -1,
            "catchResponse": -1,
            "catchTime": 1678907576749,
            "trialTime": 0
        },
        {
            "exptPart": "trial",
            "trialNumber": 73,
            "roleCurrent": "receiver",
            "marblesSampled": 100,
            "probRed": 0.5,
            "practiceLambda": 5,
            "trialLambda": 21.9,
            "instructedLambda": "honest",
            "drawnRed": 70,
            "reportedRed": 89,
            "inferredRed": 90,
            "playerTrialScore": -20,
            "oppTrialScore": 20,
            "playerTotalScore": -1311,
            "oppTotalScore": 1271,
            "waitTime": 6534.017484760563,
            "responseTime": 1678907607170,
            "catchQuestion": "How many <b class=\"r\">red<\/b> marbles did your opponent report drawing? ",
            "catchKey": -1,
            "catchResponse": -1,
            "catchTime": 1678907576749,
            "trialTime": 0
        },
        {
            "exptPart": "trial",
            "trialNumber": 74,
            "roleCurrent": "receiver",
            "marblesSampled": 100,
            "probRed": 0.5,
            "practiceLambda": 5,
            "trialLambda": 21.9,
            "instructedLambda": "honest",
            "drawnRed": 62,
            "reportedRed": 90,
            "inferredRed": 90,
            "playerTrialScore": -28,
            "oppTrialScore": 28,
            "playerTotalScore": -1339,
            "oppTotalScore": 1299,
            "waitTime": 6235.954806581239,
            "responseTime": 1678907616108,
            "catchQuestion": "How many <b class=\"r\">red<\/b> marbles did your opponent report drawing? ",
            "catchKey": -1,
            "catchResponse": -1,
            "catchTime": 1678907576749,
            "trialTime": 0
        },
        {
            "exptPart": "trial",
            "trialNumber": 75,
            "roleCurrent": "receiver",
            "marblesSampled": 100,
            "probRed": 0.5,
            "practiceLambda": 5,
            "trialLambda": 21.9,
            "instructedLambda": "honest",
            "drawnRed": 37,
            "reportedRed": 60,
            "inferredRed": 60,
            "playerTrialScore": -23,
            "oppTrialScore": 23,
            "playerTotalScore": -1362,
            "oppTotalScore": 1322,
            "waitTime": 5658.177258290547,
            "responseTime": 1678907624127,
            "catchQuestion": "How many <b class=\"r\">red<\/b> marbles did your opponent report drawing? ",
            "catchKey": -1,
            "catchResponse": -1,
            "catchTime": 1678907576749,
            "trialTime": 0
        },
        {
            "exptPart": "trial",
            "trialNumber": 76,
            "roleCurrent": "receiver",
            "marblesSampled": 100,
            "probRed": 0.5,
            "practiceLambda": 5,
            "trialLambda": 21.9,
            "instructedLambda": "honest",
            "drawnRed": 66,
            "reportedRed": 90,
            "inferredRed": 90,
            "playerTrialScore": -24,
            "oppTrialScore": 24,
            "playerTotalScore": -1386,
            "oppTotalScore": 1346,
            "waitTime": 5373.576794323926,
            "responseTime": 1678907632024,
            "catchQuestion": "How many <b class=\"r\">red<\/b> marbles did your opponent report drawing? ",
            "catchKey": -1,
            "catchResponse": -1,
            "catchTime": 1678907576749,
            "trialTime": 0
        },
        {
            "exptPart": "trial",
            "trialNumber": 77,
            "roleCurrent": "receiver",
            "marblesSampled": 100,
            "probRed": 0.5,
            "practiceLambda": 5,
            "trialLambda": 21.9,
            "instructedLambda": "honest",
            "drawnRed": 19,
            "reportedRed": 38,
            "inferredRed": 40,
            "playerTrialScore": -21,
            "oppTrialScore": 21,
            "playerTotalScore": -1407,
            "oppTotalScore": 1367,
            "waitTime": 5604.179876072156,
            "responseTime": 1678907642215,
            "catchQuestion": "How many <b class=\"r\">red<\/b> marbles did your opponent report drawing? ",
            "catchKey": -1,
            "catchResponse": -1,
            "catchTime": 1678907576749,
            "trialTime": 0
        },
        {
            "exptPart": "trial",
            "trialNumber": 78,
            "roleCurrent": "receiver",
            "marblesSampled": 100,
            "probRed": 0.5,
            "practiceLambda": 5,
            "trialLambda": 21.9,
            "instructedLambda": "honest",
            "drawnRed": 31,
            "reportedRed": 49,
            "inferredRed": 50,
            "playerTrialScore": -19,
            "oppTrialScore": 19,
            "playerTotalScore": -1426,
            "oppTotalScore": 1386,
            "waitTime": 5287.325752375061,
            "responseTime": 1678907652155,
            "catchQuestion": "How many <b class=\"r\">red<\/b> marbles did your opponent report drawing? ",
            "catchKey": -1,
            "catchResponse": -1,
            "catchTime": 1678907576749,
            "trialTime": 0
        },
        {
            "exptPart": "trial",
            "trialNumber": 79,
            "roleCurrent": "receiver",
            "marblesSampled": 100,
            "probRed": 0.5,
            "practiceLambda": 5,
            "trialLambda": 21.9,
            "instructedLambda": "honest",
            "drawnRed": 69,
            "reportedRed": 90,
            "inferredRed": 90,
            "playerTrialScore": -21,
            "oppTrialScore": 21,
            "playerTotalScore": -1447,
            "oppTotalScore": 1407,
            "waitTime": 7036.893472615366,
            "responseTime": 1678907663552,
            "catchQuestion": "How many <b class=\"r\">red<\/b> marbles did your opponent report drawing? ",
            "catchKey": -1,
            "catchResponse": -1,
            "catchTime": 1678907576749,
            "trialTime": 0
        },
        {
            "exptPart": "trial",
            "trialNumber": 80,
            "roleCurrent": "receiver",
            "marblesSampled": 100,
            "probRed": 0.5,
            "practiceLambda": 5,
            "trialLambda": 21.9,
            "instructedLambda": "honest",
            "drawnRed": 62,
            "reportedRed": 83,
            "inferredRed": 80,
            "playerTrialScore": -18,
            "oppTrialScore": 18,
            "playerTotalScore": -1465,
            "oppTotalScore": 1425,
            "waitTime": 6500.062459575497,
            "responseTime": 1678907673347,
            "catchQuestion": "How many <b class=\"r\">red<\/b> marbles did your opponent report drawing? ",
            "catchKey": -1,
            "catchResponse": -1,
            "catchTime": 1678907673347,
            "trialTime": 0
        },
        {
            "exptPart": "trial",
            "trialNumber": 81,
            "roleCurrent": "receiver",
            "marblesSampled": 100,
            "probRed": 0.5,
            "practiceLambda": 5,
            "trialLambda": 21.9,
            "instructedLambda": "honest",
            "drawnRed": 36,
            "reportedRed": 65,
            "inferredRed": 60,
            "playerTrialScore": -24,
            "oppTrialScore": 24,
            "playerTotalScore": -1489,
            "oppTotalScore": 1449,
            "waitTime": 5501.3272094337635,
            "responseTime": 1678907683621,
            "catchQuestion": "How many <b class=\"r\">red<\/b> marbles did your opponent report drawing? ",
            "catchKey": 65,
            "catchResponse": 65,
            "catchTime": 1678907683621,
            "trialTime": 0
        },
        {
            "exptPart": "trial",
            "trialNumber": 82,
            "roleCurrent": "receiver",
            "marblesSampled": 100,
            "probRed": 0.5,
            "practiceLambda": 5,
            "trialLambda": 21.9,
            "instructedLambda": "honest",
            "drawnRed": 30,
            "reportedRed": 55,
            "inferredRed": 50,
            "playerTrialScore": -20,
            "oppTrialScore": 20,
            "playerTotalScore": -1509,
            "oppTotalScore": 1469,
            "waitTime": 6406.277911902675,
            "responseTime": 1678907697078,
            "catchQuestion": "How many <b class=\"r\">red<\/b> marbles did your opponent report drawing? ",
            "catchKey": -1,
            "catchResponse": -1,
            "catchTime": 1678907683621,
            "trialTime": 0
        },
        {
            "exptPart": "trial",
            "trialNumber": 83,
            "roleCurrent": "receiver",
            "marblesSampled": 100,
            "probRed": 0.5,
            "practiceLambda": 5,
            "trialLambda": 21.9,
            "instructedLambda": "honest",
            "drawnRed": 75,
            "reportedRed": 100,
            "inferredRed": 100,
            "playerTrialScore": -25,
            "oppTrialScore": 25,
            "playerTotalScore": -1534,
            "oppTotalScore": 1494,
            "waitTime": 5696.891287312982,
            "responseTime": 1678907706599,
            "catchQuestion": "How many <b class=\"r\">red<\/b> marbles did your opponent report drawing? ",
            "catchKey": -1,
            "catchResponse": -1,
            "catchTime": 1678907683621,
            "trialTime": 0
        },
        {
            "exptPart": "trial",
            "trialNumber": 84,
            "roleCurrent": "receiver",
            "marblesSampled": 100,
            "probRed": 0.5,
            "practiceLambda": 5,
            "trialLambda": 21.9,
            "instructedLambda": "honest",
            "drawnRed": 73,
            "reportedRed": 98,
            "inferredRed": 100,
            "playerTrialScore": -27,
            "oppTrialScore": 27,
            "playerTotalScore": -1561,
            "oppTotalScore": 1521,
            "waitTime": 5432.894165397687,
            "responseTime": 1678907716205,
            "catchQuestion": "How many <b class=\"r\">red<\/b> marbles did your opponent report drawing? ",
            "catchKey": -1,
            "catchResponse": -1,
            "catchTime": 1678907683621,
            "trialTime": 0
        },
        {
            "exptPart": "trial",
            "trialNumber": 85,
            "roleCurrent": "receiver",
            "marblesSampled": 100,
            "probRed": 0.5,
            "practiceLambda": 5,
            "trialLambda": 21.9,
            "instructedLambda": "honest",
            "drawnRed": 48,
            "reportedRed": 68,
            "inferredRed": 70,
            "playerTrialScore": -22,
            "oppTrialScore": 22,
            "playerTotalScore": -1583,
            "oppTotalScore": 1543,
            "waitTime": 5755.617847377453,
            "responseTime": 1678907725019,
            "catchQuestion": "How many <b class=\"r\">red<\/b> marbles did your opponent report drawing? ",
            "catchKey": -1,
            "catchResponse": -1,
            "catchTime": 1678907683621,
            "trialTime": 0
        },
        {
            "exptPart": "trial",
            "trialNumber": 86,
            "roleCurrent": "receiver",
            "marblesSampled": 100,
            "probRed": 0.5,
            "practiceLambda": 5,
            "trialLambda": 21.9,
            "instructedLambda": "honest",
            "drawnRed": 54,
            "reportedRed": 76,
            "inferredRed": 70,
            "playerTrialScore": -16,
            "oppTrialScore": 16,
            "playerTotalScore": -1599,
            "oppTotalScore": 1559,
            "waitTime": 7260.94000039105,
            "responseTime": 1678907736879,
            "catchQuestion": "How many <b class=\"r\">red<\/b> marbles did your opponent report drawing? ",
            "catchKey": -1,
            "catchResponse": -1,
            "catchTime": 1678907683621,
            "trialTime": 0
        },
        {
            "exptPart": "trial",
            "trialNumber": 87,
            "roleCurrent": "receiver",
            "marblesSampled": 100,
            "probRed": 0.5,
            "practiceLambda": 5,
            "trialLambda": 21.9,
            "instructedLambda": "honest",
            "drawnRed": 51,
            "reportedRed": 69,
            "inferredRed": 70,
            "playerTrialScore": -19,
            "oppTrialScore": 19,
            "playerTotalScore": -1618,
            "oppTotalScore": 1578,
            "waitTime": 6512.654733068148,
            "responseTime": 1678907748125,
            "catchQuestion": "How many <b class=\"r\">red<\/b> marbles did your opponent report drawing? ",
            "catchKey": -1,
            "catchResponse": -1,
            "catchTime": 1678907683621,
            "trialTime": 0
        },
        {
            "exptPart": "trial",
            "trialNumber": 88,
            "roleCurrent": "receiver",
            "marblesSampled": 100,
            "probRed": 0.5,
            "practiceLambda": 5,
            "trialLambda": 21.9,
            "instructedLambda": "honest",
            "drawnRed": 51,
            "reportedRed": 72,
            "inferredRed": 74,
            "playerTrialScore": -23,
            "oppTrialScore": 23,
            "playerTotalScore": -1641,
            "oppTotalScore": 1601,
            "waitTime": 5971.572740957113,
            "responseTime": 1678907757918,
            "catchQuestion": "How many <b class=\"r\">red<\/b> marbles did your opponent report drawing? ",
            "catchKey": -1,
            "catchResponse": -1,
            "catchTime": 1678907683621,
            "trialTime": 0
        },
        {
            "exptPart": "trial",
            "trialNumber": 89,
            "roleCurrent": "receiver",
            "marblesSampled": 100,
            "probRed": 0.5,
            "practiceLambda": 5,
            "trialLambda": 21.9,
            "instructedLambda": "honest",
            "drawnRed": 46,
            "reportedRed": 66,
            "inferredRed": 60,
            "playerTrialScore": -14,
            "oppTrialScore": 14,
            "playerTotalScore": -1655,
            "oppTotalScore": 1615,
            "waitTime": 7016.883852170588,
            "responseTime": 1678907771405,
            "catchQuestion": "How many <b class=\"r\">red<\/b> marbles did your opponent report drawing? ",
            "catchKey": 66,
            "catchResponse": 66,
            "catchTime": 1678907771405,
            "trialTime": 0
        },
        {
            "exptPart": "trial",
            "trialNumber": 90,
            "roleCurrent": "receiver",
            "marblesSampled": 100,
            "probRed": 0.5,
            "practiceLambda": 5,
            "trialLambda": 21.9,
            "instructedLambda": "honest",
            "drawnRed": 52,
            "reportedRed": 73,
            "inferredRed": 70,
            "playerTrialScore": -18,
            "oppTrialScore": 18,
            "playerTotalScore": -1673,
            "oppTotalScore": 1633,
            "waitTime": 6217.514333600906,
            "responseTime": 1678907816268,
            "catchQuestion": "How many <b class=\"r\">red<\/b> marbles did your opponent report drawing? ",
            "catchKey": -1,
            "catchResponse": -1,
            "catchTime": 1678907816268,
            "trialTime": 0
        },
        {
            "exptPart": "trial",
            "trialNumber": 91,
            "roleCurrent": "receiver",
            "marblesSampled": 100,
            "probRed": 0.5,
            "practiceLambda": 5,
            "trialLambda": 21.9,
            "instructedLambda": "honest",
            "drawnRed": 35,
            "reportedRed": 53,
            "inferredRed": 50,
            "playerTrialScore": -15,
            "oppTrialScore": 15,
            "playerTotalScore": -1688,
            "oppTotalScore": 1648,
            "waitTime": 6861.233254973524,
            "responseTime": 1678907828606,
            "catchQuestion": "How many <b class=\"r\">red<\/b> marbles did your opponent report drawing? ",
            "catchKey": -1,
            "catchResponse": -1,
            "catchTime": 1678907816268,
            "trialTime": 0
        },
        {
            "exptPart": "trial",
            "trialNumber": 92,
            "roleCurrent": "receiver",
            "marblesSampled": 100,
            "probRed": 0.5,
            "practiceLambda": 5,
            "trialLambda": 21.9,
            "instructedLambda": "honest",
            "drawnRed": 65,
            "reportedRed": 90,
            "inferredRed": 87,
            "playerTrialScore": -22,
            "oppTrialScore": 22,
            "playerTotalScore": -1710,
            "oppTotalScore": 1670,
            "waitTime": 5253.171777191854,
            "responseTime": 1678907838127,
            "catchQuestion": "How many <b class=\"r\">red<\/b> marbles did your opponent report drawing? ",
            "catchKey": -1,
            "catchResponse": -1,
            "catchTime": 1678907816268,
            "trialTime": 0
        },
        {
            "exptPart": "trial",
            "trialNumber": 93,
            "roleCurrent": "receiver",
            "marblesSampled": 100,
            "probRed": 0.5,
            "practiceLambda": 5,
            "trialLambda": 21.9,
            "instructedLambda": "honest",
            "drawnRed": 65,
            "reportedRed": 90,
            "inferredRed": 87,
            "playerTrialScore": -22,
            "oppTrialScore": 22,
            "playerTotalScore": -1732,
            "oppTotalScore": 1692,
            "waitTime": 5397.0547616095755,
            "responseTime": 1678907846272,
            "catchQuestion": "How many <b class=\"r\">red<\/b> marbles did your opponent report drawing? ",
            "catchKey": -1,
            "catchResponse": -1,
            "catchTime": 1678907816268,
            "trialTime": 0
        },
        {
            "exptPart": "trial",
            "trialNumber": 94,
            "roleCurrent": "receiver",
            "marblesSampled": 100,
            "probRed": 0.5,
            "practiceLambda": 5,
            "trialLambda": 21.9,
            "instructedLambda": "honest",
            "drawnRed": 58,
            "reportedRed": 78,
            "inferredRed": 78,
            "playerTrialScore": -20,
            "oppTrialScore": 20,
            "playerTotalScore": -1752,
            "oppTotalScore": 1712,
            "waitTime": 7384.579090779506,
            "responseTime": 1678907858476,
            "catchQuestion": "How many <b class=\"r\">red<\/b> marbles did your opponent report drawing? ",
            "catchKey": 78,
            "catchResponse": 78,
            "catchTime": 1678907858476,
            "trialTime": 0
        },
        {
            "exptPart": "trial",
            "trialNumber": 95,
            "roleCurrent": "receiver",
            "marblesSampled": 100,
            "probRed": 0.5,
            "practiceLambda": 5,
            "trialLambda": 21.9,
            "instructedLambda": "honest",
            "drawnRed": 81,
            "reportedRed": 100,
            "inferredRed": 100,
            "playerTrialScore": -19,
            "oppTrialScore": 19,
            "playerTotalScore": -1771,
            "oppTotalScore": 1731,
            "waitTime": 6184.497102889061,
            "responseTime": 1678907882758,
            "catchQuestion": "How many <b class=\"r\">red<\/b> marbles did your opponent report drawing? ",
            "catchKey": -1,
            "catchResponse": -1,
            "catchTime": 1678907858476,
            "trialTime": 0
        },
        {
            "exptPart": "trial",
            "trialNumber": 96,
            "roleCurrent": "receiver",
            "marblesSampled": 100,
            "probRed": 0.5,
            "practiceLambda": 5,
            "trialLambda": 21.9,
            "instructedLambda": "honest",
            "drawnRed": 79,
            "reportedRed": 100,
            "inferredRed": 100,
            "playerTrialScore": -21,
            "oppTrialScore": 21,
            "playerTotalScore": -1792,
            "oppTotalScore": 1752,
            "waitTime": 5973.550836971928,
            "responseTime": 1678907893637,
            "catchQuestion": "How many <b class=\"r\">red<\/b> marbles did your opponent report drawing? ",
            "catchKey": -1,
            "catchResponse": -1,
            "catchTime": 1678907858476,
            "trialTime": 0
        },
        {
            "exptPart": "trial",
            "trialNumber": 97,
            "roleCurrent": "receiver",
            "marblesSampled": 100,
            "probRed": 0.5,
            "practiceLambda": 5,
            "trialLambda": 21.9,
            "instructedLambda": "honest",
            "drawnRed": 66,
            "reportedRed": 85,
            "inferredRed": 80,
            "playerTrialScore": -14,
            "oppTrialScore": 14,
            "playerTotalScore": -1806,
            "oppTotalScore": 1766,
            "waitTime": 6372.095549497801,
            "responseTime": 1678907905641,
            "catchQuestion": "How many <b class=\"r\">red<\/b> marbles did your opponent report drawing? ",
            "catchKey": -1,
            "catchResponse": -1,
            "catchTime": 1678907858476,
            "trialTime": 0
        },
        {
            "exptPart": "trial",
            "trialNumber": 98,
            "roleCurrent": "receiver",
            "marblesSampled": 100,
            "probRed": 0.5,
            "practiceLambda": 5,
            "trialLambda": 21.9,
            "instructedLambda": "honest",
            "drawnRed": 40,
            "reportedRed": 59,
            "inferredRed": 55,
            "playerTrialScore": -15,
            "oppTrialScore": 15,
            "playerTotalScore": -1821,
            "oppTotalScore": 1781,
            "waitTime": 5508.613804456104,
            "responseTime": 1678907919063,
            "catchQuestion": "How many <b class=\"r\">red<\/b> marbles did your opponent report drawing? ",
            "catchKey": -1,
            "catchResponse": -1,
            "catchTime": 1678907858476,
            "trialTime": 0
        },
        {
            "exptPart": "trial",
            "trialNumber": 99,
            "roleCurrent": "receiver",
            "marblesSampled": 100,
            "probRed": 0.5,
            "practiceLambda": 5,
            "trialLambda": 21.9,
            "instructedLambda": "honest",
            "drawnRed": 34,
            "reportedRed": 62,
            "inferredRed": 57,
            "playerTrialScore": -23,
            "oppTrialScore": 23,
            "playerTotalScore": -1844,
            "oppTotalScore": 1804,
            "waitTime": 5872.960203432638,
            "responseTime": 1678907930073,
            "catchQuestion": "How many <b class=\"r\">red<\/b> marbles did your opponent report drawing? ",
            "catchKey": -1,
            "catchResponse": -1,
            "catchTime": 1678907858476,
            "trialTime": 0
        },
        {
            "exptPart": "trial",
            "trialNumber": 100,
            "roleCurrent": "receiver",
            "marblesSampled": 100,
            "probRed": 0.5,
            "practiceLambda": 5,
            "trialLambda": 21.9,
            "instructedLambda": "honest",
            "drawnRed": 61,
            "reportedRed": 88,
            "inferredRed": 85,
            "playerTrialScore": -24,
            "oppTrialScore": 24,
            "playerTotalScore": -1868,
            "oppTotalScore": 1828,
            "waitTime": 7134.23254923679,
            "responseTime": 1678907941097,
            "catchQuestion": "How many <b class=\"r\">red<\/b> marbles did your opponent report drawing? ",
            "catchKey": -1,
            "catchResponse": -1,
            "catchTime": 1678907941097,
            "trialTime": 0
        }
    ]
}