{
    "client": {
        "type": "sona",
        "experiment_id": 2228,
        "credit_token": "b315147ae43241ea9c65086cb510cfb7",
        "survey_code": "44270",
        "sid": "sona-44270",
        "window": {
            "width": 980,
            "height": 703
        },
        "screen": {
            "width": 1024,
            "height": 1366
        },
        "userAgent": "Mozilla\/5.0 (iPad; CPU OS 16_3 like Mac OS X) AppleWebKit\/605.1.15 (KHTML, like Gecko) CriOS\/111.0.5563.101 Mobile\/15E148 Safari\/604.1",
        "score": 0,
        "bonus": 0
    },
    "expt": {
        "saveURL": "submit.simple.php",
        "trials": 100,
        "practiceTrials": 2,
        "marblesSampled": 100,
        "probRed": 0.5,
        "practiceLambdaAI": 5,
        "lambdaAI": 21.9,
        "roles": [
            "sender",
            "receiver"
        ],
        "cost": "unif",
        "goal": "over",
        "oppDishonesty": "dishonest_big",
        "catchTrials": [
            27,
            10,
            95,
            17,
            72,
            76,
            8,
            97,
            64,
            50
        ],
        "scoreTotal": {
            "player": -2281,
            "opp": 1858
        },
        "sona": {
            "experiment_id": 2228,
            "credit_token": "b315147ae43241ea9c65086cb510cfb7"
        },
        "pilot": false,
        "debug": false
    },
    "trials": [
        {
            "exptPart": "practice",
            "trialNumber": 1,
            "roleCurrent": "sender",
            "marblesSampled": 100,
            "probRed": 0.5,
            "practiceLambda": 5,
            "trialLambda": 21.9,
            "instructedLambda": "dishonest_big",
            "drawnRed": 79,
            "reportedRed": 77,
            "inferredRed": 72,
            "playerTrialScore": 0,
            "oppTrialScore": -7,
            "playerTotalScore": 0,
            "oppTotalScore": -7,
            "waitTime": 2257.6810903416476,
            "responseTime": 1680994382585,
            "catchQuestion": "How many <b class=\"r\">red<\/b> marbles did you actually draw (before any changes)? ",
            "catchKey": 79,
            "catchResponse": 79,
            "catchTime": 1680994382585,
            "trialTime": 0
        },
        {
            "exptPart": "practice",
            "trialNumber": 2,
            "roleCurrent": "receiver",
            "marblesSampled": 100,
            "probRed": 0.5,
            "practiceLambda": 5,
            "trialLambda": 21.9,
            "instructedLambda": "dishonest_big",
            "drawnRed": 74,
            "reportedRed": 82,
            "inferredRed": 83,
            "playerTrialScore": -9,
            "oppTrialScore": 9,
            "playerTotalScore": -9,
            "oppTotalScore": 2,
            "waitTime": 6150.811830506071,
            "responseTime": 1680994528126,
            "catchQuestion": "How many <b class=\"r\">red<\/b> marbles did your opponent report drawing? ",
            "catchKey": 82,
            "catchResponse": 82,
            "catchTime": 1680994528126,
            "trialTime": 0
        },
        {
            "exptPart": "trial",
            "trialNumber": 1,
            "roleCurrent": "receiver",
            "marblesSampled": 100,
            "probRed": 0.5,
            "practiceLambda": 5,
            "trialLambda": 21.9,
            "instructedLambda": "dishonest_big",
            "drawnRed": 24,
            "reportedRed": 45,
            "inferredRed": 30,
            "playerTrialScore": -6,
            "oppTrialScore": 6,
            "playerTotalScore": -6,
            "oppTotalScore": 6,
            "waitTime": 5565.568226986197,
            "responseTime": 1680994665567,
            "catchQuestion": "How many <b class=\"r\">red<\/b> marbles did your opponent report drawing? ",
            "catchKey": -1,
            "catchResponse": -1,
            "catchTime": 1680994528126,
            "trialTime": 0
        },
        {
            "exptPart": "trial",
            "trialNumber": 2,
            "roleCurrent": "receiver",
            "marblesSampled": 100,
            "probRed": 0.5,
            "practiceLambda": 5,
            "trialLambda": 21.9,
            "instructedLambda": "dishonest_big",
            "drawnRed": 71,
            "reportedRed": 94,
            "inferredRed": 75,
            "playerTrialScore": -4,
            "oppTrialScore": 4,
            "playerTotalScore": -10,
            "oppTotalScore": 10,
            "waitTime": 6055.74556192869,
            "responseTime": 1680994702547,
            "catchQuestion": "How many <b class=\"r\">red<\/b> marbles did your opponent report drawing? ",
            "catchKey": -1,
            "catchResponse": -1,
            "catchTime": 1680994528126,
            "trialTime": 0
        },
        {
            "exptPart": "trial",
            "trialNumber": 3,
            "roleCurrent": "receiver",
            "marblesSampled": 100,
            "probRed": 0.5,
            "practiceLambda": 5,
            "trialLambda": 21.9,
            "instructedLambda": "dishonest_big",
            "drawnRed": 41,
            "reportedRed": 61,
            "inferredRed": 70,
            "playerTrialScore": -29,
            "oppTrialScore": 29,
            "playerTotalScore": -39,
            "oppTotalScore": 39,
            "waitTime": 6346.143355791533,
            "responseTime": 1680994729351,
            "catchQuestion": "How many <b class=\"r\">red<\/b> marbles did your opponent report drawing? ",
            "catchKey": -1,
            "catchResponse": -1,
            "catchTime": 1680994528126,
            "trialTime": 0
        },
        {
            "exptPart": "trial",
            "trialNumber": 4,
            "roleCurrent": "receiver",
            "marblesSampled": 100,
            "probRed": 0.5,
            "practiceLambda": 5,
            "trialLambda": 21.9,
            "instructedLambda": "dishonest_big",
            "drawnRed": 53,
            "reportedRed": 84,
            "inferredRed": 69,
            "playerTrialScore": -16,
            "oppTrialScore": 16,
            "playerTotalScore": -55,
            "oppTotalScore": 55,
            "waitTime": 5673.613808690723,
            "responseTime": 1680994755079,
            "catchQuestion": "How many <b class=\"r\">red<\/b> marbles did your opponent report drawing? ",
            "catchKey": -1,
            "catchResponse": -1,
            "catchTime": 1680994528126,
            "trialTime": 0
        },
        {
            "exptPart": "trial",
            "trialNumber": 5,
            "roleCurrent": "receiver",
            "marblesSampled": 100,
            "probRed": 0.5,
            "practiceLambda": 5,
            "trialLambda": 21.9,
            "instructedLambda": "dishonest_big",
            "drawnRed": 34,
            "reportedRed": 52,
            "inferredRed": 34,
            "playerTrialScore": 0,
            "oppTrialScore": 0,
            "playerTotalScore": -55,
            "oppTotalScore": 55,
            "waitTime": 5391.508602122555,
            "responseTime": 1680994773781,
            "catchQuestion": "How many <b class=\"r\">red<\/b> marbles did your opponent report drawing? ",
            "catchKey": -1,
            "catchResponse": -1,
            "catchTime": 1680994528126,
            "trialTime": 0
        },
        {
            "exptPart": "trial",
            "trialNumber": 6,
            "roleCurrent": "receiver",
            "marblesSampled": 100,
            "probRed": 0.5,
            "practiceLambda": 5,
            "trialLambda": 21.9,
            "instructedLambda": "dishonest_big",
            "drawnRed": 12,
            "reportedRed": 32,
            "inferredRed": 20,
            "playerTrialScore": -8,
            "oppTrialScore": 8,
            "playerTotalScore": -63,
            "oppTotalScore": 63,
            "waitTime": 5269.024207299426,
            "responseTime": 1680994791243,
            "catchQuestion": "How many <b class=\"r\">red<\/b> marbles did your opponent report drawing? ",
            "catchKey": -1,
            "catchResponse": -1,
            "catchTime": 1680994528126,
            "trialTime": 0
        },
        {
            "exptPart": "trial",
            "trialNumber": 7,
            "roleCurrent": "receiver",
            "marblesSampled": 100,
            "probRed": 0.5,
            "practiceLambda": 5,
            "trialLambda": 21.9,
            "instructedLambda": "dishonest_big",
            "drawnRed": 58,
            "reportedRed": 85,
            "inferredRed": 52,
            "playerTrialScore": -6,
            "oppTrialScore": 0,
            "playerTotalScore": -69,
            "oppTotalScore": 63,
            "waitTime": 5249.923778316753,
            "responseTime": 1680994804974,
            "catchQuestion": "How many <b class=\"r\">red<\/b> marbles did your opponent report drawing? ",
            "catchKey": -1,
            "catchResponse": -1,
            "catchTime": 1680994528126,
            "trialTime": 0
        },
        {
            "exptPart": "trial",
            "trialNumber": 8,
            "roleCurrent": "receiver",
            "marblesSampled": 100,
            "probRed": 0.5,
            "practiceLambda": 5,
            "trialLambda": 21.9,
            "instructedLambda": "dishonest_big",
            "drawnRed": 45,
            "reportedRed": 66,
            "inferredRed": 41,
            "playerTrialScore": -4,
            "oppTrialScore": 0,
            "playerTotalScore": -73,
            "oppTotalScore": 63,
            "waitTime": 7082.263636029902,
            "responseTime": 1680994858341,
            "catchQuestion": "How many <b class=\"r\">red<\/b> marbles did your opponent report drawing? ",
            "catchKey": -1,
            "catchResponse": -1,
            "catchTime": 1680994528126,
            "trialTime": 0
        },
        {
            "exptPart": "trial",
            "trialNumber": 9,
            "roleCurrent": "receiver",
            "marblesSampled": 100,
            "probRed": 0.5,
            "practiceLambda": 5,
            "trialLambda": 21.9,
            "instructedLambda": "dishonest_big",
            "drawnRed": 38,
            "reportedRed": 60,
            "inferredRed": 36,
            "playerTrialScore": -2,
            "oppTrialScore": 0,
            "playerTotalScore": -75,
            "oppTotalScore": 63,
            "waitTime": 5194.517788895462,
            "responseTime": 1680994901420,
            "catchQuestion": "How many <b class=\"r\">red<\/b> marbles did your opponent report drawing? ",
            "catchKey": 60,
            "catchResponse": 69,
            "catchTime": 1680994901420,
            "trialTime": 0
        },
        {
            "exptPart": "trial",
            "trialNumber": 10,
            "roleCurrent": "receiver",
            "marblesSampled": 100,
            "probRed": 0.5,
            "practiceLambda": 5,
            "trialLambda": 21.9,
            "instructedLambda": "dishonest_big",
            "drawnRed": 54,
            "reportedRed": 78,
            "inferredRed": 54,
            "playerTrialScore": 0,
            "oppTrialScore": 0,
            "playerTotalScore": -75,
            "oppTotalScore": 63,
            "waitTime": 5845.903311120415,
            "responseTime": 1680994938526,
            "catchQuestion": "How many <b class=\"r\">red<\/b> marbles did your opponent report drawing? ",
            "catchKey": -1,
            "catchResponse": -1,
            "catchTime": 1680994938526,
            "trialTime": 0
        },
        {
            "exptPart": "trial",
            "trialNumber": 11,
            "roleCurrent": "receiver",
            "marblesSampled": 100,
            "probRed": 0.5,
            "practiceLambda": 5,
            "trialLambda": 21.9,
            "instructedLambda": "dishonest_big",
            "drawnRed": 42,
            "reportedRed": 61,
            "inferredRed": 20,
            "playerTrialScore": -22,
            "oppTrialScore": 0,
            "playerTotalScore": -97,
            "oppTotalScore": 63,
            "waitTime": 6559.044394434626,
            "responseTime": 1680994971534,
            "catchQuestion": "How many <b class=\"r\">red<\/b> marbles did your opponent report drawing? ",
            "catchKey": 61,
            "catchResponse": 61,
            "catchTime": 1680994971534,
            "trialTime": 0
        },
        {
            "exptPart": "trial",
            "trialNumber": 12,
            "roleCurrent": "receiver",
            "marblesSampled": 100,
            "probRed": 0.5,
            "practiceLambda": 5,
            "trialLambda": 21.9,
            "instructedLambda": "dishonest_big",
            "drawnRed": 51,
            "reportedRed": 73,
            "inferredRed": 70,
            "playerTrialScore": -19,
            "oppTrialScore": 19,
            "playerTotalScore": -116,
            "oppTotalScore": 82,
            "waitTime": 5366.363732844424,
            "responseTime": 1680995005403,
            "catchQuestion": "How many <b class=\"r\">red<\/b> marbles did your opponent report drawing? ",
            "catchKey": -1,
            "catchResponse": -1,
            "catchTime": 1680994971534,
            "trialTime": 0
        },
        {
            "exptPart": "trial",
            "trialNumber": 13,
            "roleCurrent": "receiver",
            "marblesSampled": 100,
            "probRed": 0.5,
            "practiceLambda": 5,
            "trialLambda": 21.9,
            "instructedLambda": "dishonest_big",
            "drawnRed": 57,
            "reportedRed": 89,
            "inferredRed": 59,
            "playerTrialScore": -2,
            "oppTrialScore": 2,
            "playerTotalScore": -118,
            "oppTotalScore": 84,
            "waitTime": 6338.664704376955,
            "responseTime": 1680995022980,
            "catchQuestion": "How many <b class=\"r\">red<\/b> marbles did your opponent report drawing? ",
            "catchKey": -1,
            "catchResponse": -1,
            "catchTime": 1680994971534,
            "trialTime": 0
        },
        {
            "exptPart": "trial",
            "trialNumber": 14,
            "roleCurrent": "receiver",
            "marblesSampled": 100,
            "probRed": 0.5,
            "practiceLambda": 5,
            "trialLambda": 21.9,
            "instructedLambda": "dishonest_big",
            "drawnRed": 79,
            "reportedRed": 98,
            "inferredRed": 48,
            "playerTrialScore": -31,
            "oppTrialScore": 0,
            "playerTotalScore": -149,
            "oppTotalScore": 84,
            "waitTime": 6544.4884769947075,
            "responseTime": 1680995040141,
            "catchQuestion": "How many <b class=\"r\">red<\/b> marbles did your opponent report drawing? ",
            "catchKey": -1,
            "catchResponse": -1,
            "catchTime": 1680994971534,
            "trialTime": 0
        },
        {
            "exptPart": "trial",
            "trialNumber": 15,
            "roleCurrent": "receiver",
            "marblesSampled": 100,
            "probRed": 0.5,
            "practiceLambda": 5,
            "trialLambda": 21.9,
            "instructedLambda": "dishonest_big",
            "drawnRed": 35,
            "reportedRed": 60,
            "inferredRed": 50,
            "playerTrialScore": -15,
            "oppTrialScore": 15,
            "playerTotalScore": -164,
            "oppTotalScore": 99,
            "waitTime": 6455.192320772547,
            "responseTime": 1680995057242,
            "catchQuestion": "How many <b class=\"r\">red<\/b> marbles did your opponent report drawing? ",
            "catchKey": -1,
            "catchResponse": -1,
            "catchTime": 1680994971534,
            "trialTime": 0
        },
        {
            "exptPart": "trial",
            "trialNumber": 16,
            "roleCurrent": "receiver",
            "marblesSampled": 100,
            "probRed": 0.5,
            "practiceLambda": 5,
            "trialLambda": 21.9,
            "instructedLambda": "dishonest_big",
            "drawnRed": 36,
            "reportedRed": 59,
            "inferredRed": 61,
            "playerTrialScore": -25,
            "oppTrialScore": 25,
            "playerTotalScore": -189,
            "oppTotalScore": 124,
            "waitTime": 5134.153798598578,
            "responseTime": 1680995082489,
            "catchQuestion": "How many <b class=\"r\">red<\/b> marbles did your opponent report drawing? ",
            "catchKey": -1,
            "catchResponse": -1,
            "catchTime": 1680994971534,
            "trialTime": 0
        },
        {
            "exptPart": "trial",
            "trialNumber": 17,
            "roleCurrent": "receiver",
            "marblesSampled": 100,
            "probRed": 0.5,
            "practiceLambda": 5,
            "trialLambda": 21.9,
            "instructedLambda": "dishonest_big",
            "drawnRed": 16,
            "reportedRed": 47,
            "inferredRed": 37,
            "playerTrialScore": -21,
            "oppTrialScore": 21,
            "playerTotalScore": -210,
            "oppTotalScore": 145,
            "waitTime": 6859.320978419084,
            "responseTime": 1680995100824,
            "catchQuestion": "How many <b class=\"r\">red<\/b> marbles did your opponent report drawing? ",
            "catchKey": -1,
            "catchResponse": -1,
            "catchTime": 1680994971534,
            "trialTime": 0
        },
        {
            "exptPart": "trial",
            "trialNumber": 18,
            "roleCurrent": "receiver",
            "marblesSampled": 100,
            "probRed": 0.5,
            "practiceLambda": 5,
            "trialLambda": 21.9,
            "instructedLambda": "dishonest_big",
            "drawnRed": 19,
            "reportedRed": 37,
            "inferredRed": 40,
            "playerTrialScore": -21,
            "oppTrialScore": 21,
            "playerTotalScore": -231,
            "oppTotalScore": 166,
            "waitTime": 6267.585657844527,
            "responseTime": 1680995118860,
            "catchQuestion": "How many <b class=\"r\">red<\/b> marbles did your opponent report drawing? ",
            "catchKey": 37,
            "catchResponse": 37,
            "catchTime": 1680995118860,
            "trialTime": 0
        },
        {
            "exptPart": "trial",
            "trialNumber": 19,
            "roleCurrent": "receiver",
            "marblesSampled": 100,
            "probRed": 0.5,
            "practiceLambda": 5,
            "trialLambda": 21.9,
            "instructedLambda": "dishonest_big",
            "drawnRed": 62,
            "reportedRed": 79,
            "inferredRed": 60,
            "playerTrialScore": -2,
            "oppTrialScore": 0,
            "playerTotalScore": -233,
            "oppTotalScore": 166,
            "waitTime": 5839.184326509014,
            "responseTime": 1680995134788,
            "catchQuestion": "How many <b class=\"r\">red<\/b> marbles did your opponent report drawing? ",
            "catchKey": -1,
            "catchResponse": -1,
            "catchTime": 1680995118860,
            "trialTime": 0
        },
        {
            "exptPart": "trial",
            "trialNumber": 20,
            "roleCurrent": "receiver",
            "marblesSampled": 100,
            "probRed": 0.5,
            "practiceLambda": 5,
            "trialLambda": 21.9,
            "instructedLambda": "dishonest_big",
            "drawnRed": 88,
            "reportedRed": 100,
            "inferredRed": 45,
            "playerTrialScore": -43,
            "oppTrialScore": 0,
            "playerTotalScore": -276,
            "oppTotalScore": 166,
            "waitTime": 6907.779132658485,
            "responseTime": 1680995191133,
            "catchQuestion": "How many <b class=\"r\">red<\/b> marbles did your opponent report drawing? ",
            "catchKey": -1,
            "catchResponse": -1,
            "catchTime": 1680995191134,
            "trialTime": 0
        },
        {
            "exptPart": "trial",
            "trialNumber": 21,
            "roleCurrent": "receiver",
            "marblesSampled": 100,
            "probRed": 0.5,
            "practiceLambda": 5,
            "trialLambda": 21.9,
            "instructedLambda": "dishonest_big",
            "drawnRed": 17,
            "reportedRed": 46,
            "inferredRed": 70,
            "playerTrialScore": -53,
            "oppTrialScore": 53,
            "playerTotalScore": -329,
            "oppTotalScore": 219,
            "waitTime": 5736.901878530835,
            "responseTime": 1680995220117,
            "catchQuestion": "How many <b class=\"r\">red<\/b> marbles did your opponent report drawing? ",
            "catchKey": -1,
            "catchResponse": -1,
            "catchTime": 1680995191134,
            "trialTime": 0
        },
        {
            "exptPart": "trial",
            "trialNumber": 22,
            "roleCurrent": "receiver",
            "marblesSampled": 100,
            "probRed": 0.5,
            "practiceLambda": 5,
            "trialLambda": 21.9,
            "instructedLambda": "dishonest_big",
            "drawnRed": 76,
            "reportedRed": 99,
            "inferredRed": 78,
            "playerTrialScore": -2,
            "oppTrialScore": 2,
            "playerTotalScore": -331,
            "oppTotalScore": 221,
            "waitTime": 5609.254761438973,
            "responseTime": 1680995240427,
            "catchQuestion": "How many <b class=\"r\">red<\/b> marbles did your opponent report drawing? ",
            "catchKey": -1,
            "catchResponse": -1,
            "catchTime": 1680995191134,
            "trialTime": 0
        },
        {
            "exptPart": "trial",
            "trialNumber": 23,
            "roleCurrent": "receiver",
            "marblesSampled": 100,
            "probRed": 0.5,
            "practiceLambda": 5,
            "trialLambda": 21.9,
            "instructedLambda": "dishonest_big",
            "drawnRed": 41,
            "reportedRed": 63,
            "inferredRed": 70,
            "playerTrialScore": -29,
            "oppTrialScore": 29,
            "playerTotalScore": -360,
            "oppTotalScore": 250,
            "waitTime": 6569.709235224593,
            "responseTime": 1680995272261,
            "catchQuestion": "How many <b class=\"r\">red<\/b> marbles did your opponent report drawing? ",
            "catchKey": -1,
            "catchResponse": -1,
            "catchTime": 1680995191134,
            "trialTime": 0
        },
        {
            "exptPart": "trial",
            "trialNumber": 24,
            "roleCurrent": "receiver",
            "marblesSampled": 100,
            "probRed": 0.5,
            "practiceLambda": 5,
            "trialLambda": 21.9,
            "instructedLambda": "dishonest_big",
            "drawnRed": 38,
            "reportedRed": 55,
            "inferredRed": 50,
            "playerTrialScore": -12,
            "oppTrialScore": 12,
            "playerTotalScore": -372,
            "oppTotalScore": 262,
            "waitTime": 5555.641477751295,
            "responseTime": 1680995300387,
            "catchQuestion": "How many <b class=\"r\">red<\/b> marbles did your opponent report drawing? ",
            "catchKey": -1,
            "catchResponse": -1,
            "catchTime": 1680995191134,
            "trialTime": 0
        },
        {
            "exptPart": "trial",
            "trialNumber": 25,
            "roleCurrent": "receiver",
            "marblesSampled": 100,
            "probRed": 0.5,
            "practiceLambda": 5,
            "trialLambda": 21.9,
            "instructedLambda": "dishonest_big",
            "drawnRed": 69,
            "reportedRed": 91,
            "inferredRed": 65,
            "playerTrialScore": -4,
            "oppTrialScore": 0,
            "playerTotalScore": -376,
            "oppTotalScore": 262,
            "waitTime": 5893.071511370498,
            "responseTime": 1680995326160,
            "catchQuestion": "How many <b class=\"r\">red<\/b> marbles did your opponent report drawing? ",
            "catchKey": -1,
            "catchResponse": -1,
            "catchTime": 1680995191134,
            "trialTime": 0
        },
        {
            "exptPart": "trial",
            "trialNumber": 26,
            "roleCurrent": "receiver",
            "marblesSampled": 100,
            "probRed": 0.5,
            "practiceLambda": 5,
            "trialLambda": 21.9,
            "instructedLambda": "dishonest_big",
            "drawnRed": 77,
            "reportedRed": 100,
            "inferredRed": 70,
            "playerTrialScore": -7,
            "oppTrialScore": 0,
            "playerTotalScore": -383,
            "oppTotalScore": 262,
            "waitTime": 5781.896102390513,
            "responseTime": 1680995346586,
            "catchQuestion": "How many <b class=\"r\">red<\/b> marbles did your opponent report drawing? ",
            "catchKey": -1,
            "catchResponse": -1,
            "catchTime": 1680995191134,
            "trialTime": 0
        },
        {
            "exptPart": "trial",
            "trialNumber": 27,
            "roleCurrent": "receiver",
            "marblesSampled": 100,
            "probRed": 0.5,
            "practiceLambda": 5,
            "trialLambda": 21.9,
            "instructedLambda": "dishonest_big",
            "drawnRed": 55,
            "reportedRed": 77,
            "inferredRed": 77,
            "playerTrialScore": -22,
            "oppTrialScore": 22,
            "playerTotalScore": -405,
            "oppTotalScore": 284,
            "waitTime": 5289.2897579258715,
            "responseTime": 1680995400261,
            "catchQuestion": "How many <b class=\"r\">red<\/b> marbles did your opponent report drawing? ",
            "catchKey": -1,
            "catchResponse": -1,
            "catchTime": 1680995191134,
            "trialTime": 0
        },
        {
            "exptPart": "trial",
            "trialNumber": 28,
            "roleCurrent": "receiver",
            "marblesSampled": 100,
            "probRed": 0.5,
            "practiceLambda": 5,
            "trialLambda": 21.9,
            "instructedLambda": "dishonest_big",
            "drawnRed": 58,
            "reportedRed": 83,
            "inferredRed": 33,
            "playerTrialScore": -25,
            "oppTrialScore": 0,
            "playerTotalScore": -430,
            "oppTotalScore": 284,
            "waitTime": 6529.7667645648235,
            "responseTime": 1680995421590,
            "catchQuestion": "How many <b class=\"r\">red<\/b> marbles did your opponent report drawing? ",
            "catchKey": 83,
            "catchResponse": 83,
            "catchTime": 1680995421590,
            "trialTime": 0
        },
        {
            "exptPart": "trial",
            "trialNumber": 29,
            "roleCurrent": "receiver",
            "marblesSampled": 100,
            "probRed": 0.5,
            "practiceLambda": 5,
            "trialLambda": 21.9,
            "instructedLambda": "dishonest_big",
            "drawnRed": 35,
            "reportedRed": 57,
            "inferredRed": 47,
            "playerTrialScore": -12,
            "oppTrialScore": 12,
            "playerTotalScore": -442,
            "oppTotalScore": 296,
            "waitTime": 6557.639693356721,
            "responseTime": 1680995455125,
            "catchQuestion": "How many <b class=\"r\">red<\/b> marbles did your opponent report drawing? ",
            "catchKey": -1,
            "catchResponse": -1,
            "catchTime": 1680995421590,
            "trialTime": 0
        },
        {
            "exptPart": "trial",
            "trialNumber": 30,
            "roleCurrent": "receiver",
            "marblesSampled": 100,
            "probRed": 0.5,
            "practiceLambda": 5,
            "trialLambda": 21.9,
            "instructedLambda": "dishonest_big",
            "drawnRed": 36,
            "reportedRed": 58,
            "inferredRed": 68,
            "playerTrialScore": -32,
            "oppTrialScore": 32,
            "playerTotalScore": -474,
            "oppTotalScore": 328,
            "waitTime": 7159.110566285638,
            "responseTime": 1680995495681,
            "catchQuestion": "How many <b class=\"r\">red<\/b> marbles did your opponent report drawing? ",
            "catchKey": -1,
            "catchResponse": -1,
            "catchTime": 1680995495681,
            "trialTime": 0
        },
        {
            "exptPart": "trial",
            "trialNumber": 31,
            "roleCurrent": "receiver",
            "marblesSampled": 100,
            "probRed": 0.5,
            "practiceLambda": 5,
            "trialLambda": 21.9,
            "instructedLambda": "dishonest_big",
            "drawnRed": 78,
            "reportedRed": 100,
            "inferredRed": 65,
            "playerTrialScore": -13,
            "oppTrialScore": 0,
            "playerTotalScore": -487,
            "oppTotalScore": 328,
            "waitTime": 5478.617253981123,
            "responseTime": 1680995518050,
            "catchQuestion": "How many <b class=\"r\">red<\/b> marbles did your opponent report drawing? ",
            "catchKey": -1,
            "catchResponse": -1,
            "catchTime": 1680995495681,
            "trialTime": 0
        },
        {
            "exptPart": "trial",
            "trialNumber": 32,
            "roleCurrent": "receiver",
            "marblesSampled": 100,
            "probRed": 0.5,
            "practiceLambda": 5,
            "trialLambda": 21.9,
            "instructedLambda": "dishonest_big",
            "drawnRed": 62,
            "reportedRed": 74,
            "inferredRed": 74,
            "playerTrialScore": -12,
            "oppTrialScore": 12,
            "playerTotalScore": -499,
            "oppTotalScore": 340,
            "waitTime": 7278.282298429351,
            "responseTime": 1680995532576,
            "catchQuestion": "How many <b class=\"r\">red<\/b> marbles did your opponent report drawing? ",
            "catchKey": -1,
            "catchResponse": -1,
            "catchTime": 1680995495681,
            "trialTime": 0
        },
        {
            "exptPart": "trial",
            "trialNumber": 33,
            "roleCurrent": "receiver",
            "marblesSampled": 100,
            "probRed": 0.5,
            "practiceLambda": 5,
            "trialLambda": 21.9,
            "instructedLambda": "dishonest_big",
            "drawnRed": 58,
            "reportedRed": 79,
            "inferredRed": 79,
            "playerTrialScore": -21,
            "oppTrialScore": 21,
            "playerTotalScore": -520,
            "oppTotalScore": 361,
            "waitTime": 5265.404698158362,
            "responseTime": 1680995542105,
            "catchQuestion": "How many <b class=\"r\">red<\/b> marbles did your opponent report drawing? ",
            "catchKey": -1,
            "catchResponse": -1,
            "catchTime": 1680995495681,
            "trialTime": 0
        },
        {
            "exptPart": "trial",
            "trialNumber": 34,
            "roleCurrent": "receiver",
            "marblesSampled": 100,
            "probRed": 0.5,
            "practiceLambda": 5,
            "trialLambda": 21.9,
            "instructedLambda": "dishonest_big",
            "drawnRed": 36,
            "reportedRed": 57,
            "inferredRed": 57,
            "playerTrialScore": -21,
            "oppTrialScore": 21,
            "playerTotalScore": -541,
            "oppTotalScore": 382,
            "waitTime": 6708.0799040985685,
            "responseTime": 1680995553361,
            "catchQuestion": "How many <b class=\"r\">red<\/b> marbles did your opponent report drawing? ",
            "catchKey": -1,
            "catchResponse": -1,
            "catchTime": 1680995495681,
            "trialTime": 0
        },
        {
            "exptPart": "trial",
            "trialNumber": 35,
            "roleCurrent": "receiver",
            "marblesSampled": 100,
            "probRed": 0.5,
            "practiceLambda": 5,
            "trialLambda": 21.9,
            "instructedLambda": "dishonest_big",
            "drawnRed": 44,
            "reportedRed": 73,
            "inferredRed": 50,
            "playerTrialScore": -6,
            "oppTrialScore": 6,
            "playerTotalScore": -547,
            "oppTotalScore": 388,
            "waitTime": 6537.847468193886,
            "responseTime": 1680995574141,
            "catchQuestion": "How many <b class=\"r\">red<\/b> marbles did your opponent report drawing? ",
            "catchKey": -1,
            "catchResponse": -1,
            "catchTime": 1680995495681,
            "trialTime": 0
        },
        {
            "exptPart": "trial",
            "trialNumber": 36,
            "roleCurrent": "receiver",
            "marblesSampled": 100,
            "probRed": 0.5,
            "practiceLambda": 5,
            "trialLambda": 21.9,
            "instructedLambda": "dishonest_big",
            "drawnRed": 15,
            "reportedRed": 37,
            "inferredRed": 37,
            "playerTrialScore": -22,
            "oppTrialScore": 22,
            "playerTotalScore": -569,
            "oppTotalScore": 410,
            "waitTime": 6442.604805418987,
            "responseTime": 1680995598398,
            "catchQuestion": "How many <b class=\"r\">red<\/b> marbles did your opponent report drawing? ",
            "catchKey": -1,
            "catchResponse": -1,
            "catchTime": 1680995495681,
            "trialTime": 0
        },
        {
            "exptPart": "trial",
            "trialNumber": 37,
            "roleCurrent": "receiver",
            "marblesSampled": 100,
            "probRed": 0.5,
            "practiceLambda": 5,
            "trialLambda": 21.9,
            "instructedLambda": "dishonest_big",
            "drawnRed": 61,
            "reportedRed": 80,
            "inferredRed": 70,
            "playerTrialScore": -9,
            "oppTrialScore": 9,
            "playerTotalScore": -578,
            "oppTotalScore": 419,
            "waitTime": 5967.591683720575,
            "responseTime": 1680995617341,
            "catchQuestion": "How many <b class=\"r\">red<\/b> marbles did your opponent report drawing? ",
            "catchKey": -1,
            "catchResponse": -1,
            "catchTime": 1680995495681,
            "trialTime": 0
        },
        {
            "exptPart": "trial",
            "trialNumber": 38,
            "roleCurrent": "receiver",
            "marblesSampled": 100,
            "probRed": 0.5,
            "practiceLambda": 5,
            "trialLambda": 21.9,
            "instructedLambda": "dishonest_big",
            "drawnRed": 39,
            "reportedRed": 61,
            "inferredRed": 58,
            "playerTrialScore": -19,
            "oppTrialScore": 19,
            "playerTotalScore": -597,
            "oppTotalScore": 438,
            "waitTime": 6427.274066187565,
            "responseTime": 1680995635877,
            "catchQuestion": "How many <b class=\"r\">red<\/b> marbles did your opponent report drawing? ",
            "catchKey": -1,
            "catchResponse": -1,
            "catchTime": 1680995495681,
            "trialTime": 0
        },
        {
            "exptPart": "trial",
            "trialNumber": 39,
            "roleCurrent": "receiver",
            "marblesSampled": 100,
            "probRed": 0.5,
            "practiceLambda": 5,
            "trialLambda": 21.9,
            "instructedLambda": "dishonest_big",
            "drawnRed": 84,
            "reportedRed": 100,
            "inferredRed": 69,
            "playerTrialScore": -15,
            "oppTrialScore": 0,
            "playerTotalScore": -612,
            "oppTotalScore": 438,
            "waitTime": 6516.598050057469,
            "responseTime": 1680995649193,
            "catchQuestion": "How many <b class=\"r\">red<\/b> marbles did your opponent report drawing? ",
            "catchKey": -1,
            "catchResponse": -1,
            "catchTime": 1680995495681,
            "trialTime": 0
        },
        {
            "exptPart": "trial",
            "trialNumber": 40,
            "roleCurrent": "receiver",
            "marblesSampled": 100,
            "probRed": 0.5,
            "practiceLambda": 5,
            "trialLambda": 21.9,
            "instructedLambda": "dishonest_big",
            "drawnRed": 43,
            "reportedRed": 60,
            "inferredRed": 60,
            "playerTrialScore": -17,
            "oppTrialScore": 17,
            "playerTotalScore": -629,
            "oppTotalScore": 455,
            "waitTime": 5186.498828918018,
            "responseTime": 1680995660331,
            "catchQuestion": "How many <b class=\"r\">red<\/b> marbles did your opponent report drawing? ",
            "catchKey": -1,
            "catchResponse": -1,
            "catchTime": 1680995660331,
            "trialTime": 0
        },
        {
            "exptPart": "trial",
            "trialNumber": 41,
            "roleCurrent": "receiver",
            "marblesSampled": 100,
            "probRed": 0.5,
            "practiceLambda": 5,
            "trialLambda": 21.9,
            "instructedLambda": "dishonest_big",
            "drawnRed": 20,
            "reportedRed": 44,
            "inferredRed": 70,
            "playerTrialScore": -50,
            "oppTrialScore": 50,
            "playerTotalScore": -679,
            "oppTotalScore": 505,
            "waitTime": 5753.313711127546,
            "responseTime": 1680995684490,
            "catchQuestion": "How many <b class=\"r\">red<\/b> marbles did your opponent report drawing? ",
            "catchKey": -1,
            "catchResponse": -1,
            "catchTime": 1680995660331,
            "trialTime": 0
        },
        {
            "exptPart": "trial",
            "trialNumber": 42,
            "roleCurrent": "receiver",
            "marblesSampled": 100,
            "probRed": 0.5,
            "practiceLambda": 5,
            "trialLambda": 21.9,
            "instructedLambda": "dishonest_big",
            "drawnRed": 58,
            "reportedRed": 83,
            "inferredRed": 98,
            "playerTrialScore": -40,
            "oppTrialScore": 40,
            "playerTotalScore": -719,
            "oppTotalScore": 545,
            "waitTime": 6702.2093335677055,
            "responseTime": 1680995706508,
            "catchQuestion": "How many <b class=\"r\">red<\/b> marbles did your opponent report drawing? ",
            "catchKey": -1,
            "catchResponse": -1,
            "catchTime": 1680995660331,
            "trialTime": 0
        },
        {
            "exptPart": "trial",
            "trialNumber": 43,
            "roleCurrent": "receiver",
            "marblesSampled": 100,
            "probRed": 0.5,
            "practiceLambda": 5,
            "trialLambda": 21.9,
            "instructedLambda": "dishonest_big",
            "drawnRed": 30,
            "reportedRed": 52,
            "inferredRed": 60,
            "playerTrialScore": -30,
            "oppTrialScore": 30,
            "playerTotalScore": -749,
            "oppTotalScore": 575,
            "waitTime": 5563.638740382582,
            "responseTime": 1680995716338,
            "catchQuestion": "How many <b class=\"r\">red<\/b> marbles did your opponent report drawing? ",
            "catchKey": -1,
            "catchResponse": -1,
            "catchTime": 1680995660331,
            "trialTime": 0
        },
        {
            "exptPart": "trial",
            "trialNumber": 44,
            "roleCurrent": "receiver",
            "marblesSampled": 100,
            "probRed": 0.5,
            "practiceLambda": 5,
            "trialLambda": 21.9,
            "instructedLambda": "dishonest_big",
            "drawnRed": 17,
            "reportedRed": 35,
            "inferredRed": 30,
            "playerTrialScore": -13,
            "oppTrialScore": 13,
            "playerTotalScore": -762,
            "oppTotalScore": 588,
            "waitTime": 5853.573126953526,
            "responseTime": 1680995735823,
            "catchQuestion": "How many <b class=\"r\">red<\/b> marbles did your opponent report drawing? ",
            "catchKey": -1,
            "catchResponse": -1,
            "catchTime": 1680995660331,
            "trialTime": 0
        },
        {
            "exptPart": "trial",
            "trialNumber": 45,
            "roleCurrent": "receiver",
            "marblesSampled": 100,
            "probRed": 0.5,
            "practiceLambda": 5,
            "trialLambda": 21.9,
            "instructedLambda": "dishonest_big",
            "drawnRed": 41,
            "reportedRed": 62,
            "inferredRed": 70,
            "playerTrialScore": -29,
            "oppTrialScore": 29,
            "playerTotalScore": -791,
            "oppTotalScore": 617,
            "waitTime": 6965.243189025311,
            "responseTime": 1680995750111,
            "catchQuestion": "How many <b class=\"r\">red<\/b> marbles did your opponent report drawing? ",
            "catchKey": -1,
            "catchResponse": -1,
            "catchTime": 1680995660331,
            "trialTime": 0
        },
        {
            "exptPart": "trial",
            "trialNumber": 46,
            "roleCurrent": "receiver",
            "marblesSampled": 100,
            "probRed": 0.5,
            "practiceLambda": 5,
            "trialLambda": 21.9,
            "instructedLambda": "dishonest_big",
            "drawnRed": 39,
            "reportedRed": 55,
            "inferredRed": 70,
            "playerTrialScore": -31,
            "oppTrialScore": 31,
            "playerTotalScore": -822,
            "oppTotalScore": 648,
            "waitTime": 5131.865766319005,
            "responseTime": 1680995770010,
            "catchQuestion": "How many <b class=\"r\">red<\/b> marbles did your opponent report drawing? ",
            "catchKey": -1,
            "catchResponse": -1,
            "catchTime": 1680995660331,
            "trialTime": 0
        },
        {
            "exptPart": "trial",
            "trialNumber": 47,
            "roleCurrent": "receiver",
            "marblesSampled": 100,
            "probRed": 0.5,
            "practiceLambda": 5,
            "trialLambda": 21.9,
            "instructedLambda": "dishonest_big",
            "drawnRed": 61,
            "reportedRed": 82,
            "inferredRed": 70,
            "playerTrialScore": -9,
            "oppTrialScore": 9,
            "playerTotalScore": -831,
            "oppTotalScore": 657,
            "waitTime": 5642.608283471496,
            "responseTime": 1680995779413,
            "catchQuestion": "How many <b class=\"r\">red<\/b> marbles did your opponent report drawing? ",
            "catchKey": -1,
            "catchResponse": -1,
            "catchTime": 1680995660331,
            "trialTime": 0
        },
        {
            "exptPart": "trial",
            "trialNumber": 48,
            "roleCurrent": "receiver",
            "marblesSampled": 100,
            "probRed": 0.5,
            "practiceLambda": 5,
            "trialLambda": 21.9,
            "instructedLambda": "dishonest_big",
            "drawnRed": 50,
            "reportedRed": 72,
            "inferredRed": 89,
            "playerTrialScore": -39,
            "oppTrialScore": 39,
            "playerTotalScore": -870,
            "oppTotalScore": 696,
            "waitTime": 5726.2776761120695,
            "responseTime": 1680995797138,
            "catchQuestion": "How many <b class=\"r\">red<\/b> marbles did your opponent report drawing? ",
            "catchKey": -1,
            "catchResponse": -1,
            "catchTime": 1680995660331,
            "trialTime": 0
        },
        {
            "exptPart": "trial",
            "trialNumber": 49,
            "roleCurrent": "receiver",
            "marblesSampled": 100,
            "probRed": 0.5,
            "practiceLambda": 5,
            "trialLambda": 21.9,
            "instructedLambda": "dishonest_big",
            "drawnRed": 40,
            "reportedRed": 68,
            "inferredRed": 50,
            "playerTrialScore": -10,
            "oppTrialScore": 10,
            "playerTotalScore": -880,
            "oppTotalScore": 706,
            "waitTime": 6535.951059161915,
            "responseTime": 1680995816499,
            "catchQuestion": "How many <b class=\"r\">red<\/b> marbles did your opponent report drawing? ",
            "catchKey": -1,
            "catchResponse": -1,
            "catchTime": 1680995660331,
            "trialTime": 0
        },
        {
            "exptPart": "trial",
            "trialNumber": 50,
            "roleCurrent": "receiver",
            "marblesSampled": 100,
            "probRed": 0.5,
            "practiceLambda": 5,
            "trialLambda": 21.9,
            "instructedLambda": "dishonest_big",
            "drawnRed": 26,
            "reportedRed": 44,
            "inferredRed": 60,
            "playerTrialScore": -34,
            "oppTrialScore": 34,
            "playerTotalScore": -914,
            "oppTotalScore": 740,
            "waitTime": 7255.069350454916,
            "responseTime": 1680995831256,
            "catchQuestion": "How many <b class=\"r\">red<\/b> marbles did your opponent report drawing? ",
            "catchKey": -1,
            "catchResponse": -1,
            "catchTime": 1680995831257,
            "trialTime": 0
        },
        {
            "exptPart": "trial",
            "trialNumber": 51,
            "roleCurrent": "receiver",
            "marblesSampled": 100,
            "probRed": 0.5,
            "practiceLambda": 5,
            "trialLambda": 21.9,
            "instructedLambda": "dishonest_big",
            "drawnRed": 47,
            "reportedRed": 71,
            "inferredRed": 96,
            "playerTrialScore": -49,
            "oppTrialScore": 49,
            "playerTotalScore": -963,
            "oppTotalScore": 789,
            "waitTime": 5700.126739003577,
            "responseTime": 1680995867866,
            "catchQuestion": "How many <b class=\"r\">red<\/b> marbles did your opponent report drawing? ",
            "catchKey": 71,
            "catchResponse": 71,
            "catchTime": 1680995867866,
            "trialTime": 0
        },
        {
            "exptPart": "trial",
            "trialNumber": 52,
            "roleCurrent": "receiver",
            "marblesSampled": 100,
            "probRed": 0.5,
            "practiceLambda": 5,
            "trialLambda": 21.9,
            "instructedLambda": "dishonest_big",
            "drawnRed": 51,
            "reportedRed": 77,
            "inferredRed": 25,
            "playerTrialScore": -26,
            "oppTrialScore": 0,
            "playerTotalScore": -989,
            "oppTotalScore": 789,
            "waitTime": 5865.49650207355,
            "responseTime": 1680995981807,
            "catchQuestion": "How many <b class=\"r\">red<\/b> marbles did your opponent report drawing? ",
            "catchKey": -1,
            "catchResponse": -1,
            "catchTime": 1680995867866,
            "trialTime": 0
        },
        {
            "exptPart": "trial",
            "trialNumber": 53,
            "roleCurrent": "receiver",
            "marblesSampled": 100,
            "probRed": 0.5,
            "practiceLambda": 5,
            "trialLambda": 21.9,
            "instructedLambda": "dishonest_big",
            "drawnRed": 66,
            "reportedRed": 84,
            "inferredRed": 32,
            "playerTrialScore": -34,
            "oppTrialScore": 0,
            "playerTotalScore": -1023,
            "oppTotalScore": 789,
            "waitTime": 6619.457595374888,
            "responseTime": 1680996009989,
            "catchQuestion": "How many <b class=\"r\">red<\/b> marbles did your opponent report drawing? ",
            "catchKey": -1,
            "catchResponse": -1,
            "catchTime": 1680995867866,
            "trialTime": 0
        },
        {
            "exptPart": "trial",
            "trialNumber": 54,
            "roleCurrent": "receiver",
            "marblesSampled": 100,
            "probRed": 0.5,
            "practiceLambda": 5,
            "trialLambda": 21.9,
            "instructedLambda": "dishonest_big",
            "drawnRed": 85,
            "reportedRed": 100,
            "inferredRed": 15,
            "playerTrialScore": -70,
            "oppTrialScore": 0,
            "playerTotalScore": -1093,
            "oppTotalScore": 789,
            "waitTime": 5257.230163304553,
            "responseTime": 1680996025455,
            "catchQuestion": "How many <b class=\"r\">red<\/b> marbles did your opponent report drawing? ",
            "catchKey": -1,
            "catchResponse": -1,
            "catchTime": 1680995867866,
            "trialTime": 0
        },
        {
            "exptPart": "trial",
            "trialNumber": 55,
            "roleCurrent": "receiver",
            "marblesSampled": 100,
            "probRed": 0.5,
            "practiceLambda": 5,
            "trialLambda": 21.9,
            "instructedLambda": "dishonest_big",
            "drawnRed": 29,
            "reportedRed": 50,
            "inferredRed": 35,
            "playerTrialScore": -6,
            "oppTrialScore": 6,
            "playerTotalScore": -1099,
            "oppTotalScore": 795,
            "waitTime": 6497.233113504895,
            "responseTime": 1680996043265,
            "catchQuestion": "How many <b class=\"r\">red<\/b> marbles did your opponent report drawing? ",
            "catchKey": -1,
            "catchResponse": -1,
            "catchTime": 1680995867866,
            "trialTime": 0
        },
        {
            "exptPart": "trial",
            "trialNumber": 56,
            "roleCurrent": "receiver",
            "marblesSampled": 100,
            "probRed": 0.5,
            "practiceLambda": 5,
            "trialLambda": 21.9,
            "instructedLambda": "dishonest_big",
            "drawnRed": 34,
            "reportedRed": 53,
            "inferredRed": 28,
            "playerTrialScore": -6,
            "oppTrialScore": 0,
            "playerTotalScore": -1105,
            "oppTotalScore": 795,
            "waitTime": 7468.295641746812,
            "responseTime": 1680996146113,
            "catchQuestion": "How many <b class=\"r\">red<\/b> marbles did your opponent report drawing? ",
            "catchKey": -1,
            "catchResponse": -1,
            "catchTime": 1680995867866,
            "trialTime": 0
        },
        {
            "exptPart": "trial",
            "trialNumber": 57,
            "roleCurrent": "receiver",
            "marblesSampled": 100,
            "probRed": 0.5,
            "practiceLambda": 5,
            "trialLambda": 21.9,
            "instructedLambda": "dishonest_big",
            "drawnRed": 98,
            "reportedRed": 100,
            "inferredRed": 46,
            "playerTrialScore": -52,
            "oppTrialScore": 0,
            "playerTotalScore": -1157,
            "oppTotalScore": 795,
            "waitTime": 6683.423428485335,
            "responseTime": 1680996159972,
            "catchQuestion": "How many <b class=\"r\">red<\/b> marbles did your opponent report drawing? ",
            "catchKey": -1,
            "catchResponse": -1,
            "catchTime": 1680995867866,
            "trialTime": 0
        },
        {
            "exptPart": "trial",
            "trialNumber": 58,
            "roleCurrent": "receiver",
            "marblesSampled": 100,
            "probRed": 0.5,
            "practiceLambda": 5,
            "trialLambda": 21.9,
            "instructedLambda": "dishonest_big",
            "drawnRed": 52,
            "reportedRed": 75,
            "inferredRed": 42,
            "playerTrialScore": -10,
            "oppTrialScore": 0,
            "playerTotalScore": -1167,
            "oppTotalScore": 795,
            "waitTime": 5175.3287432370535,
            "responseTime": 1680996177174,
            "catchQuestion": "How many <b class=\"r\">red<\/b> marbles did your opponent report drawing? ",
            "catchKey": -1,
            "catchResponse": -1,
            "catchTime": 1680995867866,
            "trialTime": 0
        },
        {
            "exptPart": "trial",
            "trialNumber": 59,
            "roleCurrent": "receiver",
            "marblesSampled": 100,
            "probRed": 0.5,
            "practiceLambda": 5,
            "trialLambda": 21.9,
            "instructedLambda": "dishonest_big",
            "drawnRed": 48,
            "reportedRed": 75,
            "inferredRed": 24,
            "playerTrialScore": -24,
            "oppTrialScore": 0,
            "playerTotalScore": -1191,
            "oppTotalScore": 795,
            "waitTime": 6352.742924428139,
            "responseTime": 1680996191262,
            "catchQuestion": "How many <b class=\"r\">red<\/b> marbles did your opponent report drawing? ",
            "catchKey": -1,
            "catchResponse": -1,
            "catchTime": 1680995867866,
            "trialTime": 0
        },
        {
            "exptPart": "trial",
            "trialNumber": 60,
            "roleCurrent": "receiver",
            "marblesSampled": 100,
            "probRed": 0.5,
            "practiceLambda": 5,
            "trialLambda": 21.9,
            "instructedLambda": "dishonest_big",
            "drawnRed": 21,
            "reportedRed": 41,
            "inferredRed": 21,
            "playerTrialScore": 0,
            "oppTrialScore": 0,
            "playerTotalScore": -1191,
            "oppTotalScore": 795,
            "waitTime": 6583.3703626809565,
            "responseTime": 1680996238690,
            "catchQuestion": "How many <b class=\"r\">red<\/b> marbles did your opponent report drawing? ",
            "catchKey": -1,
            "catchResponse": -1,
            "catchTime": 1680996238690,
            "trialTime": 0
        },
        {
            "exptPart": "trial",
            "trialNumber": 61,
            "roleCurrent": "receiver",
            "marblesSampled": 100,
            "probRed": 0.5,
            "practiceLambda": 5,
            "trialLambda": 21.9,
            "instructedLambda": "dishonest_big",
            "drawnRed": 53,
            "reportedRed": 77,
            "inferredRed": 98,
            "playerTrialScore": -45,
            "oppTrialScore": 45,
            "playerTotalScore": -1236,
            "oppTotalScore": 840,
            "waitTime": 5312.781729741178,
            "responseTime": 1680996256241,
            "catchQuestion": "How many <b class=\"r\">red<\/b> marbles did your opponent report drawing? ",
            "catchKey": -1,
            "catchResponse": -1,
            "catchTime": 1680996238690,
            "trialTime": 0
        },
        {
            "exptPart": "trial",
            "trialNumber": 62,
            "roleCurrent": "receiver",
            "marblesSampled": 100,
            "probRed": 0.5,
            "practiceLambda": 5,
            "trialLambda": 21.9,
            "instructedLambda": "dishonest_big",
            "drawnRed": 35,
            "reportedRed": 55,
            "inferredRed": 79,
            "playerTrialScore": -44,
            "oppTrialScore": 44,
            "playerTotalScore": -1280,
            "oppTotalScore": 884,
            "waitTime": 5328.259018310842,
            "responseTime": 1680996268839,
            "catchQuestion": "How many <b class=\"r\">red<\/b> marbles did your opponent report drawing? ",
            "catchKey": -1,
            "catchResponse": -1,
            "catchTime": 1680996238690,
            "trialTime": 0
        },
        {
            "exptPart": "trial",
            "trialNumber": 63,
            "roleCurrent": "receiver",
            "marblesSampled": 100,
            "probRed": 0.5,
            "practiceLambda": 5,
            "trialLambda": 21.9,
            "instructedLambda": "dishonest_big",
            "drawnRed": 34,
            "reportedRed": 50,
            "inferredRed": 88,
            "playerTrialScore": -54,
            "oppTrialScore": 54,
            "playerTotalScore": -1334,
            "oppTotalScore": 938,
            "waitTime": 6830.758527348671,
            "responseTime": 1680996281022,
            "catchQuestion": "How many <b class=\"r\">red<\/b> marbles did your opponent report drawing? ",
            "catchKey": -1,
            "catchResponse": -1,
            "catchTime": 1680996238690,
            "trialTime": 0
        },
        {
            "exptPart": "trial",
            "trialNumber": 64,
            "roleCurrent": "receiver",
            "marblesSampled": 100,
            "probRed": 0.5,
            "practiceLambda": 5,
            "trialLambda": 21.9,
            "instructedLambda": "dishonest_big",
            "drawnRed": 32,
            "reportedRed": 58,
            "inferredRed": 77,
            "playerTrialScore": -45,
            "oppTrialScore": 45,
            "playerTotalScore": -1379,
            "oppTotalScore": 983,
            "waitTime": 6012.824869210443,
            "responseTime": 1680996297507,
            "catchQuestion": "How many <b class=\"r\">red<\/b> marbles did your opponent report drawing? ",
            "catchKey": -1,
            "catchResponse": -1,
            "catchTime": 1680996238690,
            "trialTime": 0
        },
        {
            "exptPart": "trial",
            "trialNumber": 65,
            "roleCurrent": "receiver",
            "marblesSampled": 100,
            "probRed": 0.5,
            "practiceLambda": 5,
            "trialLambda": 21.9,
            "instructedLambda": "dishonest_big",
            "drawnRed": 76,
            "reportedRed": 100,
            "inferredRed": 100,
            "playerTrialScore": -24,
            "oppTrialScore": 24,
            "playerTotalScore": -1403,
            "oppTotalScore": 1007,
            "waitTime": 5816.259045091701,
            "responseTime": 1680996318401,
            "catchQuestion": "How many <b class=\"r\">red<\/b> marbles did your opponent report drawing? ",
            "catchKey": 100,
            "catchResponse": 100,
            "catchTime": 1680996318401,
            "trialTime": 0
        },
        {
            "exptPart": "trial",
            "trialNumber": 66,
            "roleCurrent": "receiver",
            "marblesSampled": 100,
            "probRed": 0.5,
            "practiceLambda": 5,
            "trialLambda": 21.9,
            "instructedLambda": "dishonest_big",
            "drawnRed": 54,
            "reportedRed": 67,
            "inferredRed": 88,
            "playerTrialScore": -34,
            "oppTrialScore": 34,
            "playerTotalScore": -1437,
            "oppTotalScore": 1041,
            "waitTime": 6489.364245279584,
            "responseTime": 1680996348432,
            "catchQuestion": "How many <b class=\"r\">red<\/b> marbles did your opponent report drawing? ",
            "catchKey": -1,
            "catchResponse": -1,
            "catchTime": 1680996318401,
            "trialTime": 0
        },
        {
            "exptPart": "trial",
            "trialNumber": 67,
            "roleCurrent": "receiver",
            "marblesSampled": 100,
            "probRed": 0.5,
            "practiceLambda": 5,
            "trialLambda": 21.9,
            "instructedLambda": "dishonest_big",
            "drawnRed": 72,
            "reportedRed": 96,
            "inferredRed": 100,
            "playerTrialScore": -28,
            "oppTrialScore": 28,
            "playerTotalScore": -1465,
            "oppTotalScore": 1069,
            "waitTime": 6486.1713161685575,
            "responseTime": 1680996377262,
            "catchQuestion": "How many <b class=\"r\">red<\/b> marbles did your opponent report drawing? ",
            "catchKey": -1,
            "catchResponse": -1,
            "catchTime": 1680996318401,
            "trialTime": 0
        },
        {
            "exptPart": "trial",
            "trialNumber": 68,
            "roleCurrent": "receiver",
            "marblesSampled": 100,
            "probRed": 0.5,
            "practiceLambda": 5,
            "trialLambda": 21.9,
            "instructedLambda": "dishonest_big",
            "drawnRed": 58,
            "reportedRed": 78,
            "inferredRed": 89,
            "playerTrialScore": -31,
            "oppTrialScore": 31,
            "playerTotalScore": -1496,
            "oppTotalScore": 1100,
            "waitTime": 6532.31597340334,
            "responseTime": 1680996432217,
            "catchQuestion": "How many <b class=\"r\">red<\/b> marbles did your opponent report drawing? ",
            "catchKey": -1,
            "catchResponse": -1,
            "catchTime": 1680996318401,
            "trialTime": 0
        },
        {
            "exptPart": "trial",
            "trialNumber": 69,
            "roleCurrent": "receiver",
            "marblesSampled": 100,
            "probRed": 0.5,
            "practiceLambda": 5,
            "trialLambda": 21.9,
            "instructedLambda": "dishonest_big",
            "drawnRed": 91,
            "reportedRed": 100,
            "inferredRed": 99,
            "playerTrialScore": -8,
            "oppTrialScore": 8,
            "playerTotalScore": -1504,
            "oppTotalScore": 1108,
            "waitTime": 6626.1326586505365,
            "responseTime": 1680996445964,
            "catchQuestion": "How many <b class=\"r\">red<\/b> marbles did your opponent report drawing? ",
            "catchKey": -1,
            "catchResponse": -1,
            "catchTime": 1680996318401,
            "trialTime": 0
        },
        {
            "exptPart": "trial",
            "trialNumber": 70,
            "roleCurrent": "receiver",
            "marblesSampled": 100,
            "probRed": 0.5,
            "practiceLambda": 5,
            "trialLambda": 21.9,
            "instructedLambda": "dishonest_big",
            "drawnRed": 58,
            "reportedRed": 84,
            "inferredRed": 88,
            "playerTrialScore": -30,
            "oppTrialScore": 30,
            "playerTotalScore": -1534,
            "oppTotalScore": 1138,
            "waitTime": 5912.476908488049,
            "responseTime": 1680996462463,
            "catchQuestion": "How many <b class=\"r\">red<\/b> marbles did your opponent report drawing? ",
            "catchKey": -1,
            "catchResponse": -1,
            "catchTime": 1680996462463,
            "trialTime": 0
        },
        {
            "exptPart": "trial",
            "trialNumber": 71,
            "roleCurrent": "receiver",
            "marblesSampled": 100,
            "probRed": 0.5,
            "practiceLambda": 5,
            "trialLambda": 21.9,
            "instructedLambda": "dishonest_big",
            "drawnRed": 23,
            "reportedRed": 49,
            "inferredRed": 70,
            "playerTrialScore": -47,
            "oppTrialScore": 47,
            "playerTotalScore": -1581,
            "oppTotalScore": 1185,
            "waitTime": 5727.803931666609,
            "responseTime": 1680996515160,
            "catchQuestion": "How many <b class=\"r\">red<\/b> marbles did your opponent report drawing? ",
            "catchKey": -1,
            "catchResponse": -1,
            "catchTime": 1680996462463,
            "trialTime": 0
        },
        {
            "exptPart": "trial",
            "trialNumber": 72,
            "roleCurrent": "receiver",
            "marblesSampled": 100,
            "probRed": 0.5,
            "practiceLambda": 5,
            "trialLambda": 21.9,
            "instructedLambda": "dishonest_big",
            "drawnRed": 48,
            "reportedRed": 72,
            "inferredRed": 75,
            "playerTrialScore": -27,
            "oppTrialScore": 27,
            "playerTotalScore": -1608,
            "oppTotalScore": 1212,
            "waitTime": 6351.030525431996,
            "responseTime": 1680996532177,
            "catchQuestion": "How many <b class=\"r\">red<\/b> marbles did your opponent report drawing? ",
            "catchKey": -1,
            "catchResponse": -1,
            "catchTime": 1680996462463,
            "trialTime": 0
        },
        {
            "exptPart": "trial",
            "trialNumber": 73,
            "roleCurrent": "receiver",
            "marblesSampled": 100,
            "probRed": 0.5,
            "practiceLambda": 5,
            "trialLambda": 21.9,
            "instructedLambda": "dishonest_big",
            "drawnRed": 56,
            "reportedRed": 78,
            "inferredRed": 82,
            "playerTrialScore": -26,
            "oppTrialScore": 26,
            "playerTotalScore": -1634,
            "oppTotalScore": 1238,
            "waitTime": 7100.9553016762975,
            "responseTime": 1680996545691,
            "catchQuestion": "How many <b class=\"r\">red<\/b> marbles did your opponent report drawing? ",
            "catchKey": 78,
            "catchResponse": 78,
            "catchTime": 1680996545691,
            "trialTime": 0
        },
        {
            "exptPart": "trial",
            "trialNumber": 74,
            "roleCurrent": "receiver",
            "marblesSampled": 100,
            "probRed": 0.5,
            "practiceLambda": 5,
            "trialLambda": 21.9,
            "instructedLambda": "dishonest_big",
            "drawnRed": 28,
            "reportedRed": 44,
            "inferredRed": 74,
            "playerTrialScore": -46,
            "oppTrialScore": 46,
            "playerTotalScore": -1680,
            "oppTotalScore": 1284,
            "waitTime": 5296.352016877929,
            "responseTime": 1680996564452,
            "catchQuestion": "How many <b class=\"r\">red<\/b> marbles did your opponent report drawing? ",
            "catchKey": -1,
            "catchResponse": -1,
            "catchTime": 1680996545691,
            "trialTime": 0
        },
        {
            "exptPart": "trial",
            "trialNumber": 75,
            "roleCurrent": "receiver",
            "marblesSampled": 100,
            "probRed": 0.5,
            "practiceLambda": 5,
            "trialLambda": 21.9,
            "instructedLambda": "dishonest_big",
            "drawnRed": 80,
            "reportedRed": 100,
            "inferredRed": 88,
            "playerTrialScore": -8,
            "oppTrialScore": 8,
            "playerTotalScore": -1688,
            "oppTotalScore": 1292,
            "waitTime": 6620.541551821705,
            "responseTime": 1680996579042,
            "catchQuestion": "How many <b class=\"r\">red<\/b> marbles did your opponent report drawing? ",
            "catchKey": -1,
            "catchResponse": -1,
            "catchTime": 1680996545691,
            "trialTime": 0
        },
        {
            "exptPart": "trial",
            "trialNumber": 76,
            "roleCurrent": "receiver",
            "marblesSampled": 100,
            "probRed": 0.5,
            "practiceLambda": 5,
            "trialLambda": 21.9,
            "instructedLambda": "dishonest_big",
            "drawnRed": 40,
            "reportedRed": 62,
            "inferredRed": 76,
            "playerTrialScore": -36,
            "oppTrialScore": 36,
            "playerTotalScore": -1724,
            "oppTotalScore": 1328,
            "waitTime": 5939.733933695368,
            "responseTime": 1680996594178,
            "catchQuestion": "How many <b class=\"r\">red<\/b> marbles did your opponent report drawing? ",
            "catchKey": -1,
            "catchResponse": -1,
            "catchTime": 1680996545691,
            "trialTime": 0
        },
        {
            "exptPart": "trial",
            "trialNumber": 77,
            "roleCurrent": "receiver",
            "marblesSampled": 100,
            "probRed": 0.5,
            "practiceLambda": 5,
            "trialLambda": 21.9,
            "instructedLambda": "dishonest_big",
            "drawnRed": 65,
            "reportedRed": 91,
            "inferredRed": 89,
            "playerTrialScore": -24,
            "oppTrialScore": 24,
            "playerTotalScore": -1748,
            "oppTotalScore": 1352,
            "waitTime": 5325.860738633669,
            "responseTime": 1680996609278,
            "catchQuestion": "How many <b class=\"r\">red<\/b> marbles did your opponent report drawing? ",
            "catchKey": 91,
            "catchResponse": 91,
            "catchTime": 1680996609279,
            "trialTime": 0
        },
        {
            "exptPart": "trial",
            "trialNumber": 78,
            "roleCurrent": "receiver",
            "marblesSampled": 100,
            "probRed": 0.5,
            "practiceLambda": 5,
            "trialLambda": 21.9,
            "instructedLambda": "dishonest_big",
            "drawnRed": 33,
            "reportedRed": 58,
            "inferredRed": 79,
            "playerTrialScore": -46,
            "oppTrialScore": 46,
            "playerTotalScore": -1794,
            "oppTotalScore": 1398,
            "waitTime": 5692.700723256628,
            "responseTime": 1680996625418,
            "catchQuestion": "How many <b class=\"r\">red<\/b> marbles did your opponent report drawing? ",
            "catchKey": -1,
            "catchResponse": -1,
            "catchTime": 1680996609279,
            "trialTime": 0
        },
        {
            "exptPart": "trial",
            "trialNumber": 79,
            "roleCurrent": "receiver",
            "marblesSampled": 100,
            "probRed": 0.5,
            "practiceLambda": 5,
            "trialLambda": 21.9,
            "instructedLambda": "dishonest_big",
            "drawnRed": 45,
            "reportedRed": 66,
            "inferredRed": 73,
            "playerTrialScore": -28,
            "oppTrialScore": 28,
            "playerTotalScore": -1822,
            "oppTotalScore": 1426,
            "waitTime": 5441.235686562435,
            "responseTime": 1680996643080,
            "catchQuestion": "How many <b class=\"r\">red<\/b> marbles did your opponent report drawing? ",
            "catchKey": -1,
            "catchResponse": -1,
            "catchTime": 1680996609279,
            "trialTime": 0
        },
        {
            "exptPart": "trial",
            "trialNumber": 80,
            "roleCurrent": "receiver",
            "marblesSampled": 100,
            "probRed": 0.5,
            "practiceLambda": 5,
            "trialLambda": 21.9,
            "instructedLambda": "dishonest_big",
            "drawnRed": 73,
            "reportedRed": 95,
            "inferredRed": 89,
            "playerTrialScore": -16,
            "oppTrialScore": 16,
            "playerTotalScore": -1838,
            "oppTotalScore": 1442,
            "waitTime": 6669.803151633165,
            "responseTime": 1680996662841,
            "catchQuestion": "How many <b class=\"r\">red<\/b> marbles did your opponent report drawing? ",
            "catchKey": -1,
            "catchResponse": -1,
            "catchTime": 1680996662841,
            "trialTime": 0
        },
        {
            "exptPart": "trial",
            "trialNumber": 81,
            "roleCurrent": "receiver",
            "marblesSampled": 100,
            "probRed": 0.5,
            "practiceLambda": 5,
            "trialLambda": 21.9,
            "instructedLambda": "dishonest_big",
            "drawnRed": 56,
            "reportedRed": 76,
            "inferredRed": 80,
            "playerTrialScore": -24,
            "oppTrialScore": 24,
            "playerTotalScore": -1862,
            "oppTotalScore": 1466,
            "waitTime": 5993.576223171483,
            "responseTime": 1680996680559,
            "catchQuestion": "How many <b class=\"r\">red<\/b> marbles did your opponent report drawing? ",
            "catchKey": -1,
            "catchResponse": -1,
            "catchTime": 1680996662841,
            "trialTime": 0
        },
        {
            "exptPart": "trial",
            "trialNumber": 82,
            "roleCurrent": "receiver",
            "marblesSampled": 100,
            "probRed": 0.5,
            "practiceLambda": 5,
            "trialLambda": 21.9,
            "instructedLambda": "dishonest_big",
            "drawnRed": 52,
            "reportedRed": 61,
            "inferredRed": 65,
            "playerTrialScore": -13,
            "oppTrialScore": 13,
            "playerTotalScore": -1875,
            "oppTotalScore": 1479,
            "waitTime": 5665.826521286563,
            "responseTime": 1680996707779,
            "catchQuestion": "How many <b class=\"r\">red<\/b> marbles did your opponent report drawing? ",
            "catchKey": -1,
            "catchResponse": -1,
            "catchTime": 1680996662841,
            "trialTime": 0
        },
        {
            "exptPart": "trial",
            "trialNumber": 83,
            "roleCurrent": "receiver",
            "marblesSampled": 100,
            "probRed": 0.5,
            "practiceLambda": 5,
            "trialLambda": 21.9,
            "instructedLambda": "dishonest_big",
            "drawnRed": 72,
            "reportedRed": 94,
            "inferredRed": 90,
            "playerTrialScore": -18,
            "oppTrialScore": 18,
            "playerTotalScore": -1893,
            "oppTotalScore": 1497,
            "waitTime": 5979.126629891176,
            "responseTime": 1680996727415,
            "catchQuestion": "How many <b class=\"r\">red<\/b> marbles did your opponent report drawing? ",
            "catchKey": -1,
            "catchResponse": -1,
            "catchTime": 1680996662841,
            "trialTime": 0
        },
        {
            "exptPart": "trial",
            "trialNumber": 84,
            "roleCurrent": "receiver",
            "marblesSampled": 100,
            "probRed": 0.5,
            "practiceLambda": 5,
            "trialLambda": 21.9,
            "instructedLambda": "dishonest_big",
            "drawnRed": 31,
            "reportedRed": 50,
            "inferredRed": 55,
            "playerTrialScore": -24,
            "oppTrialScore": 24,
            "playerTotalScore": -1917,
            "oppTotalScore": 1521,
            "waitTime": 5747.328700252254,
            "responseTime": 1680996756416,
            "catchQuestion": "How many <b class=\"r\">red<\/b> marbles did your opponent report drawing? ",
            "catchKey": -1,
            "catchResponse": -1,
            "catchTime": 1680996662841,
            "trialTime": 0
        },
        {
            "exptPart": "trial",
            "trialNumber": 85,
            "roleCurrent": "receiver",
            "marblesSampled": 100,
            "probRed": 0.5,
            "practiceLambda": 5,
            "trialLambda": 21.9,
            "instructedLambda": "dishonest_big",
            "drawnRed": 55,
            "reportedRed": 71,
            "inferredRed": 72,
            "playerTrialScore": -17,
            "oppTrialScore": 17,
            "playerTotalScore": -1934,
            "oppTotalScore": 1538,
            "waitTime": 5889.822529213232,
            "responseTime": 1680996783856,
            "catchQuestion": "How many <b class=\"r\">red<\/b> marbles did your opponent report drawing? ",
            "catchKey": -1,
            "catchResponse": -1,
            "catchTime": 1680996662841,
            "trialTime": 0
        },
        {
            "exptPart": "trial",
            "trialNumber": 86,
            "roleCurrent": "receiver",
            "marblesSampled": 100,
            "probRed": 0.5,
            "practiceLambda": 5,
            "trialLambda": 21.9,
            "instructedLambda": "dishonest_big",
            "drawnRed": 25,
            "reportedRed": 41,
            "inferredRed": 46,
            "playerTrialScore": -21,
            "oppTrialScore": 21,
            "playerTotalScore": -1955,
            "oppTotalScore": 1559,
            "waitTime": 6800.836539459635,
            "responseTime": 1680996816304,
            "catchQuestion": "How many <b class=\"r\">red<\/b> marbles did your opponent report drawing? ",
            "catchKey": -1,
            "catchResponse": -1,
            "catchTime": 1680996662841,
            "trialTime": 0
        },
        {
            "exptPart": "trial",
            "trialNumber": 87,
            "roleCurrent": "receiver",
            "marblesSampled": 100,
            "probRed": 0.5,
            "practiceLambda": 5,
            "trialLambda": 21.9,
            "instructedLambda": "dishonest_big",
            "drawnRed": 42,
            "reportedRed": 63,
            "inferredRed": 68,
            "playerTrialScore": -26,
            "oppTrialScore": 26,
            "playerTotalScore": -1981,
            "oppTotalScore": 1585,
            "waitTime": 5793.312090243349,
            "responseTime": 1680996831201,
            "catchQuestion": "How many <b class=\"r\">red<\/b> marbles did your opponent report drawing? ",
            "catchKey": -1,
            "catchResponse": -1,
            "catchTime": 1680996662841,
            "trialTime": 0
        },
        {
            "exptPart": "trial",
            "trialNumber": 88,
            "roleCurrent": "receiver",
            "marblesSampled": 100,
            "probRed": 0.5,
            "practiceLambda": 5,
            "trialLambda": 21.9,
            "instructedLambda": "dishonest_big",
            "drawnRed": 51,
            "reportedRed": 80,
            "inferredRed": 83,
            "playerTrialScore": -32,
            "oppTrialScore": 32,
            "playerTotalScore": -2013,
            "oppTotalScore": 1617,
            "waitTime": 5849.8982518699995,
            "responseTime": 1680996859566,
            "catchQuestion": "How many <b class=\"r\">red<\/b> marbles did your opponent report drawing? ",
            "catchKey": -1,
            "catchResponse": -1,
            "catchTime": 1680996662841,
            "trialTime": 0
        },
        {
            "exptPart": "trial",
            "trialNumber": 89,
            "roleCurrent": "receiver",
            "marblesSampled": 100,
            "probRed": 0.5,
            "practiceLambda": 5,
            "trialLambda": 21.9,
            "instructedLambda": "dishonest_big",
            "drawnRed": 59,
            "reportedRed": 80,
            "inferredRed": 89,
            "playerTrialScore": -30,
            "oppTrialScore": 30,
            "playerTotalScore": -2043,
            "oppTotalScore": 1647,
            "waitTime": 5172.559171291925,
            "responseTime": 1680996871417,
            "catchQuestion": "How many <b class=\"r\">red<\/b> marbles did your opponent report drawing? ",
            "catchKey": -1,
            "catchResponse": -1,
            "catchTime": 1680996662841,
            "trialTime": 0
        },
        {
            "exptPart": "trial",
            "trialNumber": 90,
            "roleCurrent": "receiver",
            "marblesSampled": 100,
            "probRed": 0.5,
            "practiceLambda": 5,
            "trialLambda": 21.9,
            "instructedLambda": "dishonest_big",
            "drawnRed": 46,
            "reportedRed": 69,
            "inferredRed": 76,
            "playerTrialScore": -30,
            "oppTrialScore": 30,
            "playerTotalScore": -2073,
            "oppTotalScore": 1677,
            "waitTime": 5692.198602770865,
            "responseTime": 1680996888121,
            "catchQuestion": "How many <b class=\"r\">red<\/b> marbles did your opponent report drawing? ",
            "catchKey": -1,
            "catchResponse": -1,
            "catchTime": 1680996888121,
            "trialTime": 0
        },
        {
            "exptPart": "trial",
            "trialNumber": 91,
            "roleCurrent": "receiver",
            "marblesSampled": 100,
            "probRed": 0.5,
            "practiceLambda": 5,
            "trialLambda": 21.9,
            "instructedLambda": "dishonest_big",
            "drawnRed": 11,
            "reportedRed": 36,
            "inferredRed": 43,
            "playerTrialScore": -32,
            "oppTrialScore": 32,
            "playerTotalScore": -2105,
            "oppTotalScore": 1709,
            "waitTime": 5322.679527252989,
            "responseTime": 1680996921498,
            "catchQuestion": "How many <b class=\"r\">red<\/b> marbles did your opponent report drawing? ",
            "catchKey": -1,
            "catchResponse": -1,
            "catchTime": 1680996888121,
            "trialTime": 0
        },
        {
            "exptPart": "trial",
            "trialNumber": 92,
            "roleCurrent": "receiver",
            "marblesSampled": 100,
            "probRed": 0.5,
            "practiceLambda": 5,
            "trialLambda": 21.9,
            "instructedLambda": "dishonest_big",
            "drawnRed": 32,
            "reportedRed": 57,
            "inferredRed": 58,
            "playerTrialScore": -26,
            "oppTrialScore": 26,
            "playerTotalScore": -2131,
            "oppTotalScore": 1735,
            "waitTime": 5182.478921641738,
            "responseTime": 1680996944754,
            "catchQuestion": "How many <b class=\"r\">red<\/b> marbles did your opponent report drawing? ",
            "catchKey": -1,
            "catchResponse": -1,
            "catchTime": 1680996888121,
            "trialTime": 0
        },
        {
            "exptPart": "trial",
            "trialNumber": 93,
            "roleCurrent": "receiver",
            "marblesSampled": 100,
            "probRed": 0.5,
            "practiceLambda": 5,
            "trialLambda": 21.9,
            "instructedLambda": "dishonest_big",
            "drawnRed": 61,
            "reportedRed": 88,
            "inferredRed": 77,
            "playerTrialScore": -16,
            "oppTrialScore": 16,
            "playerTotalScore": -2147,
            "oppTotalScore": 1751,
            "waitTime": 6634.208015002819,
            "responseTime": 1680996967833,
            "catchQuestion": "How many <b class=\"r\">red<\/b> marbles did your opponent report drawing? ",
            "catchKey": -1,
            "catchResponse": -1,
            "catchTime": 1680996888121,
            "trialTime": 0
        },
        {
            "exptPart": "trial",
            "trialNumber": 94,
            "roleCurrent": "receiver",
            "marblesSampled": 100,
            "probRed": 0.5,
            "practiceLambda": 5,
            "trialLambda": 21.9,
            "instructedLambda": "dishonest_big",
            "drawnRed": 45,
            "reportedRed": 63,
            "inferredRed": 67,
            "playerTrialScore": -22,
            "oppTrialScore": 22,
            "playerTotalScore": -2169,
            "oppTotalScore": 1773,
            "waitTime": 5242.582213893045,
            "responseTime": 1680997048178,
            "catchQuestion": "How many <b class=\"r\">red<\/b> marbles did your opponent report drawing? ",
            "catchKey": -1,
            "catchResponse": -1,
            "catchTime": 1680996888121,
            "trialTime": 0
        },
        {
            "exptPart": "trial",
            "trialNumber": 95,
            "roleCurrent": "receiver",
            "marblesSampled": 100,
            "probRed": 0.5,
            "practiceLambda": 5,
            "trialLambda": 21.9,
            "instructedLambda": "dishonest_big",
            "drawnRed": 50,
            "reportedRed": 73,
            "inferredRed": 70,
            "playerTrialScore": -20,
            "oppTrialScore": 20,
            "playerTotalScore": -2189,
            "oppTotalScore": 1793,
            "waitTime": 5625.694366265887,
            "responseTime": 1680997059510,
            "catchQuestion": "How many <b class=\"r\">red<\/b> marbles did your opponent report drawing? ",
            "catchKey": -1,
            "catchResponse": -1,
            "catchTime": 1680996888121,
            "trialTime": 0
        },
        {
            "exptPart": "trial",
            "trialNumber": 96,
            "roleCurrent": "receiver",
            "marblesSampled": 100,
            "probRed": 0.5,
            "practiceLambda": 5,
            "trialLambda": 21.9,
            "instructedLambda": "dishonest_big",
            "drawnRed": 50,
            "reportedRed": 74,
            "inferredRed": 80,
            "playerTrialScore": -30,
            "oppTrialScore": 30,
            "playerTotalScore": -2219,
            "oppTotalScore": 1823,
            "waitTime": 6219.235514655703,
            "responseTime": 1680997089524,
            "catchQuestion": "How many <b class=\"r\">red<\/b> marbles did your opponent report drawing? ",
            "catchKey": 74,
            "catchResponse": 74,
            "catchTime": 1680997089524,
            "trialTime": 0
        },
        {
            "exptPart": "trial",
            "trialNumber": 97,
            "roleCurrent": "receiver",
            "marblesSampled": 100,
            "probRed": 0.5,
            "practiceLambda": 5,
            "trialLambda": 21.9,
            "instructedLambda": "dishonest_big",
            "drawnRed": 95,
            "reportedRed": 100,
            "inferredRed": 82,
            "playerTrialScore": -13,
            "oppTrialScore": 0,
            "playerTotalScore": -2232,
            "oppTotalScore": 1823,
            "waitTime": 6933.297273027871,
            "responseTime": 1680997119393,
            "catchQuestion": "How many <b class=\"r\">red<\/b> marbles did your opponent report drawing? ",
            "catchKey": -1,
            "catchResponse": -1,
            "catchTime": 1680997089524,
            "trialTime": 0
        },
        {
            "exptPart": "trial",
            "trialNumber": 98,
            "roleCurrent": "receiver",
            "marblesSampled": 100,
            "probRed": 0.5,
            "practiceLambda": 5,
            "trialLambda": 21.9,
            "instructedLambda": "dishonest_big",
            "drawnRed": 36,
            "reportedRed": 60,
            "inferredRed": 22,
            "playerTrialScore": -14,
            "oppTrialScore": 0,
            "playerTotalScore": -2246,
            "oppTotalScore": 1823,
            "waitTime": 6271.645793068397,
            "responseTime": 1680997133950,
            "catchQuestion": "How many <b class=\"r\">red<\/b> marbles did your opponent report drawing? ",
            "catchKey": 60,
            "catchResponse": 60,
            "catchTime": 1680997133950,
            "trialTime": 0
        },
        {
            "exptPart": "trial",
            "trialNumber": 99,
            "roleCurrent": "receiver",
            "marblesSampled": 100,
            "probRed": 0.5,
            "practiceLambda": 5,
            "trialLambda": 21.9,
            "instructedLambda": "dishonest_big",
            "drawnRed": 33,
            "reportedRed": 60,
            "inferredRed": 67,
            "playerTrialScore": -34,
            "oppTrialScore": 34,
            "playerTotalScore": -2280,
            "oppTotalScore": 1857,
            "waitTime": 5625.77852108325,
            "responseTime": 1680997154755,
            "catchQuestion": "How many <b class=\"r\">red<\/b> marbles did your opponent report drawing? ",
            "catchKey": -1,
            "catchResponse": -1,
            "catchTime": 1680997133950,
            "trialTime": 0
        },
        {
            "exptPart": "trial",
            "trialNumber": 100,
            "roleCurrent": "receiver",
            "marblesSampled": 100,
            "probRed": 0.5,
            "practiceLambda": 5,
            "trialLambda": 21.9,
            "instructedLambda": "dishonest_big",
            "drawnRed": 54,
            "reportedRed": 68,
            "inferredRed": 55,
            "playerTrialScore": -1,
            "oppTrialScore": 1,
            "playerTotalScore": -2281,
            "oppTotalScore": 1858,
            "waitTime": 5722.68481466662,
            "responseTime": 1680997168426,
            "catchQuestion": "How many <b class=\"r\">red<\/b> marbles did your opponent report drawing? ",
            "catchKey": -1,
            "catchResponse": -1,
            "catchTime": 1680997168426,
            "trialTime": 0
        }
    ]
}