{
    "client": {
        "type": "sona",
        "experiment_id": 2228,
        "credit_token": "b315147ae43241ea9c65086cb510cfb7",
        "survey_code": "42812",
        "sid": "sona-42812",
        "window": {
            "width": 1714,
            "height": 1000
        },
        "screen": {
            "width": 2560,
            "height": 1440
        },
        "userAgent": "Mozilla\/5.0 (Windows NT 10.0; Win64; x64) AppleWebKit\/537.36 (KHTML, like Gecko) Chrome\/111.0.0.0 Safari\/537.36",
        "score": 0,
        "bonus": 0
    },
    "expt": {
        "saveURL": "submit.simple.php",
        "trials": 100,
        "practiceTrials": 2,
        "marblesSampled": 100,
        "probRed": 0.5,
        "practiceLambdaAI": 5,
        "lambdaAI": 8.1,
        "roles": [
            "sender",
            "receiver"
        ],
        "cost": "unif",
        "goal": "over",
        "oppDishonesty": "honest",
        "catchTrials": [
            24,
            50,
            20,
            18,
            41,
            11,
            46,
            45,
            22,
            63
        ],
        "scoreTotal": {
            "player": -1012,
            "opp": 1012
        },
        "sona": {
            "experiment_id": 2228,
            "credit_token": "b315147ae43241ea9c65086cb510cfb7"
        },
        "pilot": false,
        "debug": false
    },
    "trials": [
        {
            "exptPart": "practice",
            "trialNumber": 1,
            "roleCurrent": "sender",
            "marblesSampled": 100,
            "probRed": 0.5,
            "practiceLambda": 5,
            "trialLambda": 8.1,
            "instructedLambda": "honest",
            "drawnRed": 78,
            "reportedRed": 78,
            "inferredRed": 73,
            "playerTrialScore": 0,
            "oppTrialScore": -5,
            "playerTotalScore": 0,
            "oppTotalScore": -5,
            "waitTime": 2670.678414234329,
            "responseTime": 1680853089073,
            "catchQuestion": "How many <b class=\"r\">red<\/b> marbles did you actually draw (before any changes)? ",
            "catchKey": 78,
            "catchResponse": 78,
            "catchTime": 1680853089074,
            "trialTime": 0
        },
        {
            "exptPart": "practice",
            "trialNumber": 2,
            "roleCurrent": "receiver",
            "marblesSampled": 100,
            "probRed": 0.5,
            "practiceLambda": 5,
            "trialLambda": 8.1,
            "instructedLambda": "honest",
            "drawnRed": 43,
            "reportedRed": 50,
            "inferredRed": 50,
            "playerTrialScore": -7,
            "oppTrialScore": 7,
            "playerTotalScore": -7,
            "oppTotalScore": 2,
            "waitTime": 6832.540805120831,
            "responseTime": 1680853122273,
            "catchQuestion": "How many <b class=\"r\">red<\/b> marbles did your opponent report drawing? ",
            "catchKey": 50,
            "catchResponse": 50,
            "catchTime": 1680853122273,
            "trialTime": 0
        },
        {
            "exptPart": "trial",
            "trialNumber": 1,
            "roleCurrent": "receiver",
            "marblesSampled": 100,
            "probRed": 0.5,
            "practiceLambda": 5,
            "trialLambda": 8.1,
            "instructedLambda": "honest",
            "drawnRed": 36,
            "reportedRed": 42,
            "inferredRed": 40,
            "playerTrialScore": -4,
            "oppTrialScore": 4,
            "playerTotalScore": -4,
            "oppTotalScore": 4,
            "waitTime": 6221.6059073588385,
            "responseTime": 1680853211479,
            "catchQuestion": "How many <b class=\"r\">red<\/b> marbles did your opponent report drawing? ",
            "catchKey": -1,
            "catchResponse": -1,
            "catchTime": 1680853122273,
            "trialTime": 0
        },
        {
            "exptPart": "trial",
            "trialNumber": 2,
            "roleCurrent": "receiver",
            "marblesSampled": 100,
            "probRed": 0.5,
            "practiceLambda": 5,
            "trialLambda": 8.1,
            "instructedLambda": "honest",
            "drawnRed": 33,
            "reportedRed": 41,
            "inferredRed": 39,
            "playerTrialScore": -6,
            "oppTrialScore": 6,
            "playerTotalScore": -10,
            "oppTotalScore": 10,
            "waitTime": 6731.178530773792,
            "responseTime": 1680853227899,
            "catchQuestion": "How many <b class=\"r\">red<\/b> marbles did your opponent report drawing? ",
            "catchKey": -1,
            "catchResponse": -1,
            "catchTime": 1680853122273,
            "trialTime": 0
        },
        {
            "exptPart": "trial",
            "trialNumber": 3,
            "roleCurrent": "receiver",
            "marblesSampled": 100,
            "probRed": 0.5,
            "practiceLambda": 5,
            "trialLambda": 8.1,
            "instructedLambda": "honest",
            "drawnRed": 56,
            "reportedRed": 67,
            "inferredRed": 70,
            "playerTrialScore": -14,
            "oppTrialScore": 14,
            "playerTotalScore": -24,
            "oppTotalScore": 24,
            "waitTime": 7483.689656355668,
            "responseTime": 1680853249831,
            "catchQuestion": "How many <b class=\"r\">red<\/b> marbles did your opponent report drawing? ",
            "catchKey": -1,
            "catchResponse": -1,
            "catchTime": 1680853122273,
            "trialTime": 0
        },
        {
            "exptPart": "trial",
            "trialNumber": 4,
            "roleCurrent": "receiver",
            "marblesSampled": 100,
            "probRed": 0.5,
            "practiceLambda": 5,
            "trialLambda": 8.1,
            "instructedLambda": "honest",
            "drawnRed": 20,
            "reportedRed": 26,
            "inferredRed": 26,
            "playerTrialScore": -6,
            "oppTrialScore": 6,
            "playerTotalScore": -30,
            "oppTotalScore": 30,
            "waitTime": 6579.468865988501,
            "responseTime": 1680853263944,
            "catchQuestion": "How many <b class=\"r\">red<\/b> marbles did your opponent report drawing? ",
            "catchKey": -1,
            "catchResponse": -1,
            "catchTime": 1680853122273,
            "trialTime": 0
        },
        {
            "exptPart": "trial",
            "trialNumber": 5,
            "roleCurrent": "receiver",
            "marblesSampled": 100,
            "probRed": 0.5,
            "practiceLambda": 5,
            "trialLambda": 8.1,
            "instructedLambda": "honest",
            "drawnRed": 50,
            "reportedRed": 63,
            "inferredRed": 80,
            "playerTrialScore": -30,
            "oppTrialScore": 30,
            "playerTotalScore": -60,
            "oppTotalScore": 60,
            "waitTime": 5761.845898758511,
            "responseTime": 1680853274797,
            "catchQuestion": "How many <b class=\"r\">red<\/b> marbles did your opponent report drawing? ",
            "catchKey": -1,
            "catchResponse": -1,
            "catchTime": 1680853122273,
            "trialTime": 0
        },
        {
            "exptPart": "trial",
            "trialNumber": 6,
            "roleCurrent": "receiver",
            "marblesSampled": 100,
            "probRed": 0.5,
            "practiceLambda": 5,
            "trialLambda": 8.1,
            "instructedLambda": "honest",
            "drawnRed": 47,
            "reportedRed": 57,
            "inferredRed": 67,
            "playerTrialScore": -20,
            "oppTrialScore": 20,
            "playerTotalScore": -80,
            "oppTotalScore": 80,
            "waitTime": 5425.267737798824,
            "responseTime": 1680853288170,
            "catchQuestion": "How many <b class=\"r\">red<\/b> marbles did your opponent report drawing? ",
            "catchKey": -1,
            "catchResponse": -1,
            "catchTime": 1680853122273,
            "trialTime": 0
        },
        {
            "exptPart": "trial",
            "trialNumber": 7,
            "roleCurrent": "receiver",
            "marblesSampled": 100,
            "probRed": 0.5,
            "practiceLambda": 5,
            "trialLambda": 8.1,
            "instructedLambda": "honest",
            "drawnRed": 67,
            "reportedRed": 70,
            "inferredRed": 80,
            "playerTrialScore": -13,
            "oppTrialScore": 13,
            "playerTotalScore": -93,
            "oppTotalScore": 93,
            "waitTime": 5949.668664902922,
            "responseTime": 1680853298417,
            "catchQuestion": "How many <b class=\"r\">red<\/b> marbles did your opponent report drawing? ",
            "catchKey": -1,
            "catchResponse": -1,
            "catchTime": 1680853122273,
            "trialTime": 0
        },
        {
            "exptPart": "trial",
            "trialNumber": 8,
            "roleCurrent": "receiver",
            "marblesSampled": 100,
            "probRed": 0.5,
            "practiceLambda": 5,
            "trialLambda": 8.1,
            "instructedLambda": "honest",
            "drawnRed": 46,
            "reportedRed": 55,
            "inferredRed": 55,
            "playerTrialScore": -9,
            "oppTrialScore": 9,
            "playerTotalScore": -102,
            "oppTotalScore": 102,
            "waitTime": 5686.275478897335,
            "responseTime": 1680853309943,
            "catchQuestion": "How many <b class=\"r\">red<\/b> marbles did your opponent report drawing? ",
            "catchKey": -1,
            "catchResponse": -1,
            "catchTime": 1680853122273,
            "trialTime": 0
        },
        {
            "exptPart": "trial",
            "trialNumber": 9,
            "roleCurrent": "receiver",
            "marblesSampled": 100,
            "probRed": 0.5,
            "practiceLambda": 5,
            "trialLambda": 8.1,
            "instructedLambda": "honest",
            "drawnRed": 65,
            "reportedRed": 74,
            "inferredRed": 80,
            "playerTrialScore": -15,
            "oppTrialScore": 15,
            "playerTotalScore": -117,
            "oppTotalScore": 117,
            "waitTime": 6424.737151416011,
            "responseTime": 1680853322114,
            "catchQuestion": "How many <b class=\"r\">red<\/b> marbles did your opponent report drawing? ",
            "catchKey": -1,
            "catchResponse": -1,
            "catchTime": 1680853122273,
            "trialTime": 0
        },
        {
            "exptPart": "trial",
            "trialNumber": 10,
            "roleCurrent": "receiver",
            "marblesSampled": 100,
            "probRed": 0.5,
            "practiceLambda": 5,
            "trialLambda": 8.1,
            "instructedLambda": "honest",
            "drawnRed": 68,
            "reportedRed": 77,
            "inferredRed": 83,
            "playerTrialScore": -15,
            "oppTrialScore": 15,
            "playerTotalScore": -132,
            "oppTotalScore": 132,
            "waitTime": 6879.4395063565935,
            "responseTime": 1680853337768,
            "catchQuestion": "How many <b class=\"r\">red<\/b> marbles did your opponent report drawing? ",
            "catchKey": -1,
            "catchResponse": -1,
            "catchTime": 1680853337768,
            "trialTime": 0
        },
        {
            "exptPart": "trial",
            "trialNumber": 11,
            "roleCurrent": "receiver",
            "marblesSampled": 100,
            "probRed": 0.5,
            "practiceLambda": 5,
            "trialLambda": 8.1,
            "instructedLambda": "honest",
            "drawnRed": 44,
            "reportedRed": 53,
            "inferredRed": 50,
            "playerTrialScore": -6,
            "oppTrialScore": 6,
            "playerTotalScore": -138,
            "oppTotalScore": 138,
            "waitTime": 6744.48688011145,
            "responseTime": 1680853354028,
            "catchQuestion": "How many <b class=\"r\">red<\/b> marbles did your opponent report drawing? ",
            "catchKey": -1,
            "catchResponse": -1,
            "catchTime": 1680853337768,
            "trialTime": 0
        },
        {
            "exptPart": "trial",
            "trialNumber": 12,
            "roleCurrent": "receiver",
            "marblesSampled": 100,
            "probRed": 0.5,
            "practiceLambda": 5,
            "trialLambda": 8.1,
            "instructedLambda": "honest",
            "drawnRed": 92,
            "reportedRed": 97,
            "inferredRed": 97,
            "playerTrialScore": -5,
            "oppTrialScore": 5,
            "playerTotalScore": -143,
            "oppTotalScore": 143,
            "waitTime": 5602.521128478547,
            "responseTime": 1680853364673,
            "catchQuestion": "How many <b class=\"r\">red<\/b> marbles did your opponent report drawing? ",
            "catchKey": 97,
            "catchResponse": 97,
            "catchTime": 1680853364673,
            "trialTime": 0
        },
        {
            "exptPart": "trial",
            "trialNumber": 13,
            "roleCurrent": "receiver",
            "marblesSampled": 100,
            "probRed": 0.5,
            "practiceLambda": 5,
            "trialLambda": 8.1,
            "instructedLambda": "honest",
            "drawnRed": 27,
            "reportedRed": 35,
            "inferredRed": 35,
            "playerTrialScore": -8,
            "oppTrialScore": 8,
            "playerTotalScore": -151,
            "oppTotalScore": 151,
            "waitTime": 5528.470078923932,
            "responseTime": 1680853379099,
            "catchQuestion": "How many <b class=\"r\">red<\/b> marbles did your opponent report drawing? ",
            "catchKey": -1,
            "catchResponse": -1,
            "catchTime": 1680853364673,
            "trialTime": 0
        },
        {
            "exptPart": "trial",
            "trialNumber": 14,
            "roleCurrent": "receiver",
            "marblesSampled": 100,
            "probRed": 0.5,
            "practiceLambda": 5,
            "trialLambda": 8.1,
            "instructedLambda": "honest",
            "drawnRed": 77,
            "reportedRed": 84,
            "inferredRed": 85,
            "playerTrialScore": -8,
            "oppTrialScore": 8,
            "playerTotalScore": -159,
            "oppTotalScore": 159,
            "waitTime": 5297.806662802024,
            "responseTime": 1680853393455,
            "catchQuestion": "How many <b class=\"r\">red<\/b> marbles did your opponent report drawing? ",
            "catchKey": -1,
            "catchResponse": -1,
            "catchTime": 1680853364673,
            "trialTime": 0
        },
        {
            "exptPart": "trial",
            "trialNumber": 15,
            "roleCurrent": "receiver",
            "marblesSampled": 100,
            "probRed": 0.5,
            "practiceLambda": 5,
            "trialLambda": 8.1,
            "instructedLambda": "honest",
            "drawnRed": 71,
            "reportedRed": 85,
            "inferredRed": 88,
            "playerTrialScore": -17,
            "oppTrialScore": 17,
            "playerTotalScore": -176,
            "oppTotalScore": 176,
            "waitTime": 6440.844029814771,
            "responseTime": 1680853411379,
            "catchQuestion": "How many <b class=\"r\">red<\/b> marbles did your opponent report drawing? ",
            "catchKey": -1,
            "catchResponse": -1,
            "catchTime": 1680853364673,
            "trialTime": 0
        },
        {
            "exptPart": "trial",
            "trialNumber": 16,
            "roleCurrent": "receiver",
            "marblesSampled": 100,
            "probRed": 0.5,
            "practiceLambda": 5,
            "trialLambda": 8.1,
            "instructedLambda": "honest",
            "drawnRed": 57,
            "reportedRed": 62,
            "inferredRed": 60,
            "playerTrialScore": -3,
            "oppTrialScore": 3,
            "playerTotalScore": -179,
            "oppTotalScore": 179,
            "waitTime": 5859.884859693777,
            "responseTime": 1680853422543,
            "catchQuestion": "How many <b class=\"r\">red<\/b> marbles did your opponent report drawing? ",
            "catchKey": -1,
            "catchResponse": -1,
            "catchTime": 1680853364673,
            "trialTime": 0
        },
        {
            "exptPart": "trial",
            "trialNumber": 17,
            "roleCurrent": "receiver",
            "marblesSampled": 100,
            "probRed": 0.5,
            "practiceLambda": 5,
            "trialLambda": 8.1,
            "instructedLambda": "honest",
            "drawnRed": 33,
            "reportedRed": 41,
            "inferredRed": 41,
            "playerTrialScore": -8,
            "oppTrialScore": 8,
            "playerTotalScore": -187,
            "oppTotalScore": 187,
            "waitTime": 5905.266878152361,
            "responseTime": 1680853438588,
            "catchQuestion": "How many <b class=\"r\">red<\/b> marbles did your opponent report drawing? ",
            "catchKey": -1,
            "catchResponse": -1,
            "catchTime": 1680853364673,
            "trialTime": 0
        },
        {
            "exptPart": "trial",
            "trialNumber": 18,
            "roleCurrent": "receiver",
            "marblesSampled": 100,
            "probRed": 0.5,
            "practiceLambda": 5,
            "trialLambda": 8.1,
            "instructedLambda": "honest",
            "drawnRed": 36,
            "reportedRed": 39,
            "inferredRed": 43,
            "playerTrialScore": -7,
            "oppTrialScore": 7,
            "playerTotalScore": -194,
            "oppTotalScore": 194,
            "waitTime": 5234.402934820945,
            "responseTime": 1680853454024,
            "catchQuestion": "How many <b class=\"r\">red<\/b> marbles did your opponent report drawing? ",
            "catchKey": -1,
            "catchResponse": -1,
            "catchTime": 1680853364673,
            "trialTime": 0
        },
        {
            "exptPart": "trial",
            "trialNumber": 19,
            "roleCurrent": "receiver",
            "marblesSampled": 100,
            "probRed": 0.5,
            "practiceLambda": 5,
            "trialLambda": 8.1,
            "instructedLambda": "honest",
            "drawnRed": 42,
            "reportedRed": 50,
            "inferredRed": 50,
            "playerTrialScore": -8,
            "oppTrialScore": 8,
            "playerTotalScore": -202,
            "oppTotalScore": 202,
            "waitTime": 5236.678287380897,
            "responseTime": 1680853464231,
            "catchQuestion": "How many <b class=\"r\">red<\/b> marbles did your opponent report drawing? ",
            "catchKey": 50,
            "catchResponse": 50,
            "catchTime": 1680853464231,
            "trialTime": 0
        },
        {
            "exptPart": "trial",
            "trialNumber": 20,
            "roleCurrent": "receiver",
            "marblesSampled": 100,
            "probRed": 0.5,
            "practiceLambda": 5,
            "trialLambda": 8.1,
            "instructedLambda": "honest",
            "drawnRed": 68,
            "reportedRed": 70,
            "inferredRed": 75,
            "playerTrialScore": -7,
            "oppTrialScore": 7,
            "playerTotalScore": -209,
            "oppTotalScore": 209,
            "waitTime": 5730.269803767394,
            "responseTime": 1680853481757,
            "catchQuestion": "How many <b class=\"r\">red<\/b> marbles did your opponent report drawing? ",
            "catchKey": -1,
            "catchResponse": -1,
            "catchTime": 1680853481757,
            "trialTime": 0
        },
        {
            "exptPart": "trial",
            "trialNumber": 21,
            "roleCurrent": "receiver",
            "marblesSampled": 100,
            "probRed": 0.5,
            "practiceLambda": 5,
            "trialLambda": 8.1,
            "instructedLambda": "honest",
            "drawnRed": 67,
            "reportedRed": 73,
            "inferredRed": 83,
            "playerTrialScore": -16,
            "oppTrialScore": 16,
            "playerTotalScore": -225,
            "oppTotalScore": 225,
            "waitTime": 5527.587583392091,
            "responseTime": 1680853500793,
            "catchQuestion": "How many <b class=\"r\">red<\/b> marbles did your opponent report drawing? ",
            "catchKey": 73,
            "catchResponse": 73,
            "catchTime": 1680853500793,
            "trialTime": 0
        },
        {
            "exptPart": "trial",
            "trialNumber": 22,
            "roleCurrent": "receiver",
            "marblesSampled": 100,
            "probRed": 0.5,
            "practiceLambda": 5,
            "trialLambda": 8.1,
            "instructedLambda": "honest",
            "drawnRed": 84,
            "reportedRed": 94,
            "inferredRed": 94,
            "playerTrialScore": -10,
            "oppTrialScore": 10,
            "playerTotalScore": -235,
            "oppTotalScore": 235,
            "waitTime": 5191.193485910702,
            "responseTime": 1680853519042,
            "catchQuestion": "How many <b class=\"r\">red<\/b> marbles did your opponent report drawing? ",
            "catchKey": -1,
            "catchResponse": -1,
            "catchTime": 1680853500793,
            "trialTime": 0
        },
        {
            "exptPart": "trial",
            "trialNumber": 23,
            "roleCurrent": "receiver",
            "marblesSampled": 100,
            "probRed": 0.5,
            "practiceLambda": 5,
            "trialLambda": 8.1,
            "instructedLambda": "honest",
            "drawnRed": 63,
            "reportedRed": 68,
            "inferredRed": 69,
            "playerTrialScore": -6,
            "oppTrialScore": 6,
            "playerTotalScore": -241,
            "oppTotalScore": 241,
            "waitTime": 5978.271562814183,
            "responseTime": 1680853537550,
            "catchQuestion": "How many <b class=\"r\">red<\/b> marbles did your opponent report drawing? ",
            "catchKey": 68,
            "catchResponse": 68,
            "catchTime": 1680853537550,
            "trialTime": 0
        },
        {
            "exptPart": "trial",
            "trialNumber": 24,
            "roleCurrent": "receiver",
            "marblesSampled": 100,
            "probRed": 0.5,
            "practiceLambda": 5,
            "trialLambda": 8.1,
            "instructedLambda": "honest",
            "drawnRed": 35,
            "reportedRed": 40,
            "inferredRed": 40,
            "playerTrialScore": -5,
            "oppTrialScore": 5,
            "playerTotalScore": -246,
            "oppTotalScore": 246,
            "waitTime": 5850.881439997645,
            "responseTime": 1680853553185,
            "catchQuestion": "How many <b class=\"r\">red<\/b> marbles did your opponent report drawing? ",
            "catchKey": -1,
            "catchResponse": -1,
            "catchTime": 1680853537550,
            "trialTime": 0
        },
        {
            "exptPart": "trial",
            "trialNumber": 25,
            "roleCurrent": "receiver",
            "marblesSampled": 100,
            "probRed": 0.5,
            "practiceLambda": 5,
            "trialLambda": 8.1,
            "instructedLambda": "honest",
            "drawnRed": 35,
            "reportedRed": 43,
            "inferredRed": 39,
            "playerTrialScore": -4,
            "oppTrialScore": 4,
            "playerTotalScore": -250,
            "oppTotalScore": 250,
            "waitTime": 5775.7418585774285,
            "responseTime": 1680853563756,
            "catchQuestion": "How many <b class=\"r\">red<\/b> marbles did your opponent report drawing? ",
            "catchKey": 43,
            "catchResponse": 30,
            "catchTime": 1680853563756,
            "trialTime": 0
        },
        {
            "exptPart": "trial",
            "trialNumber": 26,
            "roleCurrent": "receiver",
            "marblesSampled": 100,
            "probRed": 0.5,
            "practiceLambda": 5,
            "trialLambda": 8.1,
            "instructedLambda": "honest",
            "drawnRed": 51,
            "reportedRed": 58,
            "inferredRed": 58,
            "playerTrialScore": -7,
            "oppTrialScore": 7,
            "playerTotalScore": -257,
            "oppTotalScore": 257,
            "waitTime": 5892.442458288656,
            "responseTime": 1680853599527,
            "catchQuestion": "How many <b class=\"r\">red<\/b> marbles did your opponent report drawing? ",
            "catchKey": -1,
            "catchResponse": -1,
            "catchTime": 1680853563756,
            "trialTime": 0
        },
        {
            "exptPart": "trial",
            "trialNumber": 27,
            "roleCurrent": "receiver",
            "marblesSampled": 100,
            "probRed": 0.5,
            "practiceLambda": 5,
            "trialLambda": 8.1,
            "instructedLambda": "honest",
            "drawnRed": 62,
            "reportedRed": 69,
            "inferredRed": 77,
            "playerTrialScore": -15,
            "oppTrialScore": 15,
            "playerTotalScore": -272,
            "oppTotalScore": 272,
            "waitTime": 7266.618238410126,
            "responseTime": 1680853611688,
            "catchQuestion": "How many <b class=\"r\">red<\/b> marbles did your opponent report drawing? ",
            "catchKey": -1,
            "catchResponse": -1,
            "catchTime": 1680853563756,
            "trialTime": 0
        },
        {
            "exptPart": "trial",
            "trialNumber": 28,
            "roleCurrent": "receiver",
            "marblesSampled": 100,
            "probRed": 0.5,
            "practiceLambda": 5,
            "trialLambda": 8.1,
            "instructedLambda": "honest",
            "drawnRed": 67,
            "reportedRed": 80,
            "inferredRed": 81,
            "playerTrialScore": -14,
            "oppTrialScore": 14,
            "playerTotalScore": -286,
            "oppTotalScore": 286,
            "waitTime": 7401.698657310995,
            "responseTime": 1680853632816,
            "catchQuestion": "How many <b class=\"r\">red<\/b> marbles did your opponent report drawing? ",
            "catchKey": -1,
            "catchResponse": -1,
            "catchTime": 1680853563756,
            "trialTime": 0
        },
        {
            "exptPart": "trial",
            "trialNumber": 29,
            "roleCurrent": "receiver",
            "marblesSampled": 100,
            "probRed": 0.5,
            "practiceLambda": 5,
            "trialLambda": 8.1,
            "instructedLambda": "honest",
            "drawnRed": 56,
            "reportedRed": 67,
            "inferredRed": 73,
            "playerTrialScore": -17,
            "oppTrialScore": 17,
            "playerTotalScore": -303,
            "oppTotalScore": 303,
            "waitTime": 5734.682496030329,
            "responseTime": 1680853644024,
            "catchQuestion": "How many <b class=\"r\">red<\/b> marbles did your opponent report drawing? ",
            "catchKey": -1,
            "catchResponse": -1,
            "catchTime": 1680853563756,
            "trialTime": 0
        },
        {
            "exptPart": "trial",
            "trialNumber": 30,
            "roleCurrent": "receiver",
            "marblesSampled": 100,
            "probRed": 0.5,
            "practiceLambda": 5,
            "trialLambda": 8.1,
            "instructedLambda": "honest",
            "drawnRed": 56,
            "reportedRed": 67,
            "inferredRed": 70,
            "playerTrialScore": -14,
            "oppTrialScore": 14,
            "playerTotalScore": -317,
            "oppTotalScore": 317,
            "waitTime": 5140.932121306592,
            "responseTime": 1680853673229,
            "catchQuestion": "How many <b class=\"r\">red<\/b> marbles did your opponent report drawing? ",
            "catchKey": -1,
            "catchResponse": -1,
            "catchTime": 1680853673229,
            "trialTime": 0
        },
        {
            "exptPart": "trial",
            "trialNumber": 31,
            "roleCurrent": "receiver",
            "marblesSampled": 100,
            "probRed": 0.5,
            "practiceLambda": 5,
            "trialLambda": 8.1,
            "instructedLambda": "honest",
            "drawnRed": 40,
            "reportedRed": 50,
            "inferredRed": 50,
            "playerTrialScore": -10,
            "oppTrialScore": 10,
            "playerTotalScore": -327,
            "oppTotalScore": 327,
            "waitTime": 6643.02482765139,
            "responseTime": 1680853688150,
            "catchQuestion": "How many <b class=\"r\">red<\/b> marbles did your opponent report drawing? ",
            "catchKey": -1,
            "catchResponse": -1,
            "catchTime": 1680853673229,
            "trialTime": 0
        },
        {
            "exptPart": "trial",
            "trialNumber": 32,
            "roleCurrent": "receiver",
            "marblesSampled": 100,
            "probRed": 0.5,
            "practiceLambda": 5,
            "trialLambda": 8.1,
            "instructedLambda": "honest",
            "drawnRed": 56,
            "reportedRed": 68,
            "inferredRed": 70,
            "playerTrialScore": -14,
            "oppTrialScore": 14,
            "playerTotalScore": -341,
            "oppTotalScore": 341,
            "waitTime": 5869.187430295817,
            "responseTime": 1680853697363,
            "catchQuestion": "How many <b class=\"r\">red<\/b> marbles did your opponent report drawing? ",
            "catchKey": -1,
            "catchResponse": -1,
            "catchTime": 1680853673229,
            "trialTime": 0
        },
        {
            "exptPart": "trial",
            "trialNumber": 33,
            "roleCurrent": "receiver",
            "marblesSampled": 100,
            "probRed": 0.5,
            "practiceLambda": 5,
            "trialLambda": 8.1,
            "instructedLambda": "honest",
            "drawnRed": 67,
            "reportedRed": 71,
            "inferredRed": 72,
            "playerTrialScore": -5,
            "oppTrialScore": 5,
            "playerTotalScore": -346,
            "oppTotalScore": 346,
            "waitTime": 6087.169934084535,
            "responseTime": 1680853706887,
            "catchQuestion": "How many <b class=\"r\">red<\/b> marbles did your opponent report drawing? ",
            "catchKey": -1,
            "catchResponse": -1,
            "catchTime": 1680853673229,
            "trialTime": 0
        },
        {
            "exptPart": "trial",
            "trialNumber": 34,
            "roleCurrent": "receiver",
            "marblesSampled": 100,
            "probRed": 0.5,
            "practiceLambda": 5,
            "trialLambda": 8.1,
            "instructedLambda": "honest",
            "drawnRed": 57,
            "reportedRed": 66,
            "inferredRed": 67,
            "playerTrialScore": -10,
            "oppTrialScore": 10,
            "playerTotalScore": -356,
            "oppTotalScore": 356,
            "waitTime": 5240.678664998422,
            "responseTime": 1680853718705,
            "catchQuestion": "How many <b class=\"r\">red<\/b> marbles did your opponent report drawing? ",
            "catchKey": -1,
            "catchResponse": -1,
            "catchTime": 1680853673229,
            "trialTime": 0
        },
        {
            "exptPart": "trial",
            "trialNumber": 35,
            "roleCurrent": "receiver",
            "marblesSampled": 100,
            "probRed": 0.5,
            "practiceLambda": 5,
            "trialLambda": 8.1,
            "instructedLambda": "honest",
            "drawnRed": 56,
            "reportedRed": 67,
            "inferredRed": 75,
            "playerTrialScore": -19,
            "oppTrialScore": 19,
            "playerTotalScore": -375,
            "oppTotalScore": 375,
            "waitTime": 6693.71123339427,
            "responseTime": 1680853742166,
            "catchQuestion": "How many <b class=\"r\">red<\/b> marbles did your opponent report drawing? ",
            "catchKey": -1,
            "catchResponse": -1,
            "catchTime": 1680853673229,
            "trialTime": 0
        },
        {
            "exptPart": "trial",
            "trialNumber": 36,
            "roleCurrent": "receiver",
            "marblesSampled": 100,
            "probRed": 0.5,
            "practiceLambda": 5,
            "trialLambda": 8.1,
            "instructedLambda": "honest",
            "drawnRed": 28,
            "reportedRed": 34,
            "inferredRed": 30,
            "playerTrialScore": -2,
            "oppTrialScore": 2,
            "playerTotalScore": -377,
            "oppTotalScore": 377,
            "waitTime": 6293.728821346459,
            "responseTime": 1680853865938,
            "catchQuestion": "How many <b class=\"r\">red<\/b> marbles did your opponent report drawing? ",
            "catchKey": -1,
            "catchResponse": -1,
            "catchTime": 1680853673229,
            "trialTime": 0
        },
        {
            "exptPart": "trial",
            "trialNumber": 37,
            "roleCurrent": "receiver",
            "marblesSampled": 100,
            "probRed": 0.5,
            "practiceLambda": 5,
            "trialLambda": 8.1,
            "instructedLambda": "honest",
            "drawnRed": 75,
            "reportedRed": 79,
            "inferredRed": 79,
            "playerTrialScore": -4,
            "oppTrialScore": 4,
            "playerTotalScore": -381,
            "oppTotalScore": 381,
            "waitTime": 5280.223511580862,
            "responseTime": 1680853882349,
            "catchQuestion": "How many <b class=\"r\">red<\/b> marbles did your opponent report drawing? ",
            "catchKey": -1,
            "catchResponse": -1,
            "catchTime": 1680853673229,
            "trialTime": 0
        },
        {
            "exptPart": "trial",
            "trialNumber": 38,
            "roleCurrent": "receiver",
            "marblesSampled": 100,
            "probRed": 0.5,
            "practiceLambda": 5,
            "trialLambda": 8.1,
            "instructedLambda": "honest",
            "drawnRed": 38,
            "reportedRed": 50,
            "inferredRed": 45,
            "playerTrialScore": -7,
            "oppTrialScore": 7,
            "playerTotalScore": -388,
            "oppTotalScore": 388,
            "waitTime": 6725.521591811836,
            "responseTime": 1680853894967,
            "catchQuestion": "How many <b class=\"r\">red<\/b> marbles did your opponent report drawing? ",
            "catchKey": -1,
            "catchResponse": -1,
            "catchTime": 1680853673229,
            "trialTime": 0
        },
        {
            "exptPart": "trial",
            "trialNumber": 39,
            "roleCurrent": "receiver",
            "marblesSampled": 100,
            "probRed": 0.5,
            "practiceLambda": 5,
            "trialLambda": 8.1,
            "instructedLambda": "honest",
            "drawnRed": 48,
            "reportedRed": 66,
            "inferredRed": 66,
            "playerTrialScore": -18,
            "oppTrialScore": 18,
            "playerTotalScore": -406,
            "oppTotalScore": 406,
            "waitTime": 5633.436562218121,
            "responseTime": 1680853903398,
            "catchQuestion": "How many <b class=\"r\">red<\/b> marbles did your opponent report drawing? ",
            "catchKey": -1,
            "catchResponse": -1,
            "catchTime": 1680853673229,
            "trialTime": 0
        },
        {
            "exptPart": "trial",
            "trialNumber": 40,
            "roleCurrent": "receiver",
            "marblesSampled": 100,
            "probRed": 0.5,
            "practiceLambda": 5,
            "trialLambda": 8.1,
            "instructedLambda": "honest",
            "drawnRed": 46,
            "reportedRed": 51,
            "inferredRed": 52,
            "playerTrialScore": -6,
            "oppTrialScore": 6,
            "playerTotalScore": -412,
            "oppTotalScore": 412,
            "waitTime": 6714.413387562938,
            "responseTime": 1680853917250,
            "catchQuestion": "How many <b class=\"r\">red<\/b> marbles did your opponent report drawing? ",
            "catchKey": -1,
            "catchResponse": -1,
            "catchTime": 1680853917250,
            "trialTime": 0
        },
        {
            "exptPart": "trial",
            "trialNumber": 41,
            "roleCurrent": "receiver",
            "marblesSampled": 100,
            "probRed": 0.5,
            "practiceLambda": 5,
            "trialLambda": 8.1,
            "instructedLambda": "honest",
            "drawnRed": 50,
            "reportedRed": 56,
            "inferredRed": 59,
            "playerTrialScore": -9,
            "oppTrialScore": 9,
            "playerTotalScore": -421,
            "oppTotalScore": 421,
            "waitTime": 6851.325123821789,
            "responseTime": 1680853931693,
            "catchQuestion": "How many <b class=\"r\">red<\/b> marbles did your opponent report drawing? ",
            "catchKey": -1,
            "catchResponse": -1,
            "catchTime": 1680853917250,
            "trialTime": 0
        },
        {
            "exptPart": "trial",
            "trialNumber": 42,
            "roleCurrent": "receiver",
            "marblesSampled": 100,
            "probRed": 0.5,
            "practiceLambda": 5,
            "trialLambda": 8.1,
            "instructedLambda": "honest",
            "drawnRed": 64,
            "reportedRed": 71,
            "inferredRed": 80,
            "playerTrialScore": -16,
            "oppTrialScore": 16,
            "playerTotalScore": -437,
            "oppTotalScore": 437,
            "waitTime": 6055.1432006729065,
            "responseTime": 1680853944703,
            "catchQuestion": "How many <b class=\"r\">red<\/b> marbles did your opponent report drawing? ",
            "catchKey": 71,
            "catchResponse": 71,
            "catchTime": 1680853944703,
            "trialTime": 0
        },
        {
            "exptPart": "trial",
            "trialNumber": 43,
            "roleCurrent": "receiver",
            "marblesSampled": 100,
            "probRed": 0.5,
            "practiceLambda": 5,
            "trialLambda": 8.1,
            "instructedLambda": "honest",
            "drawnRed": 54,
            "reportedRed": 66,
            "inferredRed": 76,
            "playerTrialScore": -22,
            "oppTrialScore": 22,
            "playerTotalScore": -459,
            "oppTotalScore": 459,
            "waitTime": 5241.187305868248,
            "responseTime": 1680853958012,
            "catchQuestion": "How many <b class=\"r\">red<\/b> marbles did your opponent report drawing? ",
            "catchKey": -1,
            "catchResponse": -1,
            "catchTime": 1680853944703,
            "trialTime": 0
        },
        {
            "exptPart": "trial",
            "trialNumber": 44,
            "roleCurrent": "receiver",
            "marblesSampled": 100,
            "probRed": 0.5,
            "practiceLambda": 5,
            "trialLambda": 8.1,
            "instructedLambda": "honest",
            "drawnRed": 66,
            "reportedRed": 74,
            "inferredRed": 75,
            "playerTrialScore": -9,
            "oppTrialScore": 9,
            "playerTotalScore": -468,
            "oppTotalScore": 468,
            "waitTime": 5456.07378892775,
            "responseTime": 1680853966938,
            "catchQuestion": "How many <b class=\"r\">red<\/b> marbles did your opponent report drawing? ",
            "catchKey": -1,
            "catchResponse": -1,
            "catchTime": 1680853944703,
            "trialTime": 0
        },
        {
            "exptPart": "trial",
            "trialNumber": 45,
            "roleCurrent": "receiver",
            "marblesSampled": 100,
            "probRed": 0.5,
            "practiceLambda": 5,
            "trialLambda": 8.1,
            "instructedLambda": "honest",
            "drawnRed": 44,
            "reportedRed": 56,
            "inferredRed": 55,
            "playerTrialScore": -11,
            "oppTrialScore": 11,
            "playerTotalScore": -479,
            "oppTotalScore": 479,
            "waitTime": 5165.647233046209,
            "responseTime": 1680853976193,
            "catchQuestion": "How many <b class=\"r\">red<\/b> marbles did your opponent report drawing? ",
            "catchKey": -1,
            "catchResponse": -1,
            "catchTime": 1680853944703,
            "trialTime": 0
        },
        {
            "exptPart": "trial",
            "trialNumber": 46,
            "roleCurrent": "receiver",
            "marblesSampled": 100,
            "probRed": 0.5,
            "practiceLambda": 5,
            "trialLambda": 8.1,
            "instructedLambda": "honest",
            "drawnRed": 28,
            "reportedRed": 34,
            "inferredRed": 36,
            "playerTrialScore": -8,
            "oppTrialScore": 8,
            "playerTotalScore": -487,
            "oppTotalScore": 487,
            "waitTime": 7444.830706261509,
            "responseTime": 1680853986828,
            "catchQuestion": "How many <b class=\"r\">red<\/b> marbles did your opponent report drawing? ",
            "catchKey": 34,
            "catchResponse": 34,
            "catchTime": 1680853986828,
            "trialTime": 0
        },
        {
            "exptPart": "trial",
            "trialNumber": 47,
            "roleCurrent": "receiver",
            "marblesSampled": 100,
            "probRed": 0.5,
            "practiceLambda": 5,
            "trialLambda": 8.1,
            "instructedLambda": "honest",
            "drawnRed": 23,
            "reportedRed": 33,
            "inferredRed": 33,
            "playerTrialScore": -10,
            "oppTrialScore": 10,
            "playerTotalScore": -497,
            "oppTotalScore": 497,
            "waitTime": 6306.442184483414,
            "responseTime": 1680854143239,
            "catchQuestion": "How many <b class=\"r\">red<\/b> marbles did your opponent report drawing? ",
            "catchKey": 33,
            "catchResponse": 33,
            "catchTime": 1680854143239,
            "trialTime": 0
        },
        {
            "exptPart": "trial",
            "trialNumber": 48,
            "roleCurrent": "receiver",
            "marblesSampled": 100,
            "probRed": 0.5,
            "practiceLambda": 5,
            "trialLambda": 8.1,
            "instructedLambda": "honest",
            "drawnRed": 54,
            "reportedRed": 58,
            "inferredRed": 60,
            "playerTrialScore": -6,
            "oppTrialScore": 6,
            "playerTotalScore": -503,
            "oppTotalScore": 503,
            "waitTime": 5229.722804953582,
            "responseTime": 1680854155208,
            "catchQuestion": "How many <b class=\"r\">red<\/b> marbles did your opponent report drawing? ",
            "catchKey": -1,
            "catchResponse": -1,
            "catchTime": 1680854143239,
            "trialTime": 0
        },
        {
            "exptPart": "trial",
            "trialNumber": 49,
            "roleCurrent": "receiver",
            "marblesSampled": 100,
            "probRed": 0.5,
            "practiceLambda": 5,
            "trialLambda": 8.1,
            "instructedLambda": "honest",
            "drawnRed": 71,
            "reportedRed": 85,
            "inferredRed": 85,
            "playerTrialScore": -14,
            "oppTrialScore": 14,
            "playerTotalScore": -517,
            "oppTotalScore": 517,
            "waitTime": 6976.674687335266,
            "responseTime": 1680854172451,
            "catchQuestion": "How many <b class=\"r\">red<\/b> marbles did your opponent report drawing? ",
            "catchKey": -1,
            "catchResponse": -1,
            "catchTime": 1680854143239,
            "trialTime": 0
        },
        {
            "exptPart": "trial",
            "trialNumber": 50,
            "roleCurrent": "receiver",
            "marblesSampled": 100,
            "probRed": 0.5,
            "practiceLambda": 5,
            "trialLambda": 8.1,
            "instructedLambda": "honest",
            "drawnRed": 37,
            "reportedRed": 48,
            "inferredRed": 49,
            "playerTrialScore": -12,
            "oppTrialScore": 12,
            "playerTotalScore": -529,
            "oppTotalScore": 529,
            "waitTime": 5747.739482889637,
            "responseTime": 1680854183312,
            "catchQuestion": "How many <b class=\"r\">red<\/b> marbles did your opponent report drawing? ",
            "catchKey": -1,
            "catchResponse": -1,
            "catchTime": 1680854183312,
            "trialTime": 0
        },
        {
            "exptPart": "trial",
            "trialNumber": 51,
            "roleCurrent": "receiver",
            "marblesSampled": 100,
            "probRed": 0.5,
            "practiceLambda": 5,
            "trialLambda": 8.1,
            "instructedLambda": "honest",
            "drawnRed": 27,
            "reportedRed": 35,
            "inferredRed": 35,
            "playerTrialScore": -8,
            "oppTrialScore": 8,
            "playerTotalScore": -537,
            "oppTotalScore": 537,
            "waitTime": 7199.253010742606,
            "responseTime": 1680854196314,
            "catchQuestion": "How many <b class=\"r\">red<\/b> marbles did your opponent report drawing? ",
            "catchKey": 35,
            "catchResponse": 34,
            "catchTime": 1680854196314,
            "trialTime": 0
        },
        {
            "exptPart": "trial",
            "trialNumber": 52,
            "roleCurrent": "receiver",
            "marblesSampled": 100,
            "probRed": 0.5,
            "practiceLambda": 5,
            "trialLambda": 8.1,
            "instructedLambda": "honest",
            "drawnRed": 60,
            "reportedRed": 66,
            "inferredRed": 68,
            "playerTrialScore": -8,
            "oppTrialScore": 8,
            "playerTotalScore": -545,
            "oppTotalScore": 545,
            "waitTime": 5685.3094210997215,
            "responseTime": 1680854212941,
            "catchQuestion": "How many <b class=\"r\">red<\/b> marbles did your opponent report drawing? ",
            "catchKey": -1,
            "catchResponse": -1,
            "catchTime": 1680854196314,
            "trialTime": 0
        },
        {
            "exptPart": "trial",
            "trialNumber": 53,
            "roleCurrent": "receiver",
            "marblesSampled": 100,
            "probRed": 0.5,
            "practiceLambda": 5,
            "trialLambda": 8.1,
            "instructedLambda": "honest",
            "drawnRed": 52,
            "reportedRed": 55,
            "inferredRed": 55,
            "playerTrialScore": -3,
            "oppTrialScore": 3,
            "playerTotalScore": -548,
            "oppTotalScore": 548,
            "waitTime": 5189.477372713382,
            "responseTime": 1680854220991,
            "catchQuestion": "How many <b class=\"r\">red<\/b> marbles did your opponent report drawing? ",
            "catchKey": -1,
            "catchResponse": -1,
            "catchTime": 1680854196314,
            "trialTime": 0
        },
        {
            "exptPart": "trial",
            "trialNumber": 54,
            "roleCurrent": "receiver",
            "marblesSampled": 100,
            "probRed": 0.5,
            "practiceLambda": 5,
            "trialLambda": 8.1,
            "instructedLambda": "honest",
            "drawnRed": 31,
            "reportedRed": 39,
            "inferredRed": 40,
            "playerTrialScore": -9,
            "oppTrialScore": 9,
            "playerTotalScore": -557,
            "oppTotalScore": 557,
            "waitTime": 5541.708283753245,
            "responseTime": 1680854230453,
            "catchQuestion": "How many <b class=\"r\">red<\/b> marbles did your opponent report drawing? ",
            "catchKey": -1,
            "catchResponse": -1,
            "catchTime": 1680854196314,
            "trialTime": 0
        },
        {
            "exptPart": "trial",
            "trialNumber": 55,
            "roleCurrent": "receiver",
            "marblesSampled": 100,
            "probRed": 0.5,
            "practiceLambda": 5,
            "trialLambda": 8.1,
            "instructedLambda": "honest",
            "drawnRed": 49,
            "reportedRed": 56,
            "inferredRed": 56,
            "playerTrialScore": -7,
            "oppTrialScore": 7,
            "playerTotalScore": -564,
            "oppTotalScore": 564,
            "waitTime": 5360.121667169357,
            "responseTime": 1680854244470,
            "catchQuestion": "How many <b class=\"r\">red<\/b> marbles did your opponent report drawing? ",
            "catchKey": -1,
            "catchResponse": -1,
            "catchTime": 1680854196314,
            "trialTime": 0
        },
        {
            "exptPart": "trial",
            "trialNumber": 56,
            "roleCurrent": "receiver",
            "marblesSampled": 100,
            "probRed": 0.5,
            "practiceLambda": 5,
            "trialLambda": 8.1,
            "instructedLambda": "honest",
            "drawnRed": 52,
            "reportedRed": 60,
            "inferredRed": 66,
            "playerTrialScore": -14,
            "oppTrialScore": 14,
            "playerTotalScore": -578,
            "oppTotalScore": 578,
            "waitTime": 5666.621503257529,
            "responseTime": 1680854257637,
            "catchQuestion": "How many <b class=\"r\">red<\/b> marbles did your opponent report drawing? ",
            "catchKey": -1,
            "catchResponse": -1,
            "catchTime": 1680854196314,
            "trialTime": 0
        },
        {
            "exptPart": "trial",
            "trialNumber": 57,
            "roleCurrent": "receiver",
            "marblesSampled": 100,
            "probRed": 0.5,
            "practiceLambda": 5,
            "trialLambda": 8.1,
            "instructedLambda": "honest",
            "drawnRed": 42,
            "reportedRed": 46,
            "inferredRed": 48,
            "playerTrialScore": -6,
            "oppTrialScore": 6,
            "playerTotalScore": -584,
            "oppTotalScore": 584,
            "waitTime": 7437.092795414023,
            "responseTime": 1680854345738,
            "catchQuestion": "How many <b class=\"r\">red<\/b> marbles did your opponent report drawing? ",
            "catchKey": -1,
            "catchResponse": -1,
            "catchTime": 1680854196314,
            "trialTime": 0
        },
        {
            "exptPart": "trial",
            "trialNumber": 58,
            "roleCurrent": "receiver",
            "marblesSampled": 100,
            "probRed": 0.5,
            "practiceLambda": 5,
            "trialLambda": 8.1,
            "instructedLambda": "honest",
            "drawnRed": 30,
            "reportedRed": 39,
            "inferredRed": 39,
            "playerTrialScore": -9,
            "oppTrialScore": 9,
            "playerTotalScore": -593,
            "oppTotalScore": 593,
            "waitTime": 6018.568640200405,
            "responseTime": 1680854359720,
            "catchQuestion": "How many <b class=\"r\">red<\/b> marbles did your opponent report drawing? ",
            "catchKey": -1,
            "catchResponse": -1,
            "catchTime": 1680854196314,
            "trialTime": 0
        },
        {
            "exptPart": "trial",
            "trialNumber": 59,
            "roleCurrent": "receiver",
            "marblesSampled": 100,
            "probRed": 0.5,
            "practiceLambda": 5,
            "trialLambda": 8.1,
            "instructedLambda": "honest",
            "drawnRed": 19,
            "reportedRed": 27,
            "inferredRed": 23,
            "playerTrialScore": -4,
            "oppTrialScore": 4,
            "playerTotalScore": -597,
            "oppTotalScore": 597,
            "waitTime": 6037.610146842788,
            "responseTime": 1680854373557,
            "catchQuestion": "How many <b class=\"r\">red<\/b> marbles did your opponent report drawing? ",
            "catchKey": -1,
            "catchResponse": -1,
            "catchTime": 1680854196314,
            "trialTime": 0
        },
        {
            "exptPart": "trial",
            "trialNumber": 60,
            "roleCurrent": "receiver",
            "marblesSampled": 100,
            "probRed": 0.5,
            "practiceLambda": 5,
            "trialLambda": 8.1,
            "instructedLambda": "honest",
            "drawnRed": 49,
            "reportedRed": 53,
            "inferredRed": 53,
            "playerTrialScore": -4,
            "oppTrialScore": 4,
            "playerTotalScore": -601,
            "oppTotalScore": 601,
            "waitTime": 6219.156318286397,
            "responseTime": 1680854383023,
            "catchQuestion": "How many <b class=\"r\">red<\/b> marbles did your opponent report drawing? ",
            "catchKey": -1,
            "catchResponse": -1,
            "catchTime": 1680854383023,
            "trialTime": 0
        },
        {
            "exptPart": "trial",
            "trialNumber": 61,
            "roleCurrent": "receiver",
            "marblesSampled": 100,
            "probRed": 0.5,
            "practiceLambda": 5,
            "trialLambda": 8.1,
            "instructedLambda": "honest",
            "drawnRed": 66,
            "reportedRed": 79,
            "inferredRed": 83,
            "playerTrialScore": -17,
            "oppTrialScore": 17,
            "playerTotalScore": -618,
            "oppTotalScore": 618,
            "waitTime": 5411.832343232137,
            "responseTime": 1680854394232,
            "catchQuestion": "How many <b class=\"r\">red<\/b> marbles did your opponent report drawing? ",
            "catchKey": -1,
            "catchResponse": -1,
            "catchTime": 1680854383023,
            "trialTime": 0
        },
        {
            "exptPart": "trial",
            "trialNumber": 62,
            "roleCurrent": "receiver",
            "marblesSampled": 100,
            "probRed": 0.5,
            "practiceLambda": 5,
            "trialLambda": 8.1,
            "instructedLambda": "honest",
            "drawnRed": 32,
            "reportedRed": 40,
            "inferredRed": 39,
            "playerTrialScore": -7,
            "oppTrialScore": 7,
            "playerTotalScore": -625,
            "oppTotalScore": 625,
            "waitTime": 6987.983974904,
            "responseTime": 1680854405050,
            "catchQuestion": "How many <b class=\"r\">red<\/b> marbles did your opponent report drawing? ",
            "catchKey": -1,
            "catchResponse": -1,
            "catchTime": 1680854383023,
            "trialTime": 0
        },
        {
            "exptPart": "trial",
            "trialNumber": 63,
            "roleCurrent": "receiver",
            "marblesSampled": 100,
            "probRed": 0.5,
            "practiceLambda": 5,
            "trialLambda": 8.1,
            "instructedLambda": "honest",
            "drawnRed": 26,
            "reportedRed": 35,
            "inferredRed": 45,
            "playerTrialScore": -19,
            "oppTrialScore": 19,
            "playerTotalScore": -644,
            "oppTotalScore": 644,
            "waitTime": 6323.705089589808,
            "responseTime": 1680854415728,
            "catchQuestion": "How many <b class=\"r\">red<\/b> marbles did your opponent report drawing? ",
            "catchKey": -1,
            "catchResponse": -1,
            "catchTime": 1680854383023,
            "trialTime": 0
        },
        {
            "exptPart": "trial",
            "trialNumber": 64,
            "roleCurrent": "receiver",
            "marblesSampled": 100,
            "probRed": 0.5,
            "practiceLambda": 5,
            "trialLambda": 8.1,
            "instructedLambda": "honest",
            "drawnRed": 12,
            "reportedRed": 18,
            "inferredRed": 18,
            "playerTrialScore": -6,
            "oppTrialScore": 6,
            "playerTotalScore": -650,
            "oppTotalScore": 650,
            "waitTime": 6047.095743942398,
            "responseTime": 1680854429236,
            "catchQuestion": "How many <b class=\"r\">red<\/b> marbles did your opponent report drawing? ",
            "catchKey": 18,
            "catchResponse": 18,
            "catchTime": 1680854429237,
            "trialTime": 0
        },
        {
            "exptPart": "trial",
            "trialNumber": 65,
            "roleCurrent": "receiver",
            "marblesSampled": 100,
            "probRed": 0.5,
            "practiceLambda": 5,
            "trialLambda": 8.1,
            "instructedLambda": "honest",
            "drawnRed": 65,
            "reportedRed": 72,
            "inferredRed": 80,
            "playerTrialScore": -15,
            "oppTrialScore": 15,
            "playerTotalScore": -665,
            "oppTotalScore": 665,
            "waitTime": 6700.926438421419,
            "responseTime": 1680854444692,
            "catchQuestion": "How many <b class=\"r\">red<\/b> marbles did your opponent report drawing? ",
            "catchKey": -1,
            "catchResponse": -1,
            "catchTime": 1680854429237,
            "trialTime": 0
        },
        {
            "exptPart": "trial",
            "trialNumber": 66,
            "roleCurrent": "receiver",
            "marblesSampled": 100,
            "probRed": 0.5,
            "practiceLambda": 5,
            "trialLambda": 8.1,
            "instructedLambda": "honest",
            "drawnRed": 44,
            "reportedRed": 53,
            "inferredRed": 53,
            "playerTrialScore": -9,
            "oppTrialScore": 9,
            "playerTotalScore": -674,
            "oppTotalScore": 674,
            "waitTime": 5240.439590129463,
            "responseTime": 1680854454223,
            "catchQuestion": "How many <b class=\"r\">red<\/b> marbles did your opponent report drawing? ",
            "catchKey": -1,
            "catchResponse": -1,
            "catchTime": 1680854429237,
            "trialTime": 0
        },
        {
            "exptPart": "trial",
            "trialNumber": 67,
            "roleCurrent": "receiver",
            "marblesSampled": 100,
            "probRed": 0.5,
            "practiceLambda": 5,
            "trialLambda": 8.1,
            "instructedLambda": "honest",
            "drawnRed": 69,
            "reportedRed": 76,
            "inferredRed": 86,
            "playerTrialScore": -17,
            "oppTrialScore": 17,
            "playerTotalScore": -691,
            "oppTotalScore": 691,
            "waitTime": 6162.050486392603,
            "responseTime": 1680854464311,
            "catchQuestion": "How many <b class=\"r\">red<\/b> marbles did your opponent report drawing? ",
            "catchKey": -1,
            "catchResponse": -1,
            "catchTime": 1680854429237,
            "trialTime": 0
        },
        {
            "exptPart": "trial",
            "trialNumber": 68,
            "roleCurrent": "receiver",
            "marblesSampled": 100,
            "probRed": 0.5,
            "practiceLambda": 5,
            "trialLambda": 8.1,
            "instructedLambda": "honest",
            "drawnRed": 50,
            "reportedRed": 55,
            "inferredRed": 55,
            "playerTrialScore": -5,
            "oppTrialScore": 5,
            "playerTotalScore": -696,
            "oppTotalScore": 696,
            "waitTime": 5534.103995771509,
            "responseTime": 1680854473842,
            "catchQuestion": "How many <b class=\"r\">red<\/b> marbles did your opponent report drawing? ",
            "catchKey": -1,
            "catchResponse": -1,
            "catchTime": 1680854429237,
            "trialTime": 0
        },
        {
            "exptPart": "trial",
            "trialNumber": 69,
            "roleCurrent": "receiver",
            "marblesSampled": 100,
            "probRed": 0.5,
            "practiceLambda": 5,
            "trialLambda": 8.1,
            "instructedLambda": "honest",
            "drawnRed": 75,
            "reportedRed": 79,
            "inferredRed": 80,
            "playerTrialScore": -5,
            "oppTrialScore": 5,
            "playerTotalScore": -701,
            "oppTotalScore": 701,
            "waitTime": 7085.150904303173,
            "responseTime": 1680854485209,
            "catchQuestion": "How many <b class=\"r\">red<\/b> marbles did your opponent report drawing? ",
            "catchKey": -1,
            "catchResponse": -1,
            "catchTime": 1680854429237,
            "trialTime": 0
        },
        {
            "exptPart": "trial",
            "trialNumber": 70,
            "roleCurrent": "receiver",
            "marblesSampled": 100,
            "probRed": 0.5,
            "practiceLambda": 5,
            "trialLambda": 8.1,
            "instructedLambda": "honest",
            "drawnRed": 50,
            "reportedRed": 58,
            "inferredRed": 60,
            "playerTrialScore": -10,
            "oppTrialScore": 10,
            "playerTotalScore": -711,
            "oppTotalScore": 711,
            "waitTime": 5636.482286261936,
            "responseTime": 1680854498322,
            "catchQuestion": "How many <b class=\"r\">red<\/b> marbles did your opponent report drawing? ",
            "catchKey": -1,
            "catchResponse": -1,
            "catchTime": 1680854498322,
            "trialTime": 0
        },
        {
            "exptPart": "trial",
            "trialNumber": 71,
            "roleCurrent": "receiver",
            "marblesSampled": 100,
            "probRed": 0.5,
            "practiceLambda": 5,
            "trialLambda": 8.1,
            "instructedLambda": "honest",
            "drawnRed": 20,
            "reportedRed": 25,
            "inferredRed": 25,
            "playerTrialScore": -5,
            "oppTrialScore": 5,
            "playerTotalScore": -716,
            "oppTotalScore": 716,
            "waitTime": 7205.574667946372,
            "responseTime": 1680854510492,
            "catchQuestion": "How many <b class=\"r\">red<\/b> marbles did your opponent report drawing? ",
            "catchKey": -1,
            "catchResponse": -1,
            "catchTime": 1680854498322,
            "trialTime": 0
        },
        {
            "exptPart": "trial",
            "trialNumber": 72,
            "roleCurrent": "receiver",
            "marblesSampled": 100,
            "probRed": 0.5,
            "practiceLambda": 5,
            "trialLambda": 8.1,
            "instructedLambda": "honest",
            "drawnRed": 79,
            "reportedRed": 89,
            "inferredRed": 89,
            "playerTrialScore": -10,
            "oppTrialScore": 10,
            "playerTotalScore": -726,
            "oppTotalScore": 726,
            "waitTime": 7282.16105494462,
            "responseTime": 1680854528566,
            "catchQuestion": "How many <b class=\"r\">red<\/b> marbles did your opponent report drawing? ",
            "catchKey": -1,
            "catchResponse": -1,
            "catchTime": 1680854498322,
            "trialTime": 0
        },
        {
            "exptPart": "trial",
            "trialNumber": 73,
            "roleCurrent": "receiver",
            "marblesSampled": 100,
            "probRed": 0.5,
            "practiceLambda": 5,
            "trialLambda": 8.1,
            "instructedLambda": "honest",
            "drawnRed": 52,
            "reportedRed": 59,
            "inferredRed": 59,
            "playerTrialScore": -7,
            "oppTrialScore": 7,
            "playerTotalScore": -733,
            "oppTotalScore": 733,
            "waitTime": 7079.329785937093,
            "responseTime": 1680854542155,
            "catchQuestion": "How many <b class=\"r\">red<\/b> marbles did your opponent report drawing? ",
            "catchKey": -1,
            "catchResponse": -1,
            "catchTime": 1680854498322,
            "trialTime": 0
        },
        {
            "exptPart": "trial",
            "trialNumber": 74,
            "roleCurrent": "receiver",
            "marblesSampled": 100,
            "probRed": 0.5,
            "practiceLambda": 5,
            "trialLambda": 8.1,
            "instructedLambda": "honest",
            "drawnRed": 64,
            "reportedRed": 72,
            "inferredRed": 76,
            "playerTrialScore": -12,
            "oppTrialScore": 12,
            "playerTotalScore": -745,
            "oppTotalScore": 745,
            "waitTime": 6791.566474611645,
            "responseTime": 1680854557218,
            "catchQuestion": "How many <b class=\"r\">red<\/b> marbles did your opponent report drawing? ",
            "catchKey": -1,
            "catchResponse": -1,
            "catchTime": 1680854498322,
            "trialTime": 0
        },
        {
            "exptPart": "trial",
            "trialNumber": 75,
            "roleCurrent": "receiver",
            "marblesSampled": 100,
            "probRed": 0.5,
            "practiceLambda": 5,
            "trialLambda": 8.1,
            "instructedLambda": "honest",
            "drawnRed": 76,
            "reportedRed": 84,
            "inferredRed": 88,
            "playerTrialScore": -12,
            "oppTrialScore": 12,
            "playerTotalScore": -757,
            "oppTotalScore": 757,
            "waitTime": 5814.577360818849,
            "responseTime": 1680854572387,
            "catchQuestion": "How many <b class=\"r\">red<\/b> marbles did your opponent report drawing? ",
            "catchKey": -1,
            "catchResponse": -1,
            "catchTime": 1680854498322,
            "trialTime": 0
        },
        {
            "exptPart": "trial",
            "trialNumber": 76,
            "roleCurrent": "receiver",
            "marblesSampled": 100,
            "probRed": 0.5,
            "practiceLambda": 5,
            "trialLambda": 8.1,
            "instructedLambda": "honest",
            "drawnRed": 43,
            "reportedRed": 50,
            "inferredRed": 50,
            "playerTrialScore": -7,
            "oppTrialScore": 7,
            "playerTotalScore": -764,
            "oppTotalScore": 764,
            "waitTime": 5361.640574961026,
            "responseTime": 1680854584453,
            "catchQuestion": "How many <b class=\"r\">red<\/b> marbles did your opponent report drawing? ",
            "catchKey": -1,
            "catchResponse": -1,
            "catchTime": 1680854498322,
            "trialTime": 0
        },
        {
            "exptPart": "trial",
            "trialNumber": 77,
            "roleCurrent": "receiver",
            "marblesSampled": 100,
            "probRed": 0.5,
            "practiceLambda": 5,
            "trialLambda": 8.1,
            "instructedLambda": "honest",
            "drawnRed": 43,
            "reportedRed": 60,
            "inferredRed": 65,
            "playerTrialScore": -22,
            "oppTrialScore": 22,
            "playerTotalScore": -786,
            "oppTotalScore": 786,
            "waitTime": 6140.623828211305,
            "responseTime": 1680854599802,
            "catchQuestion": "How many <b class=\"r\">red<\/b> marbles did your opponent report drawing? ",
            "catchKey": -1,
            "catchResponse": -1,
            "catchTime": 1680854498322,
            "trialTime": 0
        },
        {
            "exptPart": "trial",
            "trialNumber": 78,
            "roleCurrent": "receiver",
            "marblesSampled": 100,
            "probRed": 0.5,
            "practiceLambda": 5,
            "trialLambda": 8.1,
            "instructedLambda": "honest",
            "drawnRed": 24,
            "reportedRed": 36,
            "inferredRed": 36,
            "playerTrialScore": -12,
            "oppTrialScore": 12,
            "playerTotalScore": -798,
            "oppTotalScore": 798,
            "waitTime": 6910.940016692715,
            "responseTime": 1680854616825,
            "catchQuestion": "How many <b class=\"r\">red<\/b> marbles did your opponent report drawing? ",
            "catchKey": -1,
            "catchResponse": -1,
            "catchTime": 1680854498322,
            "trialTime": 0
        },
        {
            "exptPart": "trial",
            "trialNumber": 79,
            "roleCurrent": "receiver",
            "marblesSampled": 100,
            "probRed": 0.5,
            "practiceLambda": 5,
            "trialLambda": 8.1,
            "instructedLambda": "honest",
            "drawnRed": 61,
            "reportedRed": 68,
            "inferredRed": 70,
            "playerTrialScore": -9,
            "oppTrialScore": 9,
            "playerTotalScore": -807,
            "oppTotalScore": 807,
            "waitTime": 5187.180506263792,
            "responseTime": 1680854627604,
            "catchQuestion": "How many <b class=\"r\">red<\/b> marbles did your opponent report drawing? ",
            "catchKey": -1,
            "catchResponse": -1,
            "catchTime": 1680854498322,
            "trialTime": 0
        },
        {
            "exptPart": "trial",
            "trialNumber": 80,
            "roleCurrent": "receiver",
            "marblesSampled": 100,
            "probRed": 0.5,
            "practiceLambda": 5,
            "trialLambda": 8.1,
            "instructedLambda": "honest",
            "drawnRed": 85,
            "reportedRed": 100,
            "inferredRed": 100,
            "playerTrialScore": -15,
            "oppTrialScore": 15,
            "playerTotalScore": -822,
            "oppTotalScore": 822,
            "waitTime": 5919.498685188934,
            "responseTime": 1680854644624,
            "catchQuestion": "How many <b class=\"r\">red<\/b> marbles did your opponent report drawing? ",
            "catchKey": -1,
            "catchResponse": -1,
            "catchTime": 1680854644624,
            "trialTime": 0
        },
        {
            "exptPart": "trial",
            "trialNumber": 81,
            "roleCurrent": "receiver",
            "marblesSampled": 100,
            "probRed": 0.5,
            "practiceLambda": 5,
            "trialLambda": 8.1,
            "instructedLambda": "honest",
            "drawnRed": 59,
            "reportedRed": 69,
            "inferredRed": 73,
            "playerTrialScore": -14,
            "oppTrialScore": 14,
            "playerTotalScore": -836,
            "oppTotalScore": 836,
            "waitTime": 6309.782143068243,
            "responseTime": 1680854658373,
            "catchQuestion": "How many <b class=\"r\">red<\/b> marbles did your opponent report drawing? ",
            "catchKey": -1,
            "catchResponse": -1,
            "catchTime": 1680854644624,
            "trialTime": 0
        },
        {
            "exptPart": "trial",
            "trialNumber": 82,
            "roleCurrent": "receiver",
            "marblesSampled": 100,
            "probRed": 0.5,
            "practiceLambda": 5,
            "trialLambda": 8.1,
            "instructedLambda": "honest",
            "drawnRed": 76,
            "reportedRed": 80,
            "inferredRed": 80,
            "playerTrialScore": -4,
            "oppTrialScore": 4,
            "playerTotalScore": -840,
            "oppTotalScore": 840,
            "waitTime": 6158.931651659115,
            "responseTime": 1680854669639,
            "catchQuestion": "How many <b class=\"r\">red<\/b> marbles did your opponent report drawing? ",
            "catchKey": -1,
            "catchResponse": -1,
            "catchTime": 1680854644624,
            "trialTime": 0
        },
        {
            "exptPart": "trial",
            "trialNumber": 83,
            "roleCurrent": "receiver",
            "marblesSampled": 100,
            "probRed": 0.5,
            "practiceLambda": 5,
            "trialLambda": 8.1,
            "instructedLambda": "honest",
            "drawnRed": 13,
            "reportedRed": 20,
            "inferredRed": 20,
            "playerTrialScore": -7,
            "oppTrialScore": 7,
            "playerTotalScore": -847,
            "oppTotalScore": 847,
            "waitTime": 6392.287971591131,
            "responseTime": 1680854681563,
            "catchQuestion": "How many <b class=\"r\">red<\/b> marbles did your opponent report drawing? ",
            "catchKey": -1,
            "catchResponse": -1,
            "catchTime": 1680854644624,
            "trialTime": 0
        },
        {
            "exptPart": "trial",
            "trialNumber": 84,
            "roleCurrent": "receiver",
            "marblesSampled": 100,
            "probRed": 0.5,
            "practiceLambda": 5,
            "trialLambda": 8.1,
            "instructedLambda": "honest",
            "drawnRed": 60,
            "reportedRed": 66,
            "inferredRed": 66,
            "playerTrialScore": -6,
            "oppTrialScore": 6,
            "playerTotalScore": -853,
            "oppTotalScore": 853,
            "waitTime": 5570.265956372436,
            "responseTime": 1680854695785,
            "catchQuestion": "How many <b class=\"r\">red<\/b> marbles did your opponent report drawing? ",
            "catchKey": -1,
            "catchResponse": -1,
            "catchTime": 1680854644624,
            "trialTime": 0
        },
        {
            "exptPart": "trial",
            "trialNumber": 85,
            "roleCurrent": "receiver",
            "marblesSampled": 100,
            "probRed": 0.5,
            "practiceLambda": 5,
            "trialLambda": 8.1,
            "instructedLambda": "honest",
            "drawnRed": 60,
            "reportedRed": 67,
            "inferredRed": 75,
            "playerTrialScore": -15,
            "oppTrialScore": 15,
            "playerTotalScore": -868,
            "oppTotalScore": 868,
            "waitTime": 5174.179997118705,
            "responseTime": 1680854708138,
            "catchQuestion": "How many <b class=\"r\">red<\/b> marbles did your opponent report drawing? ",
            "catchKey": -1,
            "catchResponse": -1,
            "catchTime": 1680854644624,
            "trialTime": 0
        },
        {
            "exptPart": "trial",
            "trialNumber": 86,
            "roleCurrent": "receiver",
            "marblesSampled": 100,
            "probRed": 0.5,
            "practiceLambda": 5,
            "trialLambda": 8.1,
            "instructedLambda": "honest",
            "drawnRed": 60,
            "reportedRed": 70,
            "inferredRed": 70,
            "playerTrialScore": -10,
            "oppTrialScore": 10,
            "playerTotalScore": -878,
            "oppTotalScore": 878,
            "waitTime": 5336.384659644293,
            "responseTime": 1680854723918,
            "catchQuestion": "How many <b class=\"r\">red<\/b> marbles did your opponent report drawing? ",
            "catchKey": -1,
            "catchResponse": -1,
            "catchTime": 1680854644624,
            "trialTime": 0
        },
        {
            "exptPart": "trial",
            "trialNumber": 87,
            "roleCurrent": "receiver",
            "marblesSampled": 100,
            "probRed": 0.5,
            "practiceLambda": 5,
            "trialLambda": 8.1,
            "instructedLambda": "honest",
            "drawnRed": 33,
            "reportedRed": 40,
            "inferredRed": 40,
            "playerTrialScore": -7,
            "oppTrialScore": 7,
            "playerTotalScore": -885,
            "oppTotalScore": 885,
            "waitTime": 6618.791265404983,
            "responseTime": 1680854743358,
            "catchQuestion": "How many <b class=\"r\">red<\/b> marbles did your opponent report drawing? ",
            "catchKey": -1,
            "catchResponse": -1,
            "catchTime": 1680854644624,
            "trialTime": 0
        },
        {
            "exptPart": "trial",
            "trialNumber": 88,
            "roleCurrent": "receiver",
            "marblesSampled": 100,
            "probRed": 0.5,
            "practiceLambda": 5,
            "trialLambda": 8.1,
            "instructedLambda": "honest",
            "drawnRed": 26,
            "reportedRed": 37,
            "inferredRed": 37,
            "playerTrialScore": -11,
            "oppTrialScore": 11,
            "playerTotalScore": -896,
            "oppTotalScore": 896,
            "waitTime": 6783.441099491935,
            "responseTime": 1680854763231,
            "catchQuestion": "How many <b class=\"r\">red<\/b> marbles did your opponent report drawing? ",
            "catchKey": -1,
            "catchResponse": -1,
            "catchTime": 1680854644624,
            "trialTime": 0
        },
        {
            "exptPart": "trial",
            "trialNumber": 89,
            "roleCurrent": "receiver",
            "marblesSampled": 100,
            "probRed": 0.5,
            "practiceLambda": 5,
            "trialLambda": 8.1,
            "instructedLambda": "honest",
            "drawnRed": 33,
            "reportedRed": 40,
            "inferredRed": 40,
            "playerTrialScore": -7,
            "oppTrialScore": 7,
            "playerTotalScore": -903,
            "oppTotalScore": 903,
            "waitTime": 5553.858667127591,
            "responseTime": 1680854774656,
            "catchQuestion": "How many <b class=\"r\">red<\/b> marbles did your opponent report drawing? ",
            "catchKey": -1,
            "catchResponse": -1,
            "catchTime": 1680854644624,
            "trialTime": 0
        },
        {
            "exptPart": "trial",
            "trialNumber": 90,
            "roleCurrent": "receiver",
            "marblesSampled": 100,
            "probRed": 0.5,
            "practiceLambda": 5,
            "trialLambda": 8.1,
            "instructedLambda": "honest",
            "drawnRed": 29,
            "reportedRed": 39,
            "inferredRed": 39,
            "playerTrialScore": -10,
            "oppTrialScore": 10,
            "playerTotalScore": -913,
            "oppTotalScore": 913,
            "waitTime": 6275.2447201309205,
            "responseTime": 1680854789047,
            "catchQuestion": "How many <b class=\"r\">red<\/b> marbles did your opponent report drawing? ",
            "catchKey": -1,
            "catchResponse": -1,
            "catchTime": 1680854789047,
            "trialTime": 0
        },
        {
            "exptPart": "trial",
            "trialNumber": 91,
            "roleCurrent": "receiver",
            "marblesSampled": 100,
            "probRed": 0.5,
            "practiceLambda": 5,
            "trialLambda": 8.1,
            "instructedLambda": "honest",
            "drawnRed": 22,
            "reportedRed": 35,
            "inferredRed": 36,
            "playerTrialScore": -14,
            "oppTrialScore": 14,
            "playerTotalScore": -927,
            "oppTotalScore": 927,
            "waitTime": 5147.042318717102,
            "responseTime": 1680854799773,
            "catchQuestion": "How many <b class=\"r\">red<\/b> marbles did your opponent report drawing? ",
            "catchKey": -1,
            "catchResponse": -1,
            "catchTime": 1680854789047,
            "trialTime": 0
        },
        {
            "exptPart": "trial",
            "trialNumber": 92,
            "roleCurrent": "receiver",
            "marblesSampled": 100,
            "probRed": 0.5,
            "practiceLambda": 5,
            "trialLambda": 8.1,
            "instructedLambda": "honest",
            "drawnRed": 21,
            "reportedRed": 34,
            "inferredRed": 38,
            "playerTrialScore": -17,
            "oppTrialScore": 17,
            "playerTotalScore": -944,
            "oppTotalScore": 944,
            "waitTime": 7144.459865887679,
            "responseTime": 1680854811536,
            "catchQuestion": "How many <b class=\"r\">red<\/b> marbles did your opponent report drawing? ",
            "catchKey": -1,
            "catchResponse": -1,
            "catchTime": 1680854789047,
            "trialTime": 0
        },
        {
            "exptPart": "trial",
            "trialNumber": 93,
            "roleCurrent": "receiver",
            "marblesSampled": 100,
            "probRed": 0.5,
            "practiceLambda": 5,
            "trialLambda": 8.1,
            "instructedLambda": "honest",
            "drawnRed": 21,
            "reportedRed": 31,
            "inferredRed": 31,
            "playerTrialScore": -10,
            "oppTrialScore": 10,
            "playerTotalScore": -954,
            "oppTotalScore": 954,
            "waitTime": 5933.056629068654,
            "responseTime": 1680854824186,
            "catchQuestion": "How many <b class=\"r\">red<\/b> marbles did your opponent report drawing? ",
            "catchKey": -1,
            "catchResponse": -1,
            "catchTime": 1680854789047,
            "trialTime": 0
        },
        {
            "exptPart": "trial",
            "trialNumber": 94,
            "roleCurrent": "receiver",
            "marblesSampled": 100,
            "probRed": 0.5,
            "practiceLambda": 5,
            "trialLambda": 8.1,
            "instructedLambda": "honest",
            "drawnRed": 18,
            "reportedRed": 22,
            "inferredRed": 20,
            "playerTrialScore": -2,
            "oppTrialScore": 2,
            "playerTotalScore": -956,
            "oppTotalScore": 956,
            "waitTime": 6406.838192560662,
            "responseTime": 1680854834370,
            "catchQuestion": "How many <b class=\"r\">red<\/b> marbles did your opponent report drawing? ",
            "catchKey": -1,
            "catchResponse": -1,
            "catchTime": 1680854789047,
            "trialTime": 0
        },
        {
            "exptPart": "trial",
            "trialNumber": 95,
            "roleCurrent": "receiver",
            "marblesSampled": 100,
            "probRed": 0.5,
            "practiceLambda": 5,
            "trialLambda": 8.1,
            "instructedLambda": "honest",
            "drawnRed": 69,
            "reportedRed": 84,
            "inferredRed": 90,
            "playerTrialScore": -21,
            "oppTrialScore": 21,
            "playerTotalScore": -977,
            "oppTotalScore": 977,
            "waitTime": 6173.908763020383,
            "responseTime": 1680854846704,
            "catchQuestion": "How many <b class=\"r\">red<\/b> marbles did your opponent report drawing? ",
            "catchKey": -1,
            "catchResponse": -1,
            "catchTime": 1680854789047,
            "trialTime": 0
        },
        {
            "exptPart": "trial",
            "trialNumber": 96,
            "roleCurrent": "receiver",
            "marblesSampled": 100,
            "probRed": 0.5,
            "practiceLambda": 5,
            "trialLambda": 8.1,
            "instructedLambda": "honest",
            "drawnRed": 86,
            "reportedRed": 92,
            "inferredRed": 92,
            "playerTrialScore": -6,
            "oppTrialScore": 6,
            "playerTotalScore": -983,
            "oppTotalScore": 983,
            "waitTime": 7058.498794331226,
            "responseTime": 1680854861058,
            "catchQuestion": "How many <b class=\"r\">red<\/b> marbles did your opponent report drawing? ",
            "catchKey": -1,
            "catchResponse": -1,
            "catchTime": 1680854789047,
            "trialTime": 0
        },
        {
            "exptPart": "trial",
            "trialNumber": 97,
            "roleCurrent": "receiver",
            "marblesSampled": 100,
            "probRed": 0.5,
            "practiceLambda": 5,
            "trialLambda": 8.1,
            "instructedLambda": "honest",
            "drawnRed": 52,
            "reportedRed": 58,
            "inferredRed": 58,
            "playerTrialScore": -6,
            "oppTrialScore": 6,
            "playerTotalScore": -989,
            "oppTotalScore": 989,
            "waitTime": 6046.304536540696,
            "responseTime": 1680854870909,
            "catchQuestion": "How many <b class=\"r\">red<\/b> marbles did your opponent report drawing? ",
            "catchKey": -1,
            "catchResponse": -1,
            "catchTime": 1680854789047,
            "trialTime": 0
        },
        {
            "exptPart": "trial",
            "trialNumber": 98,
            "roleCurrent": "receiver",
            "marblesSampled": 100,
            "probRed": 0.5,
            "practiceLambda": 5,
            "trialLambda": 8.1,
            "instructedLambda": "honest",
            "drawnRed": 18,
            "reportedRed": 24,
            "inferredRed": 24,
            "playerTrialScore": -6,
            "oppTrialScore": 6,
            "playerTotalScore": -995,
            "oppTotalScore": 995,
            "waitTime": 7375.668548750235,
            "responseTime": 1680854886016,
            "catchQuestion": "How many <b class=\"r\">red<\/b> marbles did your opponent report drawing? ",
            "catchKey": -1,
            "catchResponse": -1,
            "catchTime": 1680854789047,
            "trialTime": 0
        },
        {
            "exptPart": "trial",
            "trialNumber": 99,
            "roleCurrent": "receiver",
            "marblesSampled": 100,
            "probRed": 0.5,
            "practiceLambda": 5,
            "trialLambda": 8.1,
            "instructedLambda": "honest",
            "drawnRed": 26,
            "reportedRed": 30,
            "inferredRed": 29,
            "playerTrialScore": -3,
            "oppTrialScore": 3,
            "playerTotalScore": -998,
            "oppTotalScore": 998,
            "waitTime": 6739.792985215126,
            "responseTime": 1680854896313,
            "catchQuestion": "How many <b class=\"r\">red<\/b> marbles did your opponent report drawing? ",
            "catchKey": -1,
            "catchResponse": -1,
            "catchTime": 1680854789047,
            "trialTime": 0
        },
        {
            "exptPart": "trial",
            "trialNumber": 100,
            "roleCurrent": "receiver",
            "marblesSampled": 100,
            "probRed": 0.5,
            "practiceLambda": 5,
            "trialLambda": 8.1,
            "instructedLambda": "honest",
            "drawnRed": 36,
            "reportedRed": 44,
            "inferredRed": 50,
            "playerTrialScore": -14,
            "oppTrialScore": 14,
            "playerTotalScore": -1012,
            "oppTotalScore": 1012,
            "waitTime": 6312.632135810786,
            "responseTime": 1680854907095,
            "catchQuestion": "How many <b class=\"r\">red<\/b> marbles did your opponent report drawing? ",
            "catchKey": -1,
            "catchResponse": -1,
            "catchTime": 1680854907095,
            "trialTime": 0
        }
    ]
}