{
    "client": {
        "type": "sona",
        "experiment_id": 2228,
        "credit_token": "b315147ae43241ea9c65086cb510cfb7",
        "survey_code": "36185",
        "sid": "sona-36185",
        "window": {
            "width": 1440,
            "height": 745
        },
        "screen": {
            "width": 1440,
            "height": 900
        },
        "userAgent": "Mozilla\/5.0 (Macintosh; Intel Mac OS X 10_15_7) AppleWebKit\/537.36 (KHTML, like Gecko) Chrome\/111.0.0.0 Safari\/537.36",
        "score": 0,
        "bonus": 0
    },
    "expt": {
        "saveURL": "submit.simple.php",
        "trials": 100,
        "practiceTrials": 2,
        "marblesSampled": 100,
        "probRed": 0.5,
        "practiceLambdaAI": 5,
        "lambdaAI": 0.3,
        "roles": [
            "sender",
            "receiver"
        ],
        "cost": "unif",
        "goal": "over",
        "oppDishonesty": "dishonest_small",
        "catchTrials": [
            37,
            33,
            93,
            84,
            39,
            71,
            24,
            79,
            48,
            10
        ],
        "scoreTotal": {
            "player": -89,
            "opp": 25
        },
        "sona": {
            "experiment_id": 2228,
            "credit_token": "b315147ae43241ea9c65086cb510cfb7"
        },
        "pilot": false,
        "debug": false
    },
    "trials": [
        {
            "exptPart": "practice",
            "trialNumber": 1,
            "roleCurrent": "sender",
            "marblesSampled": 100,
            "probRed": 0.5,
            "practiceLambda": 5,
            "trialLambda": 0.3,
            "instructedLambda": "dishonest_small",
            "drawnRed": 51,
            "reportedRed": 57,
            "inferredRed": 55,
            "playerTrialScore": 4,
            "oppTrialScore": -4,
            "playerTotalScore": 4,
            "oppTotalScore": -4,
            "waitTime": 3057.6183528462984,
            "responseTime": 1680742645250,
            "catchQuestion": "How many <b class=\"r\">red<\/b> marbles did you actually draw (before any changes)? ",
            "catchKey": 51,
            "catchResponse": 51,
            "catchTime": 1680742645250,
            "trialTime": 0
        },
        {
            "exptPart": "practice",
            "trialNumber": 2,
            "roleCurrent": "receiver",
            "marblesSampled": 100,
            "probRed": 0.5,
            "practiceLambda": 5,
            "trialLambda": 0.3,
            "instructedLambda": "dishonest_small",
            "drawnRed": 31,
            "reportedRed": 33,
            "inferredRed": 33,
            "playerTrialScore": -2,
            "oppTrialScore": 2,
            "playerTotalScore": 2,
            "oppTotalScore": -2,
            "waitTime": 7089.1593733466325,
            "responseTime": 1680742689221,
            "catchQuestion": "How many <b class=\"r\">red<\/b> marbles did your opponent report drawing? ",
            "catchKey": 33,
            "catchResponse": 33,
            "catchTime": 1680742689221,
            "trialTime": 0
        },
        {
            "exptPart": "trial",
            "trialNumber": 1,
            "roleCurrent": "receiver",
            "marblesSampled": 100,
            "probRed": 0.5,
            "practiceLambda": 5,
            "trialLambda": 0.3,
            "instructedLambda": "dishonest_small",
            "drawnRed": 44,
            "reportedRed": 44,
            "inferredRed": 44,
            "playerTrialScore": 0,
            "oppTrialScore": 0,
            "playerTotalScore": 0,
            "oppTotalScore": 0,
            "waitTime": 6626.312798114157,
            "responseTime": 1680742736814,
            "catchQuestion": "How many <b class=\"r\">red<\/b> marbles did your opponent report drawing? ",
            "catchKey": -1,
            "catchResponse": -1,
            "catchTime": 1680742689221,
            "trialTime": 0
        },
        {
            "exptPart": "trial",
            "trialNumber": 2,
            "roleCurrent": "receiver",
            "marblesSampled": 100,
            "probRed": 0.5,
            "practiceLambda": 5,
            "trialLambda": 0.3,
            "instructedLambda": "dishonest_small",
            "drawnRed": 53,
            "reportedRed": 53,
            "inferredRed": 51,
            "playerTrialScore": -2,
            "oppTrialScore": 0,
            "playerTotalScore": -2,
            "oppTotalScore": 0,
            "waitTime": 5923.581092219651,
            "responseTime": 1680742748067,
            "catchQuestion": "How many <b class=\"r\">red<\/b> marbles did your opponent report drawing? ",
            "catchKey": -1,
            "catchResponse": -1,
            "catchTime": 1680742689221,
            "trialTime": 0
        },
        {
            "exptPart": "trial",
            "trialNumber": 3,
            "roleCurrent": "receiver",
            "marblesSampled": 100,
            "probRed": 0.5,
            "practiceLambda": 5,
            "trialLambda": 0.3,
            "instructedLambda": "dishonest_small",
            "drawnRed": 42,
            "reportedRed": 43,
            "inferredRed": 40,
            "playerTrialScore": -2,
            "oppTrialScore": 0,
            "playerTotalScore": -4,
            "oppTotalScore": 0,
            "waitTime": 7155.399807678861,
            "responseTime": 1680742760720,
            "catchQuestion": "How many <b class=\"r\">red<\/b> marbles did your opponent report drawing? ",
            "catchKey": -1,
            "catchResponse": -1,
            "catchTime": 1680742689221,
            "trialTime": 0
        },
        {
            "exptPart": "trial",
            "trialNumber": 4,
            "roleCurrent": "receiver",
            "marblesSampled": 100,
            "probRed": 0.5,
            "practiceLambda": 5,
            "trialLambda": 0.3,
            "instructedLambda": "dishonest_small",
            "drawnRed": 51,
            "reportedRed": 51,
            "inferredRed": 51,
            "playerTrialScore": 0,
            "oppTrialScore": 0,
            "playerTotalScore": -4,
            "oppTotalScore": 0,
            "waitTime": 5570.160103730387,
            "responseTime": 1680742772003,
            "catchQuestion": "How many <b class=\"r\">red<\/b> marbles did your opponent report drawing? ",
            "catchKey": -1,
            "catchResponse": -1,
            "catchTime": 1680742689221,
            "trialTime": 0
        },
        {
            "exptPart": "trial",
            "trialNumber": 5,
            "roleCurrent": "receiver",
            "marblesSampled": 100,
            "probRed": 0.5,
            "practiceLambda": 5,
            "trialLambda": 0.3,
            "instructedLambda": "dishonest_small",
            "drawnRed": 69,
            "reportedRed": 69,
            "inferredRed": 66,
            "playerTrialScore": -3,
            "oppTrialScore": 0,
            "playerTotalScore": -7,
            "oppTotalScore": 0,
            "waitTime": 5542.386834408878,
            "responseTime": 1680742784427,
            "catchQuestion": "How many <b class=\"r\">red<\/b> marbles did your opponent report drawing? ",
            "catchKey": -1,
            "catchResponse": -1,
            "catchTime": 1680742689221,
            "trialTime": 0
        },
        {
            "exptPart": "trial",
            "trialNumber": 6,
            "roleCurrent": "receiver",
            "marblesSampled": 100,
            "probRed": 0.5,
            "practiceLambda": 5,
            "trialLambda": 0.3,
            "instructedLambda": "dishonest_small",
            "drawnRed": 56,
            "reportedRed": 56,
            "inferredRed": 54,
            "playerTrialScore": -2,
            "oppTrialScore": 0,
            "playerTotalScore": -9,
            "oppTotalScore": 0,
            "waitTime": 5658.962913424486,
            "responseTime": 1680742800130,
            "catchQuestion": "How many <b class=\"r\">red<\/b> marbles did your opponent report drawing? ",
            "catchKey": -1,
            "catchResponse": -1,
            "catchTime": 1680742689221,
            "trialTime": 0
        },
        {
            "exptPart": "trial",
            "trialNumber": 7,
            "roleCurrent": "receiver",
            "marblesSampled": 100,
            "probRed": 0.5,
            "practiceLambda": 5,
            "trialLambda": 0.3,
            "instructedLambda": "dishonest_small",
            "drawnRed": 70,
            "reportedRed": 70,
            "inferredRed": 69,
            "playerTrialScore": -1,
            "oppTrialScore": 0,
            "playerTotalScore": -10,
            "oppTotalScore": 0,
            "waitTime": 5250.02297276528,
            "responseTime": 1680742810581,
            "catchQuestion": "How many <b class=\"r\">red<\/b> marbles did your opponent report drawing? ",
            "catchKey": -1,
            "catchResponse": -1,
            "catchTime": 1680742689221,
            "trialTime": 0
        },
        {
            "exptPart": "trial",
            "trialNumber": 8,
            "roleCurrent": "receiver",
            "marblesSampled": 100,
            "probRed": 0.5,
            "practiceLambda": 5,
            "trialLambda": 0.3,
            "instructedLambda": "dishonest_small",
            "drawnRed": 43,
            "reportedRed": 45,
            "inferredRed": 45,
            "playerTrialScore": -2,
            "oppTrialScore": 2,
            "playerTotalScore": -12,
            "oppTotalScore": 2,
            "waitTime": 5148.8170354058075,
            "responseTime": 1680742818550,
            "catchQuestion": "How many <b class=\"r\">red<\/b> marbles did your opponent report drawing? ",
            "catchKey": -1,
            "catchResponse": -1,
            "catchTime": 1680742689221,
            "trialTime": 0
        },
        {
            "exptPart": "trial",
            "trialNumber": 9,
            "roleCurrent": "receiver",
            "marblesSampled": 100,
            "probRed": 0.5,
            "practiceLambda": 5,
            "trialLambda": 0.3,
            "instructedLambda": "dishonest_small",
            "drawnRed": 43,
            "reportedRed": 44,
            "inferredRed": 44,
            "playerTrialScore": -1,
            "oppTrialScore": 1,
            "playerTotalScore": -13,
            "oppTotalScore": 3,
            "waitTime": 5368.699131685486,
            "responseTime": 1680742837453,
            "catchQuestion": "How many <b class=\"r\">red<\/b> marbles did your opponent report drawing? ",
            "catchKey": -1,
            "catchResponse": -1,
            "catchTime": 1680742689221,
            "trialTime": 0
        },
        {
            "exptPart": "trial",
            "trialNumber": 10,
            "roleCurrent": "receiver",
            "marblesSampled": 100,
            "probRed": 0.5,
            "practiceLambda": 5,
            "trialLambda": 0.3,
            "instructedLambda": "dishonest_small",
            "drawnRed": 37,
            "reportedRed": 38,
            "inferredRed": 37,
            "playerTrialScore": 0,
            "oppTrialScore": 0,
            "playerTotalScore": -13,
            "oppTotalScore": 3,
            "waitTime": 5874.469008394872,
            "responseTime": 1680742848132,
            "catchQuestion": "How many <b class=\"r\">red<\/b> marbles did your opponent report drawing? ",
            "catchKey": -1,
            "catchResponse": -1,
            "catchTime": 1680742848132,
            "trialTime": 0
        },
        {
            "exptPart": "trial",
            "trialNumber": 11,
            "roleCurrent": "receiver",
            "marblesSampled": 100,
            "probRed": 0.5,
            "practiceLambda": 5,
            "trialLambda": 0.3,
            "instructedLambda": "dishonest_small",
            "drawnRed": 47,
            "reportedRed": 48,
            "inferredRed": 45,
            "playerTrialScore": -2,
            "oppTrialScore": 0,
            "playerTotalScore": -15,
            "oppTotalScore": 3,
            "waitTime": 5265.506887576999,
            "responseTime": 1680742875044,
            "catchQuestion": "How many <b class=\"r\">red<\/b> marbles did your opponent report drawing? ",
            "catchKey": 48,
            "catchResponse": 48,
            "catchTime": 1680742875044,
            "trialTime": 0
        },
        {
            "exptPart": "trial",
            "trialNumber": 12,
            "roleCurrent": "receiver",
            "marblesSampled": 100,
            "probRed": 0.5,
            "practiceLambda": 5,
            "trialLambda": 0.3,
            "instructedLambda": "dishonest_small",
            "drawnRed": 31,
            "reportedRed": 32,
            "inferredRed": 32,
            "playerTrialScore": -1,
            "oppTrialScore": 1,
            "playerTotalScore": -16,
            "oppTotalScore": 4,
            "waitTime": 6871.8666339429,
            "responseTime": 1680742892943,
            "catchQuestion": "How many <b class=\"r\">red<\/b> marbles did your opponent report drawing? ",
            "catchKey": -1,
            "catchResponse": -1,
            "catchTime": 1680742875044,
            "trialTime": 0
        },
        {
            "exptPart": "trial",
            "trialNumber": 13,
            "roleCurrent": "receiver",
            "marblesSampled": 100,
            "probRed": 0.5,
            "practiceLambda": 5,
            "trialLambda": 0.3,
            "instructedLambda": "dishonest_small",
            "drawnRed": 63,
            "reportedRed": 63,
            "inferredRed": 61,
            "playerTrialScore": -2,
            "oppTrialScore": 0,
            "playerTotalScore": -18,
            "oppTotalScore": 4,
            "waitTime": 6437.115584580691,
            "responseTime": 1680742904181,
            "catchQuestion": "How many <b class=\"r\">red<\/b> marbles did your opponent report drawing? ",
            "catchKey": -1,
            "catchResponse": -1,
            "catchTime": 1680742875044,
            "trialTime": 0
        },
        {
            "exptPart": "trial",
            "trialNumber": 14,
            "roleCurrent": "receiver",
            "marblesSampled": 100,
            "probRed": 0.5,
            "practiceLambda": 5,
            "trialLambda": 0.3,
            "instructedLambda": "dishonest_small",
            "drawnRed": 45,
            "reportedRed": 45,
            "inferredRed": 43,
            "playerTrialScore": -2,
            "oppTrialScore": 0,
            "playerTotalScore": -20,
            "oppTotalScore": 4,
            "waitTime": 7087.100421979199,
            "responseTime": 1680742916437,
            "catchQuestion": "How many <b class=\"r\">red<\/b> marbles did your opponent report drawing? ",
            "catchKey": -1,
            "catchResponse": -1,
            "catchTime": 1680742875044,
            "trialTime": 0
        },
        {
            "exptPart": "trial",
            "trialNumber": 15,
            "roleCurrent": "receiver",
            "marblesSampled": 100,
            "probRed": 0.5,
            "practiceLambda": 5,
            "trialLambda": 0.3,
            "instructedLambda": "dishonest_small",
            "drawnRed": 39,
            "reportedRed": 39,
            "inferredRed": 38,
            "playerTrialScore": -1,
            "oppTrialScore": 0,
            "playerTotalScore": -21,
            "oppTotalScore": 4,
            "waitTime": 6139.525485748871,
            "responseTime": 1680742927236,
            "catchQuestion": "How many <b class=\"r\">red<\/b> marbles did your opponent report drawing? ",
            "catchKey": -1,
            "catchResponse": -1,
            "catchTime": 1680742875044,
            "trialTime": 0
        },
        {
            "exptPart": "trial",
            "trialNumber": 16,
            "roleCurrent": "receiver",
            "marblesSampled": 100,
            "probRed": 0.5,
            "practiceLambda": 5,
            "trialLambda": 0.3,
            "instructedLambda": "dishonest_small",
            "drawnRed": 25,
            "reportedRed": 25,
            "inferredRed": 25,
            "playerTrialScore": 0,
            "oppTrialScore": 0,
            "playerTotalScore": -21,
            "oppTotalScore": 4,
            "waitTime": 5689.653972406901,
            "responseTime": 1680742936980,
            "catchQuestion": "How many <b class=\"r\">red<\/b> marbles did your opponent report drawing? ",
            "catchKey": -1,
            "catchResponse": -1,
            "catchTime": 1680742875044,
            "trialTime": 0
        },
        {
            "exptPart": "trial",
            "trialNumber": 17,
            "roleCurrent": "receiver",
            "marblesSampled": 100,
            "probRed": 0.5,
            "practiceLambda": 5,
            "trialLambda": 0.3,
            "instructedLambda": "dishonest_small",
            "drawnRed": 69,
            "reportedRed": 69,
            "inferredRed": 67,
            "playerTrialScore": -2,
            "oppTrialScore": 0,
            "playerTotalScore": -23,
            "oppTotalScore": 4,
            "waitTime": 5840.750576652664,
            "responseTime": 1680742947393,
            "catchQuestion": "How many <b class=\"r\">red<\/b> marbles did your opponent report drawing? ",
            "catchKey": -1,
            "catchResponse": -1,
            "catchTime": 1680742875044,
            "trialTime": 0
        },
        {
            "exptPart": "trial",
            "trialNumber": 18,
            "roleCurrent": "receiver",
            "marblesSampled": 100,
            "probRed": 0.5,
            "practiceLambda": 5,
            "trialLambda": 0.3,
            "instructedLambda": "dishonest_small",
            "drawnRed": 83,
            "reportedRed": 83,
            "inferredRed": 81,
            "playerTrialScore": -2,
            "oppTrialScore": 0,
            "playerTotalScore": -25,
            "oppTotalScore": 4,
            "waitTime": 5676.270759173223,
            "responseTime": 1680742962015,
            "catchQuestion": "How many <b class=\"r\">red<\/b> marbles did your opponent report drawing? ",
            "catchKey": -1,
            "catchResponse": -1,
            "catchTime": 1680742875044,
            "trialTime": 0
        },
        {
            "exptPart": "trial",
            "trialNumber": 19,
            "roleCurrent": "receiver",
            "marblesSampled": 100,
            "probRed": 0.5,
            "practiceLambda": 5,
            "trialLambda": 0.3,
            "instructedLambda": "dishonest_small",
            "drawnRed": 37,
            "reportedRed": 38,
            "inferredRed": 37,
            "playerTrialScore": 0,
            "oppTrialScore": 0,
            "playerTotalScore": -25,
            "oppTotalScore": 4,
            "waitTime": 5728.654707029346,
            "responseTime": 1680742971178,
            "catchQuestion": "How many <b class=\"r\">red<\/b> marbles did your opponent report drawing? ",
            "catchKey": -1,
            "catchResponse": -1,
            "catchTime": 1680742875044,
            "trialTime": 0
        },
        {
            "exptPart": "trial",
            "trialNumber": 20,
            "roleCurrent": "receiver",
            "marblesSampled": 100,
            "probRed": 0.5,
            "practiceLambda": 5,
            "trialLambda": 0.3,
            "instructedLambda": "dishonest_small",
            "drawnRed": 24,
            "reportedRed": 24,
            "inferredRed": 24,
            "playerTrialScore": 0,
            "oppTrialScore": 0,
            "playerTotalScore": -25,
            "oppTotalScore": 4,
            "waitTime": 5127.599992736841,
            "responseTime": 1680742979657,
            "catchQuestion": "How many <b class=\"r\">red<\/b> marbles did your opponent report drawing? ",
            "catchKey": -1,
            "catchResponse": -1,
            "catchTime": 1680742979657,
            "trialTime": 0
        },
        {
            "exptPart": "trial",
            "trialNumber": 21,
            "roleCurrent": "receiver",
            "marblesSampled": 100,
            "probRed": 0.5,
            "practiceLambda": 5,
            "trialLambda": 0.3,
            "instructedLambda": "dishonest_small",
            "drawnRed": 61,
            "reportedRed": 61,
            "inferredRed": 58,
            "playerTrialScore": -3,
            "oppTrialScore": 0,
            "playerTotalScore": -28,
            "oppTotalScore": 4,
            "waitTime": 5422.9437350638345,
            "responseTime": 1680742996416,
            "catchQuestion": "How many <b class=\"r\">red<\/b> marbles did your opponent report drawing? ",
            "catchKey": -1,
            "catchResponse": -1,
            "catchTime": 1680742979657,
            "trialTime": 0
        },
        {
            "exptPart": "trial",
            "trialNumber": 22,
            "roleCurrent": "receiver",
            "marblesSampled": 100,
            "probRed": 0.5,
            "practiceLambda": 5,
            "trialLambda": 0.3,
            "instructedLambda": "dishonest_small",
            "drawnRed": 74,
            "reportedRed": 74,
            "inferredRed": 70,
            "playerTrialScore": -4,
            "oppTrialScore": 0,
            "playerTotalScore": -32,
            "oppTotalScore": 4,
            "waitTime": 5934.424547406374,
            "responseTime": 1680743006409,
            "catchQuestion": "How many <b class=\"r\">red<\/b> marbles did your opponent report drawing? ",
            "catchKey": -1,
            "catchResponse": -1,
            "catchTime": 1680742979657,
            "trialTime": 0
        },
        {
            "exptPart": "trial",
            "trialNumber": 23,
            "roleCurrent": "receiver",
            "marblesSampled": 100,
            "probRed": 0.5,
            "practiceLambda": 5,
            "trialLambda": 0.3,
            "instructedLambda": "dishonest_small",
            "drawnRed": 62,
            "reportedRed": 62,
            "inferredRed": 59,
            "playerTrialScore": -3,
            "oppTrialScore": 0,
            "playerTotalScore": -35,
            "oppTotalScore": 4,
            "waitTime": 6724.6810154297345,
            "responseTime": 1680743018159,
            "catchQuestion": "How many <b class=\"r\">red<\/b> marbles did your opponent report drawing? ",
            "catchKey": -1,
            "catchResponse": -1,
            "catchTime": 1680742979657,
            "trialTime": 0
        },
        {
            "exptPart": "trial",
            "trialNumber": 24,
            "roleCurrent": "receiver",
            "marblesSampled": 100,
            "probRed": 0.5,
            "practiceLambda": 5,
            "trialLambda": 0.3,
            "instructedLambda": "dishonest_small",
            "drawnRed": 40,
            "reportedRed": 40,
            "inferredRed": 38,
            "playerTrialScore": -2,
            "oppTrialScore": 0,
            "playerTotalScore": -37,
            "oppTotalScore": 4,
            "waitTime": 5134.004837377413,
            "responseTime": 1680743026845,
            "catchQuestion": "How many <b class=\"r\">red<\/b> marbles did your opponent report drawing? ",
            "catchKey": -1,
            "catchResponse": -1,
            "catchTime": 1680742979657,
            "trialTime": 0
        },
        {
            "exptPart": "trial",
            "trialNumber": 25,
            "roleCurrent": "receiver",
            "marblesSampled": 100,
            "probRed": 0.5,
            "practiceLambda": 5,
            "trialLambda": 0.3,
            "instructedLambda": "dishonest_small",
            "drawnRed": 33,
            "reportedRed": 33,
            "inferredRed": 31,
            "playerTrialScore": -2,
            "oppTrialScore": 0,
            "playerTotalScore": -39,
            "oppTotalScore": 4,
            "waitTime": 6647.877631855987,
            "responseTime": 1680743036671,
            "catchQuestion": "How many <b class=\"r\">red<\/b> marbles did your opponent report drawing? ",
            "catchKey": 33,
            "catchResponse": 33,
            "catchTime": 1680743036671,
            "trialTime": 0
        },
        {
            "exptPart": "trial",
            "trialNumber": 26,
            "roleCurrent": "receiver",
            "marblesSampled": 100,
            "probRed": 0.5,
            "practiceLambda": 5,
            "trialLambda": 0.3,
            "instructedLambda": "dishonest_small",
            "drawnRed": 59,
            "reportedRed": 59,
            "inferredRed": 60,
            "playerTrialScore": -1,
            "oppTrialScore": 1,
            "playerTotalScore": -40,
            "oppTotalScore": 5,
            "waitTime": 5753.408879371866,
            "responseTime": 1680743059889,
            "catchQuestion": "How many <b class=\"r\">red<\/b> marbles did your opponent report drawing? ",
            "catchKey": -1,
            "catchResponse": -1,
            "catchTime": 1680743036671,
            "trialTime": 0
        },
        {
            "exptPart": "trial",
            "trialNumber": 27,
            "roleCurrent": "receiver",
            "marblesSampled": 100,
            "probRed": 0.5,
            "practiceLambda": 5,
            "trialLambda": 0.3,
            "instructedLambda": "dishonest_small",
            "drawnRed": 87,
            "reportedRed": 87,
            "inferredRed": 86,
            "playerTrialScore": -1,
            "oppTrialScore": 0,
            "playerTotalScore": -41,
            "oppTotalScore": 5,
            "waitTime": 7274.567886917901,
            "responseTime": 1680743070689,
            "catchQuestion": "How many <b class=\"r\">red<\/b> marbles did your opponent report drawing? ",
            "catchKey": -1,
            "catchResponse": -1,
            "catchTime": 1680743036671,
            "trialTime": 0
        },
        {
            "exptPart": "trial",
            "trialNumber": 28,
            "roleCurrent": "receiver",
            "marblesSampled": 100,
            "probRed": 0.5,
            "practiceLambda": 5,
            "trialLambda": 0.3,
            "instructedLambda": "dishonest_small",
            "drawnRed": 86,
            "reportedRed": 86,
            "inferredRed": 86,
            "playerTrialScore": 0,
            "oppTrialScore": 0,
            "playerTotalScore": -41,
            "oppTotalScore": 5,
            "waitTime": 5248.2048771243735,
            "responseTime": 1680743080857,
            "catchQuestion": "How many <b class=\"r\">red<\/b> marbles did your opponent report drawing? ",
            "catchKey": -1,
            "catchResponse": -1,
            "catchTime": 1680743036671,
            "trialTime": 0
        },
        {
            "exptPart": "trial",
            "trialNumber": 29,
            "roleCurrent": "receiver",
            "marblesSampled": 100,
            "probRed": 0.5,
            "practiceLambda": 5,
            "trialLambda": 0.3,
            "instructedLambda": "dishonest_small",
            "drawnRed": 83,
            "reportedRed": 83,
            "inferredRed": 85,
            "playerTrialScore": -2,
            "oppTrialScore": 2,
            "playerTotalScore": -43,
            "oppTotalScore": 7,
            "waitTime": 7009.974692823,
            "responseTime": 1680743092156,
            "catchQuestion": "How many <b class=\"r\">red<\/b> marbles did your opponent report drawing? ",
            "catchKey": -1,
            "catchResponse": -1,
            "catchTime": 1680743036671,
            "trialTime": 0
        },
        {
            "exptPart": "trial",
            "trialNumber": 30,
            "roleCurrent": "receiver",
            "marblesSampled": 100,
            "probRed": 0.5,
            "practiceLambda": 5,
            "trialLambda": 0.3,
            "instructedLambda": "dishonest_small",
            "drawnRed": 43,
            "reportedRed": 43,
            "inferredRed": 43,
            "playerTrialScore": 0,
            "oppTrialScore": 0,
            "playerTotalScore": -43,
            "oppTotalScore": 7,
            "waitTime": 7075.146853267271,
            "responseTime": 1680743102844,
            "catchQuestion": "How many <b class=\"r\">red<\/b> marbles did your opponent report drawing? ",
            "catchKey": -1,
            "catchResponse": -1,
            "catchTime": 1680743102844,
            "trialTime": 0
        },
        {
            "exptPart": "trial",
            "trialNumber": 31,
            "roleCurrent": "receiver",
            "marblesSampled": 100,
            "probRed": 0.5,
            "practiceLambda": 5,
            "trialLambda": 0.3,
            "instructedLambda": "dishonest_small",
            "drawnRed": 65,
            "reportedRed": 66,
            "inferredRed": 65,
            "playerTrialScore": 0,
            "oppTrialScore": 0,
            "playerTotalScore": -43,
            "oppTotalScore": 7,
            "waitTime": 5161.427388922235,
            "responseTime": 1680743140990,
            "catchQuestion": "How many <b class=\"r\">red<\/b> marbles did your opponent report drawing? ",
            "catchKey": -1,
            "catchResponse": -1,
            "catchTime": 1680743102844,
            "trialTime": 0
        },
        {
            "exptPart": "trial",
            "trialNumber": 32,
            "roleCurrent": "receiver",
            "marblesSampled": 100,
            "probRed": 0.5,
            "practiceLambda": 5,
            "trialLambda": 0.3,
            "instructedLambda": "dishonest_small",
            "drawnRed": 43,
            "reportedRed": 43,
            "inferredRed": 42,
            "playerTrialScore": -1,
            "oppTrialScore": 0,
            "playerTotalScore": -44,
            "oppTotalScore": 7,
            "waitTime": 5322.248229388174,
            "responseTime": 1680743149800,
            "catchQuestion": "How many <b class=\"r\">red<\/b> marbles did your opponent report drawing? ",
            "catchKey": -1,
            "catchResponse": -1,
            "catchTime": 1680743102844,
            "trialTime": 0
        },
        {
            "exptPart": "trial",
            "trialNumber": 33,
            "roleCurrent": "receiver",
            "marblesSampled": 100,
            "probRed": 0.5,
            "practiceLambda": 5,
            "trialLambda": 0.3,
            "instructedLambda": "dishonest_small",
            "drawnRed": 68,
            "reportedRed": 68,
            "inferredRed": 67,
            "playerTrialScore": -1,
            "oppTrialScore": 0,
            "playerTotalScore": -45,
            "oppTotalScore": 7,
            "waitTime": 7460.2051895707855,
            "responseTime": 1680743161267,
            "catchQuestion": "How many <b class=\"r\">red<\/b> marbles did your opponent report drawing? ",
            "catchKey": -1,
            "catchResponse": -1,
            "catchTime": 1680743102844,
            "trialTime": 0
        },
        {
            "exptPart": "trial",
            "trialNumber": 34,
            "roleCurrent": "receiver",
            "marblesSampled": 100,
            "probRed": 0.5,
            "practiceLambda": 5,
            "trialLambda": 0.3,
            "instructedLambda": "dishonest_small",
            "drawnRed": 44,
            "reportedRed": 45,
            "inferredRed": 44,
            "playerTrialScore": 0,
            "oppTrialScore": 0,
            "playerTotalScore": -45,
            "oppTotalScore": 7,
            "waitTime": 6142.954758017235,
            "responseTime": 1680743170864,
            "catchQuestion": "How many <b class=\"r\">red<\/b> marbles did your opponent report drawing? ",
            "catchKey": 45,
            "catchResponse": 45,
            "catchTime": 1680743170864,
            "trialTime": 0
        },
        {
            "exptPart": "trial",
            "trialNumber": 35,
            "roleCurrent": "receiver",
            "marblesSampled": 100,
            "probRed": 0.5,
            "practiceLambda": 5,
            "trialLambda": 0.3,
            "instructedLambda": "dishonest_small",
            "drawnRed": 52,
            "reportedRed": 52,
            "inferredRed": 50,
            "playerTrialScore": -2,
            "oppTrialScore": 0,
            "playerTotalScore": -47,
            "oppTotalScore": 7,
            "waitTime": 5492.83022962158,
            "responseTime": 1680743183917,
            "catchQuestion": "How many <b class=\"r\">red<\/b> marbles did your opponent report drawing? ",
            "catchKey": -1,
            "catchResponse": -1,
            "catchTime": 1680743170864,
            "trialTime": 0
        },
        {
            "exptPart": "trial",
            "trialNumber": 36,
            "roleCurrent": "receiver",
            "marblesSampled": 100,
            "probRed": 0.5,
            "practiceLambda": 5,
            "trialLambda": 0.3,
            "instructedLambda": "dishonest_small",
            "drawnRed": 50,
            "reportedRed": 51,
            "inferredRed": 50,
            "playerTrialScore": 0,
            "oppTrialScore": 0,
            "playerTotalScore": -47,
            "oppTotalScore": 7,
            "waitTime": 6341.643655202337,
            "responseTime": 1680743195244,
            "catchQuestion": "How many <b class=\"r\">red<\/b> marbles did your opponent report drawing? ",
            "catchKey": -1,
            "catchResponse": -1,
            "catchTime": 1680743170864,
            "trialTime": 0
        },
        {
            "exptPart": "trial",
            "trialNumber": 37,
            "roleCurrent": "receiver",
            "marblesSampled": 100,
            "probRed": 0.5,
            "practiceLambda": 5,
            "trialLambda": 0.3,
            "instructedLambda": "dishonest_small",
            "drawnRed": 49,
            "reportedRed": 50,
            "inferredRed": 48,
            "playerTrialScore": -1,
            "oppTrialScore": 0,
            "playerTotalScore": -48,
            "oppTotalScore": 7,
            "waitTime": 7297.65349153617,
            "responseTime": 1680743208321,
            "catchQuestion": "How many <b class=\"r\">red<\/b> marbles did your opponent report drawing? ",
            "catchKey": -1,
            "catchResponse": -1,
            "catchTime": 1680743170864,
            "trialTime": 0
        },
        {
            "exptPart": "trial",
            "trialNumber": 38,
            "roleCurrent": "receiver",
            "marblesSampled": 100,
            "probRed": 0.5,
            "practiceLambda": 5,
            "trialLambda": 0.3,
            "instructedLambda": "dishonest_small",
            "drawnRed": 85,
            "reportedRed": 85,
            "inferredRed": 83,
            "playerTrialScore": -2,
            "oppTrialScore": 0,
            "playerTotalScore": -50,
            "oppTotalScore": 7,
            "waitTime": 6732.698246439295,
            "responseTime": 1680743227934,
            "catchQuestion": "How many <b class=\"r\">red<\/b> marbles did your opponent report drawing? ",
            "catchKey": 85,
            "catchResponse": 85,
            "catchTime": 1680743227934,
            "trialTime": 0
        },
        {
            "exptPart": "trial",
            "trialNumber": 39,
            "roleCurrent": "receiver",
            "marblesSampled": 100,
            "probRed": 0.5,
            "practiceLambda": 5,
            "trialLambda": 0.3,
            "instructedLambda": "dishonest_small",
            "drawnRed": 29,
            "reportedRed": 29,
            "inferredRed": 28,
            "playerTrialScore": -1,
            "oppTrialScore": 0,
            "playerTotalScore": -51,
            "oppTotalScore": 7,
            "waitTime": 5206.342607267747,
            "responseTime": 1680743240837,
            "catchQuestion": "How many <b class=\"r\">red<\/b> marbles did your opponent report drawing? ",
            "catchKey": -1,
            "catchResponse": -1,
            "catchTime": 1680743227934,
            "trialTime": 0
        },
        {
            "exptPart": "trial",
            "trialNumber": 40,
            "roleCurrent": "receiver",
            "marblesSampled": 100,
            "probRed": 0.5,
            "practiceLambda": 5,
            "trialLambda": 0.3,
            "instructedLambda": "dishonest_small",
            "drawnRed": 47,
            "reportedRed": 47,
            "inferredRed": 45,
            "playerTrialScore": -2,
            "oppTrialScore": 0,
            "playerTotalScore": -53,
            "oppTotalScore": 7,
            "waitTime": 6831.406564352435,
            "responseTime": 1680743250830,
            "catchQuestion": "How many <b class=\"r\">red<\/b> marbles did your opponent report drawing? ",
            "catchKey": 47,
            "catchResponse": 47,
            "catchTime": 1680743250830,
            "trialTime": 0
        },
        {
            "exptPart": "trial",
            "trialNumber": 41,
            "roleCurrent": "receiver",
            "marblesSampled": 100,
            "probRed": 0.5,
            "practiceLambda": 5,
            "trialLambda": 0.3,
            "instructedLambda": "dishonest_small",
            "drawnRed": 47,
            "reportedRed": 47,
            "inferredRed": 45,
            "playerTrialScore": -2,
            "oppTrialScore": 0,
            "playerTotalScore": -55,
            "oppTotalScore": 7,
            "waitTime": 5455.843533440378,
            "responseTime": 1680743269193,
            "catchQuestion": "How many <b class=\"r\">red<\/b> marbles did your opponent report drawing? ",
            "catchKey": -1,
            "catchResponse": -1,
            "catchTime": 1680743250830,
            "trialTime": 0
        },
        {
            "exptPart": "trial",
            "trialNumber": 42,
            "roleCurrent": "receiver",
            "marblesSampled": 100,
            "probRed": 0.5,
            "practiceLambda": 5,
            "trialLambda": 0.3,
            "instructedLambda": "dishonest_small",
            "drawnRed": 67,
            "reportedRed": 68,
            "inferredRed": 66,
            "playerTrialScore": -1,
            "oppTrialScore": 0,
            "playerTotalScore": -56,
            "oppTotalScore": 7,
            "waitTime": 5873.101271682188,
            "responseTime": 1680743277956,
            "catchQuestion": "How many <b class=\"r\">red<\/b> marbles did your opponent report drawing? ",
            "catchKey": -1,
            "catchResponse": -1,
            "catchTime": 1680743250830,
            "trialTime": 0
        },
        {
            "exptPart": "trial",
            "trialNumber": 43,
            "roleCurrent": "receiver",
            "marblesSampled": 100,
            "probRed": 0.5,
            "practiceLambda": 5,
            "trialLambda": 0.3,
            "instructedLambda": "dishonest_small",
            "drawnRed": 31,
            "reportedRed": 31,
            "inferredRed": 29,
            "playerTrialScore": -2,
            "oppTrialScore": 0,
            "playerTotalScore": -58,
            "oppTotalScore": 7,
            "waitTime": 5356.923480443192,
            "responseTime": 1680743288519,
            "catchQuestion": "How many <b class=\"r\">red<\/b> marbles did your opponent report drawing? ",
            "catchKey": -1,
            "catchResponse": -1,
            "catchTime": 1680743250830,
            "trialTime": 0
        },
        {
            "exptPart": "trial",
            "trialNumber": 44,
            "roleCurrent": "receiver",
            "marblesSampled": 100,
            "probRed": 0.5,
            "practiceLambda": 5,
            "trialLambda": 0.3,
            "instructedLambda": "dishonest_small",
            "drawnRed": 59,
            "reportedRed": 59,
            "inferredRed": 57,
            "playerTrialScore": -2,
            "oppTrialScore": 0,
            "playerTotalScore": -60,
            "oppTotalScore": 7,
            "waitTime": 5408.680061918917,
            "responseTime": 1680743297023,
            "catchQuestion": "How many <b class=\"r\">red<\/b> marbles did your opponent report drawing? ",
            "catchKey": -1,
            "catchResponse": -1,
            "catchTime": 1680743250830,
            "trialTime": 0
        },
        {
            "exptPart": "trial",
            "trialNumber": 45,
            "roleCurrent": "receiver",
            "marblesSampled": 100,
            "probRed": 0.5,
            "practiceLambda": 5,
            "trialLambda": 0.3,
            "instructedLambda": "dishonest_small",
            "drawnRed": 60,
            "reportedRed": 60,
            "inferredRed": 58,
            "playerTrialScore": -2,
            "oppTrialScore": 0,
            "playerTotalScore": -62,
            "oppTotalScore": 7,
            "waitTime": 5547.318170398004,
            "responseTime": 1680743306535,
            "catchQuestion": "How many <b class=\"r\">red<\/b> marbles did your opponent report drawing? ",
            "catchKey": -1,
            "catchResponse": -1,
            "catchTime": 1680743250830,
            "trialTime": 0
        },
        {
            "exptPart": "trial",
            "trialNumber": 46,
            "roleCurrent": "receiver",
            "marblesSampled": 100,
            "probRed": 0.5,
            "practiceLambda": 5,
            "trialLambda": 0.3,
            "instructedLambda": "dishonest_small",
            "drawnRed": 64,
            "reportedRed": 64,
            "inferredRed": 62,
            "playerTrialScore": -2,
            "oppTrialScore": 0,
            "playerTotalScore": -64,
            "oppTotalScore": 7,
            "waitTime": 7451.5499235028165,
            "responseTime": 1680743317338,
            "catchQuestion": "How many <b class=\"r\">red<\/b> marbles did your opponent report drawing? ",
            "catchKey": -1,
            "catchResponse": -1,
            "catchTime": 1680743250830,
            "trialTime": 0
        },
        {
            "exptPart": "trial",
            "trialNumber": 47,
            "roleCurrent": "receiver",
            "marblesSampled": 100,
            "probRed": 0.5,
            "practiceLambda": 5,
            "trialLambda": 0.3,
            "instructedLambda": "dishonest_small",
            "drawnRed": 48,
            "reportedRed": 48,
            "inferredRed": 46,
            "playerTrialScore": -2,
            "oppTrialScore": 0,
            "playerTotalScore": -66,
            "oppTotalScore": 7,
            "waitTime": 6314.814130617635,
            "responseTime": 1680743327304,
            "catchQuestion": "How many <b class=\"r\">red<\/b> marbles did your opponent report drawing? ",
            "catchKey": -1,
            "catchResponse": -1,
            "catchTime": 1680743250830,
            "trialTime": 0
        },
        {
            "exptPart": "trial",
            "trialNumber": 48,
            "roleCurrent": "receiver",
            "marblesSampled": 100,
            "probRed": 0.5,
            "practiceLambda": 5,
            "trialLambda": 0.3,
            "instructedLambda": "dishonest_small",
            "drawnRed": 36,
            "reportedRed": 36,
            "inferredRed": 34,
            "playerTrialScore": -2,
            "oppTrialScore": 0,
            "playerTotalScore": -68,
            "oppTotalScore": 7,
            "waitTime": 5955.963385062998,
            "responseTime": 1680743336555,
            "catchQuestion": "How many <b class=\"r\">red<\/b> marbles did your opponent report drawing? ",
            "catchKey": -1,
            "catchResponse": -1,
            "catchTime": 1680743250830,
            "trialTime": 0
        },
        {
            "exptPart": "trial",
            "trialNumber": 49,
            "roleCurrent": "receiver",
            "marblesSampled": 100,
            "probRed": 0.5,
            "practiceLambda": 5,
            "trialLambda": 0.3,
            "instructedLambda": "dishonest_small",
            "drawnRed": 51,
            "reportedRed": 51,
            "inferredRed": 49,
            "playerTrialScore": -2,
            "oppTrialScore": 0,
            "playerTotalScore": -70,
            "oppTotalScore": 7,
            "waitTime": 5273.211668062411,
            "responseTime": 1680743345155,
            "catchQuestion": "How many <b class=\"r\">red<\/b> marbles did your opponent report drawing? ",
            "catchKey": 51,
            "catchResponse": 51,
            "catchTime": 1680743345155,
            "trialTime": 0
        },
        {
            "exptPart": "trial",
            "trialNumber": 50,
            "roleCurrent": "receiver",
            "marblesSampled": 100,
            "probRed": 0.5,
            "practiceLambda": 5,
            "trialLambda": 0.3,
            "instructedLambda": "dishonest_small",
            "drawnRed": 56,
            "reportedRed": 57,
            "inferredRed": 55,
            "playerTrialScore": -1,
            "oppTrialScore": 0,
            "playerTotalScore": -71,
            "oppTotalScore": 7,
            "waitTime": 5345.676839897527,
            "responseTime": 1680743361298,
            "catchQuestion": "How many <b class=\"r\">red<\/b> marbles did your opponent report drawing? ",
            "catchKey": -1,
            "catchResponse": -1,
            "catchTime": 1680743361298,
            "trialTime": 0
        },
        {
            "exptPart": "trial",
            "trialNumber": 51,
            "roleCurrent": "receiver",
            "marblesSampled": 100,
            "probRed": 0.5,
            "practiceLambda": 5,
            "trialLambda": 0.3,
            "instructedLambda": "dishonest_small",
            "drawnRed": 22,
            "reportedRed": 23,
            "inferredRed": 23,
            "playerTrialScore": -1,
            "oppTrialScore": 1,
            "playerTotalScore": -72,
            "oppTotalScore": 8,
            "waitTime": 5818.181016546532,
            "responseTime": 1680743382644,
            "catchQuestion": "How many <b class=\"r\">red<\/b> marbles did your opponent report drawing? ",
            "catchKey": -1,
            "catchResponse": -1,
            "catchTime": 1680743361298,
            "trialTime": 0
        },
        {
            "exptPart": "trial",
            "trialNumber": 52,
            "roleCurrent": "receiver",
            "marblesSampled": 100,
            "probRed": 0.5,
            "practiceLambda": 5,
            "trialLambda": 0.3,
            "instructedLambda": "dishonest_small",
            "drawnRed": 63,
            "reportedRed": 64,
            "inferredRed": 64,
            "playerTrialScore": -1,
            "oppTrialScore": 1,
            "playerTotalScore": -73,
            "oppTotalScore": 9,
            "waitTime": 5513.431639189586,
            "responseTime": 1680743391550,
            "catchQuestion": "How many <b class=\"r\">red<\/b> marbles did your opponent report drawing? ",
            "catchKey": -1,
            "catchResponse": -1,
            "catchTime": 1680743361298,
            "trialTime": 0
        },
        {
            "exptPart": "trial",
            "trialNumber": 53,
            "roleCurrent": "receiver",
            "marblesSampled": 100,
            "probRed": 0.5,
            "practiceLambda": 5,
            "trialLambda": 0.3,
            "instructedLambda": "dishonest_small",
            "drawnRed": 76,
            "reportedRed": 77,
            "inferredRed": 77,
            "playerTrialScore": -1,
            "oppTrialScore": 1,
            "playerTotalScore": -74,
            "oppTotalScore": 10,
            "waitTime": 7459.894150617544,
            "responseTime": 1680743401776,
            "catchQuestion": "How many <b class=\"r\">red<\/b> marbles did your opponent report drawing? ",
            "catchKey": -1,
            "catchResponse": -1,
            "catchTime": 1680743361298,
            "trialTime": 0
        },
        {
            "exptPart": "trial",
            "trialNumber": 54,
            "roleCurrent": "receiver",
            "marblesSampled": 100,
            "probRed": 0.5,
            "practiceLambda": 5,
            "trialLambda": 0.3,
            "instructedLambda": "dishonest_small",
            "drawnRed": 43,
            "reportedRed": 43,
            "inferredRed": 43,
            "playerTrialScore": 0,
            "oppTrialScore": 0,
            "playerTotalScore": -74,
            "oppTotalScore": 10,
            "waitTime": 7035.595654509474,
            "responseTime": 1680743411972,
            "catchQuestion": "How many <b class=\"r\">red<\/b> marbles did your opponent report drawing? ",
            "catchKey": -1,
            "catchResponse": -1,
            "catchTime": 1680743361298,
            "trialTime": 0
        },
        {
            "exptPart": "trial",
            "trialNumber": 55,
            "roleCurrent": "receiver",
            "marblesSampled": 100,
            "probRed": 0.5,
            "practiceLambda": 5,
            "trialLambda": 0.3,
            "instructedLambda": "dishonest_small",
            "drawnRed": 26,
            "reportedRed": 26,
            "inferredRed": 26,
            "playerTrialScore": 0,
            "oppTrialScore": 0,
            "playerTotalScore": -74,
            "oppTotalScore": 10,
            "waitTime": 7343.481510138119,
            "responseTime": 1680743423422,
            "catchQuestion": "How many <b class=\"r\">red<\/b> marbles did your opponent report drawing? ",
            "catchKey": -1,
            "catchResponse": -1,
            "catchTime": 1680743361298,
            "trialTime": 0
        },
        {
            "exptPart": "trial",
            "trialNumber": 56,
            "roleCurrent": "receiver",
            "marblesSampled": 100,
            "probRed": 0.5,
            "practiceLambda": 5,
            "trialLambda": 0.3,
            "instructedLambda": "dishonest_small",
            "drawnRed": 70,
            "reportedRed": 70,
            "inferredRed": 70,
            "playerTrialScore": 0,
            "oppTrialScore": 0,
            "playerTotalScore": -74,
            "oppTotalScore": 10,
            "waitTime": 5624.540801932668,
            "responseTime": 1680743432432,
            "catchQuestion": "How many <b class=\"r\">red<\/b> marbles did your opponent report drawing? ",
            "catchKey": -1,
            "catchResponse": -1,
            "catchTime": 1680743361298,
            "trialTime": 0
        },
        {
            "exptPart": "trial",
            "trialNumber": 57,
            "roleCurrent": "receiver",
            "marblesSampled": 100,
            "probRed": 0.5,
            "practiceLambda": 5,
            "trialLambda": 0.3,
            "instructedLambda": "dishonest_small",
            "drawnRed": 40,
            "reportedRed": 40,
            "inferredRed": 40,
            "playerTrialScore": 0,
            "oppTrialScore": 0,
            "playerTotalScore": -74,
            "oppTotalScore": 10,
            "waitTime": 5985.008220215772,
            "responseTime": 1680743442830,
            "catchQuestion": "How many <b class=\"r\">red<\/b> marbles did your opponent report drawing? ",
            "catchKey": -1,
            "catchResponse": -1,
            "catchTime": 1680743361298,
            "trialTime": 0
        },
        {
            "exptPart": "trial",
            "trialNumber": 58,
            "roleCurrent": "receiver",
            "marblesSampled": 100,
            "probRed": 0.5,
            "practiceLambda": 5,
            "trialLambda": 0.3,
            "instructedLambda": "dishonest_small",
            "drawnRed": 72,
            "reportedRed": 72,
            "inferredRed": 72,
            "playerTrialScore": 0,
            "oppTrialScore": 0,
            "playerTotalScore": -74,
            "oppTotalScore": 10,
            "waitTime": 7076.868306543742,
            "responseTime": 1680743453568,
            "catchQuestion": "How many <b class=\"r\">red<\/b> marbles did your opponent report drawing? ",
            "catchKey": -1,
            "catchResponse": -1,
            "catchTime": 1680743361298,
            "trialTime": 0
        },
        {
            "exptPart": "trial",
            "trialNumber": 59,
            "roleCurrent": "receiver",
            "marblesSampled": 100,
            "probRed": 0.5,
            "practiceLambda": 5,
            "trialLambda": 0.3,
            "instructedLambda": "dishonest_small",
            "drawnRed": 36,
            "reportedRed": 37,
            "inferredRed": 37,
            "playerTrialScore": -1,
            "oppTrialScore": 1,
            "playerTotalScore": -75,
            "oppTotalScore": 11,
            "waitTime": 5628.717751099153,
            "responseTime": 1680743462621,
            "catchQuestion": "How many <b class=\"r\">red<\/b> marbles did your opponent report drawing? ",
            "catchKey": -1,
            "catchResponse": -1,
            "catchTime": 1680743361298,
            "trialTime": 0
        },
        {
            "exptPart": "trial",
            "trialNumber": 60,
            "roleCurrent": "receiver",
            "marblesSampled": 100,
            "probRed": 0.5,
            "practiceLambda": 5,
            "trialLambda": 0.3,
            "instructedLambda": "dishonest_small",
            "drawnRed": 55,
            "reportedRed": 55,
            "inferredRed": 55,
            "playerTrialScore": 0,
            "oppTrialScore": 0,
            "playerTotalScore": -75,
            "oppTotalScore": 11,
            "waitTime": 5453.636708258411,
            "responseTime": 1680743471498,
            "catchQuestion": "How many <b class=\"r\">red<\/b> marbles did your opponent report drawing? ",
            "catchKey": -1,
            "catchResponse": -1,
            "catchTime": 1680743471498,
            "trialTime": 0
        },
        {
            "exptPart": "trial",
            "trialNumber": 61,
            "roleCurrent": "receiver",
            "marblesSampled": 100,
            "probRed": 0.5,
            "practiceLambda": 5,
            "trialLambda": 0.3,
            "instructedLambda": "dishonest_small",
            "drawnRed": 15,
            "reportedRed": 16,
            "inferredRed": 16,
            "playerTrialScore": -1,
            "oppTrialScore": 1,
            "playerTotalScore": -76,
            "oppTotalScore": 12,
            "waitTime": 5961.915342358107,
            "responseTime": 1680743497161,
            "catchQuestion": "How many <b class=\"r\">red<\/b> marbles did your opponent report drawing? ",
            "catchKey": -1,
            "catchResponse": -1,
            "catchTime": 1680743471498,
            "trialTime": 0
        },
        {
            "exptPart": "trial",
            "trialNumber": 62,
            "roleCurrent": "receiver",
            "marblesSampled": 100,
            "probRed": 0.5,
            "practiceLambda": 5,
            "trialLambda": 0.3,
            "instructedLambda": "dishonest_small",
            "drawnRed": 36,
            "reportedRed": 36,
            "inferredRed": 36,
            "playerTrialScore": 0,
            "oppTrialScore": 0,
            "playerTotalScore": -76,
            "oppTotalScore": 12,
            "waitTime": 6421.080165785514,
            "responseTime": 1680743507009,
            "catchQuestion": "How many <b class=\"r\">red<\/b> marbles did your opponent report drawing? ",
            "catchKey": -1,
            "catchResponse": -1,
            "catchTime": 1680743471498,
            "trialTime": 0
        },
        {
            "exptPart": "trial",
            "trialNumber": 63,
            "roleCurrent": "receiver",
            "marblesSampled": 100,
            "probRed": 0.5,
            "practiceLambda": 5,
            "trialLambda": 0.3,
            "instructedLambda": "dishonest_small",
            "drawnRed": 35,
            "reportedRed": 35,
            "inferredRed": 35,
            "playerTrialScore": 0,
            "oppTrialScore": 0,
            "playerTotalScore": -76,
            "oppTotalScore": 12,
            "waitTime": 6157.11543956531,
            "responseTime": 1680743515922,
            "catchQuestion": "How many <b class=\"r\">red<\/b> marbles did your opponent report drawing? ",
            "catchKey": -1,
            "catchResponse": -1,
            "catchTime": 1680743471498,
            "trialTime": 0
        },
        {
            "exptPart": "trial",
            "trialNumber": 64,
            "roleCurrent": "receiver",
            "marblesSampled": 100,
            "probRed": 0.5,
            "practiceLambda": 5,
            "trialLambda": 0.3,
            "instructedLambda": "dishonest_small",
            "drawnRed": 35,
            "reportedRed": 36,
            "inferredRed": 36,
            "playerTrialScore": -1,
            "oppTrialScore": 1,
            "playerTotalScore": -77,
            "oppTotalScore": 13,
            "waitTime": 5282.683427102247,
            "responseTime": 1680743524169,
            "catchQuestion": "How many <b class=\"r\">red<\/b> marbles did your opponent report drawing? ",
            "catchKey": -1,
            "catchResponse": -1,
            "catchTime": 1680743471498,
            "trialTime": 0
        },
        {
            "exptPart": "trial",
            "trialNumber": 65,
            "roleCurrent": "receiver",
            "marblesSampled": 100,
            "probRed": 0.5,
            "practiceLambda": 5,
            "trialLambda": 0.3,
            "instructedLambda": "dishonest_small",
            "drawnRed": 35,
            "reportedRed": 35,
            "inferredRed": 35,
            "playerTrialScore": 0,
            "oppTrialScore": 0,
            "playerTotalScore": -77,
            "oppTotalScore": 13,
            "waitTime": 6484.647428772441,
            "responseTime": 1680743536597,
            "catchQuestion": "How many <b class=\"r\">red<\/b> marbles did your opponent report drawing? ",
            "catchKey": -1,
            "catchResponse": -1,
            "catchTime": 1680743471498,
            "trialTime": 0
        },
        {
            "exptPart": "trial",
            "trialNumber": 66,
            "roleCurrent": "receiver",
            "marblesSampled": 100,
            "probRed": 0.5,
            "practiceLambda": 5,
            "trialLambda": 0.3,
            "instructedLambda": "dishonest_small",
            "drawnRed": 62,
            "reportedRed": 62,
            "inferredRed": 62,
            "playerTrialScore": 0,
            "oppTrialScore": 0,
            "playerTotalScore": -77,
            "oppTotalScore": 13,
            "waitTime": 6316.076478360725,
            "responseTime": 1680743545607,
            "catchQuestion": "How many <b class=\"r\">red<\/b> marbles did your opponent report drawing? ",
            "catchKey": -1,
            "catchResponse": -1,
            "catchTime": 1680743471498,
            "trialTime": 0
        },
        {
            "exptPart": "trial",
            "trialNumber": 67,
            "roleCurrent": "receiver",
            "marblesSampled": 100,
            "probRed": 0.5,
            "practiceLambda": 5,
            "trialLambda": 0.3,
            "instructedLambda": "dishonest_small",
            "drawnRed": 54,
            "reportedRed": 54,
            "inferredRed": 54,
            "playerTrialScore": 0,
            "oppTrialScore": 0,
            "playerTotalScore": -77,
            "oppTotalScore": 13,
            "waitTime": 6180.859081840939,
            "responseTime": 1680743555747,
            "catchQuestion": "How many <b class=\"r\">red<\/b> marbles did your opponent report drawing? ",
            "catchKey": -1,
            "catchResponse": -1,
            "catchTime": 1680743471498,
            "trialTime": 0
        },
        {
            "exptPart": "trial",
            "trialNumber": 68,
            "roleCurrent": "receiver",
            "marblesSampled": 100,
            "probRed": 0.5,
            "practiceLambda": 5,
            "trialLambda": 0.3,
            "instructedLambda": "dishonest_small",
            "drawnRed": 60,
            "reportedRed": 60,
            "inferredRed": 60,
            "playerTrialScore": 0,
            "oppTrialScore": 0,
            "playerTotalScore": -77,
            "oppTotalScore": 13,
            "waitTime": 6674.118399413512,
            "responseTime": 1680743564976,
            "catchQuestion": "How many <b class=\"r\">red<\/b> marbles did your opponent report drawing? ",
            "catchKey": -1,
            "catchResponse": -1,
            "catchTime": 1680743471498,
            "trialTime": 0
        },
        {
            "exptPart": "trial",
            "trialNumber": 69,
            "roleCurrent": "receiver",
            "marblesSampled": 100,
            "probRed": 0.5,
            "practiceLambda": 5,
            "trialLambda": 0.3,
            "instructedLambda": "dishonest_small",
            "drawnRed": 33,
            "reportedRed": 33,
            "inferredRed": 33,
            "playerTrialScore": 0,
            "oppTrialScore": 0,
            "playerTotalScore": -77,
            "oppTotalScore": 13,
            "waitTime": 5916.727821722725,
            "responseTime": 1680743574099,
            "catchQuestion": "How many <b class=\"r\">red<\/b> marbles did your opponent report drawing? ",
            "catchKey": -1,
            "catchResponse": -1,
            "catchTime": 1680743471498,
            "trialTime": 0
        },
        {
            "exptPart": "trial",
            "trialNumber": 70,
            "roleCurrent": "receiver",
            "marblesSampled": 100,
            "probRed": 0.5,
            "practiceLambda": 5,
            "trialLambda": 0.3,
            "instructedLambda": "dishonest_small",
            "drawnRed": 84,
            "reportedRed": 84,
            "inferredRed": 84,
            "playerTrialScore": 0,
            "oppTrialScore": 0,
            "playerTotalScore": -77,
            "oppTotalScore": 13,
            "waitTime": 6867.735878129699,
            "responseTime": 1680743586378,
            "catchQuestion": "How many <b class=\"r\">red<\/b> marbles did your opponent report drawing? ",
            "catchKey": -1,
            "catchResponse": -1,
            "catchTime": 1680743586378,
            "trialTime": 0
        },
        {
            "exptPart": "trial",
            "trialNumber": 71,
            "roleCurrent": "receiver",
            "marblesSampled": 100,
            "probRed": 0.5,
            "practiceLambda": 5,
            "trialLambda": 0.3,
            "instructedLambda": "dishonest_small",
            "drawnRed": 24,
            "reportedRed": 25,
            "inferredRed": 25,
            "playerTrialScore": -1,
            "oppTrialScore": 1,
            "playerTotalScore": -78,
            "oppTotalScore": 14,
            "waitTime": 5912.188421360079,
            "responseTime": 1680743599675,
            "catchQuestion": "How many <b class=\"r\">red<\/b> marbles did your opponent report drawing? ",
            "catchKey": -1,
            "catchResponse": -1,
            "catchTime": 1680743586378,
            "trialTime": 0
        },
        {
            "exptPart": "trial",
            "trialNumber": 72,
            "roleCurrent": "receiver",
            "marblesSampled": 100,
            "probRed": 0.5,
            "practiceLambda": 5,
            "trialLambda": 0.3,
            "instructedLambda": "dishonest_small",
            "drawnRed": 67,
            "reportedRed": 67,
            "inferredRed": 67,
            "playerTrialScore": 0,
            "oppTrialScore": 0,
            "playerTotalScore": -78,
            "oppTotalScore": 14,
            "waitTime": 5430.7432831734295,
            "responseTime": 1680743608674,
            "catchQuestion": "How many <b class=\"r\">red<\/b> marbles did your opponent report drawing? ",
            "catchKey": 67,
            "catchResponse": 67,
            "catchTime": 1680743608675,
            "trialTime": 0
        },
        {
            "exptPart": "trial",
            "trialNumber": 73,
            "roleCurrent": "receiver",
            "marblesSampled": 100,
            "probRed": 0.5,
            "practiceLambda": 5,
            "trialLambda": 0.3,
            "instructedLambda": "dishonest_small",
            "drawnRed": 49,
            "reportedRed": 49,
            "inferredRed": 49,
            "playerTrialScore": 0,
            "oppTrialScore": 0,
            "playerTotalScore": -78,
            "oppTotalScore": 14,
            "waitTime": 5618.951581672885,
            "responseTime": 1680743624468,
            "catchQuestion": "How many <b class=\"r\">red<\/b> marbles did your opponent report drawing? ",
            "catchKey": -1,
            "catchResponse": -1,
            "catchTime": 1680743608675,
            "trialTime": 0
        },
        {
            "exptPart": "trial",
            "trialNumber": 74,
            "roleCurrent": "receiver",
            "marblesSampled": 100,
            "probRed": 0.5,
            "practiceLambda": 5,
            "trialLambda": 0.3,
            "instructedLambda": "dishonest_small",
            "drawnRed": 43,
            "reportedRed": 43,
            "inferredRed": 43,
            "playerTrialScore": 0,
            "oppTrialScore": 0,
            "playerTotalScore": -78,
            "oppTotalScore": 14,
            "waitTime": 5951.383343742093,
            "responseTime": 1680743635254,
            "catchQuestion": "How many <b class=\"r\">red<\/b> marbles did your opponent report drawing? ",
            "catchKey": -1,
            "catchResponse": -1,
            "catchTime": 1680743608675,
            "trialTime": 0
        },
        {
            "exptPart": "trial",
            "trialNumber": 75,
            "roleCurrent": "receiver",
            "marblesSampled": 100,
            "probRed": 0.5,
            "practiceLambda": 5,
            "trialLambda": 0.3,
            "instructedLambda": "dishonest_small",
            "drawnRed": 57,
            "reportedRed": 57,
            "inferredRed": 57,
            "playerTrialScore": 0,
            "oppTrialScore": 0,
            "playerTotalScore": -78,
            "oppTotalScore": 14,
            "waitTime": 6998.9850029536665,
            "responseTime": 1680743645916,
            "catchQuestion": "How many <b class=\"r\">red<\/b> marbles did your opponent report drawing? ",
            "catchKey": -1,
            "catchResponse": -1,
            "catchTime": 1680743608675,
            "trialTime": 0
        },
        {
            "exptPart": "trial",
            "trialNumber": 76,
            "roleCurrent": "receiver",
            "marblesSampled": 100,
            "probRed": 0.5,
            "practiceLambda": 5,
            "trialLambda": 0.3,
            "instructedLambda": "dishonest_small",
            "drawnRed": 39,
            "reportedRed": 40,
            "inferredRed": 40,
            "playerTrialScore": -1,
            "oppTrialScore": 1,
            "playerTotalScore": -79,
            "oppTotalScore": 15,
            "waitTime": 6237.91880160005,
            "responseTime": 1680743655138,
            "catchQuestion": "How many <b class=\"r\">red<\/b> marbles did your opponent report drawing? ",
            "catchKey": -1,
            "catchResponse": -1,
            "catchTime": 1680743608675,
            "trialTime": 0
        },
        {
            "exptPart": "trial",
            "trialNumber": 77,
            "roleCurrent": "receiver",
            "marblesSampled": 100,
            "probRed": 0.5,
            "practiceLambda": 5,
            "trialLambda": 0.3,
            "instructedLambda": "dishonest_small",
            "drawnRed": 71,
            "reportedRed": 72,
            "inferredRed": 72,
            "playerTrialScore": -1,
            "oppTrialScore": 1,
            "playerTotalScore": -80,
            "oppTotalScore": 16,
            "waitTime": 5300.969200750139,
            "responseTime": 1680743663486,
            "catchQuestion": "How many <b class=\"r\">red<\/b> marbles did your opponent report drawing? ",
            "catchKey": -1,
            "catchResponse": -1,
            "catchTime": 1680743608675,
            "trialTime": 0
        },
        {
            "exptPart": "trial",
            "trialNumber": 78,
            "roleCurrent": "receiver",
            "marblesSampled": 100,
            "probRed": 0.5,
            "practiceLambda": 5,
            "trialLambda": 0.3,
            "instructedLambda": "dishonest_small",
            "drawnRed": 20,
            "reportedRed": 21,
            "inferredRed": 21,
            "playerTrialScore": -1,
            "oppTrialScore": 1,
            "playerTotalScore": -81,
            "oppTotalScore": 17,
            "waitTime": 5596.358953933723,
            "responseTime": 1680743673294,
            "catchQuestion": "How many <b class=\"r\">red<\/b> marbles did your opponent report drawing? ",
            "catchKey": -1,
            "catchResponse": -1,
            "catchTime": 1680743608675,
            "trialTime": 0
        },
        {
            "exptPart": "trial",
            "trialNumber": 79,
            "roleCurrent": "receiver",
            "marblesSampled": 100,
            "probRed": 0.5,
            "practiceLambda": 5,
            "trialLambda": 0.3,
            "instructedLambda": "dishonest_small",
            "drawnRed": 46,
            "reportedRed": 46,
            "inferredRed": 46,
            "playerTrialScore": 0,
            "oppTrialScore": 0,
            "playerTotalScore": -81,
            "oppTotalScore": 17,
            "waitTime": 5865.90949708756,
            "responseTime": 1680743682613,
            "catchQuestion": "How many <b class=\"r\">red<\/b> marbles did your opponent report drawing? ",
            "catchKey": -1,
            "catchResponse": -1,
            "catchTime": 1680743608675,
            "trialTime": 0
        },
        {
            "exptPart": "trial",
            "trialNumber": 80,
            "roleCurrent": "receiver",
            "marblesSampled": 100,
            "probRed": 0.5,
            "practiceLambda": 5,
            "trialLambda": 0.3,
            "instructedLambda": "dishonest_small",
            "drawnRed": 45,
            "reportedRed": 46,
            "inferredRed": 46,
            "playerTrialScore": -1,
            "oppTrialScore": 1,
            "playerTotalScore": -82,
            "oppTotalScore": 18,
            "waitTime": 5547.192209063647,
            "responseTime": 1680743691265,
            "catchQuestion": "How many <b class=\"r\">red<\/b> marbles did your opponent report drawing? ",
            "catchKey": 46,
            "catchResponse": 46,
            "catchTime": 1680743691265,
            "trialTime": 0
        },
        {
            "exptPart": "trial",
            "trialNumber": 81,
            "roleCurrent": "receiver",
            "marblesSampled": 100,
            "probRed": 0.5,
            "practiceLambda": 5,
            "trialLambda": 0.3,
            "instructedLambda": "dishonest_small",
            "drawnRed": 59,
            "reportedRed": 59,
            "inferredRed": 59,
            "playerTrialScore": 0,
            "oppTrialScore": 0,
            "playerTotalScore": -82,
            "oppTotalScore": 18,
            "waitTime": 5388.377267991544,
            "responseTime": 1680743706285,
            "catchQuestion": "How many <b class=\"r\">red<\/b> marbles did your opponent report drawing? ",
            "catchKey": -1,
            "catchResponse": -1,
            "catchTime": 1680743691265,
            "trialTime": 0
        },
        {
            "exptPart": "trial",
            "trialNumber": 82,
            "roleCurrent": "receiver",
            "marblesSampled": 100,
            "probRed": 0.5,
            "practiceLambda": 5,
            "trialLambda": 0.3,
            "instructedLambda": "dishonest_small",
            "drawnRed": 40,
            "reportedRed": 40,
            "inferredRed": 40,
            "playerTrialScore": 0,
            "oppTrialScore": 0,
            "playerTotalScore": -82,
            "oppTotalScore": 18,
            "waitTime": 5651.702149682278,
            "responseTime": 1680743718378,
            "catchQuestion": "How many <b class=\"r\">red<\/b> marbles did your opponent report drawing? ",
            "catchKey": -1,
            "catchResponse": -1,
            "catchTime": 1680743691265,
            "trialTime": 0
        },
        {
            "exptPart": "trial",
            "trialNumber": 83,
            "roleCurrent": "receiver",
            "marblesSampled": 100,
            "probRed": 0.5,
            "practiceLambda": 5,
            "trialLambda": 0.3,
            "instructedLambda": "dishonest_small",
            "drawnRed": 52,
            "reportedRed": 53,
            "inferredRed": 53,
            "playerTrialScore": -1,
            "oppTrialScore": 1,
            "playerTotalScore": -83,
            "oppTotalScore": 19,
            "waitTime": 5459.7503853219905,
            "responseTime": 1680743727522,
            "catchQuestion": "How many <b class=\"r\">red<\/b> marbles did your opponent report drawing? ",
            "catchKey": -1,
            "catchResponse": -1,
            "catchTime": 1680743691265,
            "trialTime": 0
        },
        {
            "exptPart": "trial",
            "trialNumber": 84,
            "roleCurrent": "receiver",
            "marblesSampled": 100,
            "probRed": 0.5,
            "practiceLambda": 5,
            "trialLambda": 0.3,
            "instructedLambda": "dishonest_small",
            "drawnRed": 45,
            "reportedRed": 45,
            "inferredRed": 45,
            "playerTrialScore": 0,
            "oppTrialScore": 0,
            "playerTotalScore": -83,
            "oppTotalScore": 19,
            "waitTime": 6837.372272993283,
            "responseTime": 1680743742733,
            "catchQuestion": "How many <b class=\"r\">red<\/b> marbles did your opponent report drawing? ",
            "catchKey": -1,
            "catchResponse": -1,
            "catchTime": 1680743691265,
            "trialTime": 0
        },
        {
            "exptPart": "trial",
            "trialNumber": 85,
            "roleCurrent": "receiver",
            "marblesSampled": 100,
            "probRed": 0.5,
            "practiceLambda": 5,
            "trialLambda": 0.3,
            "instructedLambda": "dishonest_small",
            "drawnRed": 35,
            "reportedRed": 35,
            "inferredRed": 35,
            "playerTrialScore": 0,
            "oppTrialScore": 0,
            "playerTotalScore": -83,
            "oppTotalScore": 19,
            "waitTime": 6826.678596997195,
            "responseTime": 1680743769908,
            "catchQuestion": "How many <b class=\"r\">red<\/b> marbles did your opponent report drawing? ",
            "catchKey": 35,
            "catchResponse": 35,
            "catchTime": 1680743769908,
            "trialTime": 0
        },
        {
            "exptPart": "trial",
            "trialNumber": 86,
            "roleCurrent": "receiver",
            "marblesSampled": 100,
            "probRed": 0.5,
            "practiceLambda": 5,
            "trialLambda": 0.3,
            "instructedLambda": "dishonest_small",
            "drawnRed": 53,
            "reportedRed": 56,
            "inferredRed": 56,
            "playerTrialScore": -3,
            "oppTrialScore": 3,
            "playerTotalScore": -86,
            "oppTotalScore": 22,
            "waitTime": 5657.585670875821,
            "responseTime": 1680743792517,
            "catchQuestion": "How many <b class=\"r\">red<\/b> marbles did your opponent report drawing? ",
            "catchKey": -1,
            "catchResponse": -1,
            "catchTime": 1680743769908,
            "trialTime": 0
        },
        {
            "exptPart": "trial",
            "trialNumber": 87,
            "roleCurrent": "receiver",
            "marblesSampled": 100,
            "probRed": 0.5,
            "practiceLambda": 5,
            "trialLambda": 0.3,
            "instructedLambda": "dishonest_small",
            "drawnRed": 54,
            "reportedRed": 55,
            "inferredRed": 55,
            "playerTrialScore": -1,
            "oppTrialScore": 1,
            "playerTotalScore": -87,
            "oppTotalScore": 23,
            "waitTime": 6500.374306963962,
            "responseTime": 1680743801721,
            "catchQuestion": "How many <b class=\"r\">red<\/b> marbles did your opponent report drawing? ",
            "catchKey": -1,
            "catchResponse": -1,
            "catchTime": 1680743769908,
            "trialTime": 0
        },
        {
            "exptPart": "trial",
            "trialNumber": 88,
            "roleCurrent": "receiver",
            "marblesSampled": 100,
            "probRed": 0.5,
            "practiceLambda": 5,
            "trialLambda": 0.3,
            "instructedLambda": "dishonest_small",
            "drawnRed": 29,
            "reportedRed": 29,
            "inferredRed": 29,
            "playerTrialScore": 0,
            "oppTrialScore": 0,
            "playerTotalScore": -87,
            "oppTotalScore": 23,
            "waitTime": 5636.868577242013,
            "responseTime": 1680743813125,
            "catchQuestion": "How many <b class=\"r\">red<\/b> marbles did your opponent report drawing? ",
            "catchKey": -1,
            "catchResponse": -1,
            "catchTime": 1680743769908,
            "trialTime": 0
        },
        {
            "exptPart": "trial",
            "trialNumber": 89,
            "roleCurrent": "receiver",
            "marblesSampled": 100,
            "probRed": 0.5,
            "practiceLambda": 5,
            "trialLambda": 0.3,
            "instructedLambda": "dishonest_small",
            "drawnRed": 44,
            "reportedRed": 44,
            "inferredRed": 44,
            "playerTrialScore": 0,
            "oppTrialScore": 0,
            "playerTotalScore": -87,
            "oppTotalScore": 23,
            "waitTime": 6119.741780228553,
            "responseTime": 1680743823131,
            "catchQuestion": "How many <b class=\"r\">red<\/b> marbles did your opponent report drawing? ",
            "catchKey": -1,
            "catchResponse": -1,
            "catchTime": 1680743769908,
            "trialTime": 0
        },
        {
            "exptPart": "trial",
            "trialNumber": 90,
            "roleCurrent": "receiver",
            "marblesSampled": 100,
            "probRed": 0.5,
            "practiceLambda": 5,
            "trialLambda": 0.3,
            "instructedLambda": "dishonest_small",
            "drawnRed": 79,
            "reportedRed": 79,
            "inferredRed": 79,
            "playerTrialScore": 0,
            "oppTrialScore": 0,
            "playerTotalScore": -87,
            "oppTotalScore": 23,
            "waitTime": 7347.000690133262,
            "responseTime": 1680743833294,
            "catchQuestion": "How many <b class=\"r\">red<\/b> marbles did your opponent report drawing? ",
            "catchKey": -1,
            "catchResponse": -1,
            "catchTime": 1680743833294,
            "trialTime": 0
        },
        {
            "exptPart": "trial",
            "trialNumber": 91,
            "roleCurrent": "receiver",
            "marblesSampled": 100,
            "probRed": 0.5,
            "practiceLambda": 5,
            "trialLambda": 0.3,
            "instructedLambda": "dishonest_small",
            "drawnRed": 52,
            "reportedRed": 53,
            "inferredRed": 53,
            "playerTrialScore": -1,
            "oppTrialScore": 1,
            "playerTotalScore": -88,
            "oppTotalScore": 24,
            "waitTime": 5758.537878570078,
            "responseTime": 1680743844608,
            "catchQuestion": "How many <b class=\"r\">red<\/b> marbles did your opponent report drawing? ",
            "catchKey": -1,
            "catchResponse": -1,
            "catchTime": 1680743833294,
            "trialTime": 0
        },
        {
            "exptPart": "trial",
            "trialNumber": 92,
            "roleCurrent": "receiver",
            "marblesSampled": 100,
            "probRed": 0.5,
            "practiceLambda": 5,
            "trialLambda": 0.3,
            "instructedLambda": "dishonest_small",
            "drawnRed": 61,
            "reportedRed": 61,
            "inferredRed": 61,
            "playerTrialScore": 0,
            "oppTrialScore": 0,
            "playerTotalScore": -88,
            "oppTotalScore": 24,
            "waitTime": 6065.237293711947,
            "responseTime": 1680743853161,
            "catchQuestion": "How many <b class=\"r\">red<\/b> marbles did your opponent report drawing? ",
            "catchKey": -1,
            "catchResponse": -1,
            "catchTime": 1680743833294,
            "trialTime": 0
        },
        {
            "exptPart": "trial",
            "trialNumber": 93,
            "roleCurrent": "receiver",
            "marblesSampled": 100,
            "probRed": 0.5,
            "practiceLambda": 5,
            "trialLambda": 0.3,
            "instructedLambda": "dishonest_small",
            "drawnRed": 66,
            "reportedRed": 66,
            "inferredRed": 66,
            "playerTrialScore": 0,
            "oppTrialScore": 0,
            "playerTotalScore": -88,
            "oppTotalScore": 24,
            "waitTime": 5993.024739817167,
            "responseTime": 1680743861518,
            "catchQuestion": "How many <b class=\"r\">red<\/b> marbles did your opponent report drawing? ",
            "catchKey": -1,
            "catchResponse": -1,
            "catchTime": 1680743833294,
            "trialTime": 0
        },
        {
            "exptPart": "trial",
            "trialNumber": 94,
            "roleCurrent": "receiver",
            "marblesSampled": 100,
            "probRed": 0.5,
            "practiceLambda": 5,
            "trialLambda": 0.3,
            "instructedLambda": "dishonest_small",
            "drawnRed": 68,
            "reportedRed": 68,
            "inferredRed": 68,
            "playerTrialScore": 0,
            "oppTrialScore": 0,
            "playerTotalScore": -88,
            "oppTotalScore": 24,
            "waitTime": 6636.920024760437,
            "responseTime": 1680743871142,
            "catchQuestion": "How many <b class=\"r\">red<\/b> marbles did your opponent report drawing? ",
            "catchKey": 68,
            "catchResponse": 68,
            "catchTime": 1680743871142,
            "trialTime": 0
        },
        {
            "exptPart": "trial",
            "trialNumber": 95,
            "roleCurrent": "receiver",
            "marblesSampled": 100,
            "probRed": 0.5,
            "practiceLambda": 5,
            "trialLambda": 0.3,
            "instructedLambda": "dishonest_small",
            "drawnRed": 46,
            "reportedRed": 46,
            "inferredRed": 46,
            "playerTrialScore": 0,
            "oppTrialScore": 0,
            "playerTotalScore": -88,
            "oppTotalScore": 24,
            "waitTime": 6023.94808191669,
            "responseTime": 1680743883466,
            "catchQuestion": "How many <b class=\"r\">red<\/b> marbles did your opponent report drawing? ",
            "catchKey": -1,
            "catchResponse": -1,
            "catchTime": 1680743871142,
            "trialTime": 0
        },
        {
            "exptPart": "trial",
            "trialNumber": 96,
            "roleCurrent": "receiver",
            "marblesSampled": 100,
            "probRed": 0.5,
            "practiceLambda": 5,
            "trialLambda": 0.3,
            "instructedLambda": "dishonest_small",
            "drawnRed": 71,
            "reportedRed": 71,
            "inferredRed": 71,
            "playerTrialScore": 0,
            "oppTrialScore": 0,
            "playerTotalScore": -88,
            "oppTotalScore": 24,
            "waitTime": 5598.368879080677,
            "responseTime": 1680743891928,
            "catchQuestion": "How many <b class=\"r\">red<\/b> marbles did your opponent report drawing? ",
            "catchKey": -1,
            "catchResponse": -1,
            "catchTime": 1680743871142,
            "trialTime": 0
        },
        {
            "exptPart": "trial",
            "trialNumber": 97,
            "roleCurrent": "receiver",
            "marblesSampled": 100,
            "probRed": 0.5,
            "practiceLambda": 5,
            "trialLambda": 0.3,
            "instructedLambda": "dishonest_small",
            "drawnRed": 50,
            "reportedRed": 51,
            "inferredRed": 51,
            "playerTrialScore": -1,
            "oppTrialScore": 1,
            "playerTotalScore": -89,
            "oppTotalScore": 25,
            "waitTime": 5161.981600723175,
            "responseTime": 1680743899397,
            "catchQuestion": "How many <b class=\"r\">red<\/b> marbles did your opponent report drawing? ",
            "catchKey": -1,
            "catchResponse": -1,
            "catchTime": 1680743871142,
            "trialTime": 0
        },
        {
            "exptPart": "trial",
            "trialNumber": 98,
            "roleCurrent": "receiver",
            "marblesSampled": 100,
            "probRed": 0.5,
            "practiceLambda": 5,
            "trialLambda": 0.3,
            "instructedLambda": "dishonest_small",
            "drawnRed": 32,
            "reportedRed": 32,
            "inferredRed": 32,
            "playerTrialScore": 0,
            "oppTrialScore": 0,
            "playerTotalScore": -89,
            "oppTotalScore": 25,
            "waitTime": 5781.334934183035,
            "responseTime": 1680743907316,
            "catchQuestion": "How many <b class=\"r\">red<\/b> marbles did your opponent report drawing? ",
            "catchKey": -1,
            "catchResponse": -1,
            "catchTime": 1680743871142,
            "trialTime": 0
        },
        {
            "exptPart": "trial",
            "trialNumber": 99,
            "roleCurrent": "receiver",
            "marblesSampled": 100,
            "probRed": 0.5,
            "practiceLambda": 5,
            "trialLambda": 0.3,
            "instructedLambda": "dishonest_small",
            "drawnRed": 60,
            "reportedRed": 60,
            "inferredRed": 60,
            "playerTrialScore": 0,
            "oppTrialScore": 0,
            "playerTotalScore": -89,
            "oppTotalScore": 25,
            "waitTime": 5274.652308079496,
            "responseTime": 1680743915063,
            "catchQuestion": "How many <b class=\"r\">red<\/b> marbles did your opponent report drawing? ",
            "catchKey": -1,
            "catchResponse": -1,
            "catchTime": 1680743871142,
            "trialTime": 0
        },
        {
            "exptPart": "trial",
            "trialNumber": 100,
            "roleCurrent": "receiver",
            "marblesSampled": 100,
            "probRed": 0.5,
            "practiceLambda": 5,
            "trialLambda": 0.3,
            "instructedLambda": "dishonest_small",
            "drawnRed": 34,
            "reportedRed": 34,
            "inferredRed": 34,
            "playerTrialScore": 0,
            "oppTrialScore": 0,
            "playerTotalScore": -89,
            "oppTotalScore": 25,
            "waitTime": 5145.814352479115,
            "responseTime": 1680743922047,
            "catchQuestion": "How many <b class=\"r\">red<\/b> marbles did your opponent report drawing? ",
            "catchKey": -1,
            "catchResponse": -1,
            "catchTime": 1680743922047,
            "trialTime": 0
        }
    ]
}