{
    "client": {
        "type": "sona",
        "experiment_id": 2488,
        "credit_token": "79d15902e9034cb6b65a542be205401c",
        "survey_code": "42962",
        "sid": "sona-42962",
        "window": {
            "width": 1440,
            "height": 821
        },
        "screen": {
            "width": 1440,
            "height": 900
        },
        "userAgent": "Mozilla\/5.0 (Macintosh; Intel Mac OS X 10_15_7) AppleWebKit\/537.36 (KHTML, like Gecko) Chrome\/110.0.0.0 Safari\/537.36",
        "score": 0,
        "bonus": 0
    },
    "expt": {
        "saveURL": "submit.simple.php",
        "trials": 100,
        "practiceTrials": 2,
        "marblesSampled": 100,
        "probRed": 0.5,
        "practiceLambdaAI": 5,
        "lambdaAI": 21.9,
        "roles": [
            "sender",
            "receiver"
        ],
        "cost": "unif",
        "goal": "over",
        "oppDishonesty": "honest",
        "catchTrials": [
            52,
            49,
            30,
            41,
            93,
            39,
            28,
            27,
            88,
            32
        ],
        "scoreTotal": {
            "player": -2376,
            "opp": 2209
        },
        "sona": {
            "experiment_id": 2488,
            "credit_token": "79d15902e9034cb6b65a542be205401c"
        },
        "pilot": false,
        "debug": false
    },
    "trials": [
        {
            "exptPart": "practice",
            "trialNumber": 1,
            "roleCurrent": "sender",
            "marblesSampled": 100,
            "probRed": 0.5,
            "practiceLambda": 5,
            "trialLambda": 21.9,
            "instructedLambda": "honest",
            "drawnRed": 18,
            "reportedRed": 13,
            "inferredRed": 6,
            "playerTrialScore": 0,
            "oppTrialScore": -12,
            "playerTotalScore": 0,
            "oppTotalScore": -12,
            "waitTime": 2351.524833353504,
            "responseTime": 1678904506590,
            "catchQuestion": "How many <b class=\"r\">red<\/b> marbles did you actually draw (before any changes)? ",
            "catchKey": 18,
            "catchResponse": 18,
            "catchTime": 1678904506590,
            "trialTime": 0
        },
        {
            "exptPart": "practice",
            "trialNumber": 2,
            "roleCurrent": "receiver",
            "marblesSampled": 100,
            "probRed": 0.5,
            "practiceLambda": 5,
            "trialLambda": 21.9,
            "instructedLambda": "honest",
            "drawnRed": 53,
            "reportedRed": 57,
            "inferredRed": 48,
            "playerTrialScore": -5,
            "oppTrialScore": 0,
            "playerTotalScore": -5,
            "oppTotalScore": -12,
            "waitTime": 6054.501490198346,
            "responseTime": 1678904615723,
            "catchQuestion": "How many <b class=\"r\">red<\/b> marbles did your opponent report drawing? ",
            "catchKey": 57,
            "catchResponse": 57,
            "catchTime": 1678904615723,
            "trialTime": 0
        },
        {
            "exptPart": "trial",
            "trialNumber": 1,
            "roleCurrent": "receiver",
            "marblesSampled": 100,
            "probRed": 0.5,
            "practiceLambda": 5,
            "trialLambda": 21.9,
            "instructedLambda": "honest",
            "drawnRed": 26,
            "reportedRed": 51,
            "inferredRed": 48,
            "playerTrialScore": -22,
            "oppTrialScore": 22,
            "playerTotalScore": -22,
            "oppTotalScore": 22,
            "waitTime": 6315.507092295362,
            "responseTime": 1678904687577,
            "catchQuestion": "How many <b class=\"r\">red<\/b> marbles did your opponent report drawing? ",
            "catchKey": -1,
            "catchResponse": -1,
            "catchTime": 1678904615723,
            "trialTime": 0
        },
        {
            "exptPart": "trial",
            "trialNumber": 2,
            "roleCurrent": "receiver",
            "marblesSampled": 100,
            "probRed": 0.5,
            "practiceLambda": 5,
            "trialLambda": 21.9,
            "instructedLambda": "honest",
            "drawnRed": 82,
            "reportedRed": 99,
            "inferredRed": 76,
            "playerTrialScore": -6,
            "oppTrialScore": 0,
            "playerTotalScore": -28,
            "oppTotalScore": 22,
            "waitTime": 6891.616759520568,
            "responseTime": 1678904701769,
            "catchQuestion": "How many <b class=\"r\">red<\/b> marbles did your opponent report drawing? ",
            "catchKey": -1,
            "catchResponse": -1,
            "catchTime": 1678904615723,
            "trialTime": 0
        },
        {
            "exptPart": "trial",
            "trialNumber": 3,
            "roleCurrent": "receiver",
            "marblesSampled": 100,
            "probRed": 0.5,
            "practiceLambda": 5,
            "trialLambda": 21.9,
            "instructedLambda": "honest",
            "drawnRed": 57,
            "reportedRed": 86,
            "inferredRed": 84,
            "playerTrialScore": -27,
            "oppTrialScore": 27,
            "playerTotalScore": -55,
            "oppTotalScore": 49,
            "waitTime": 5232.057038174637,
            "responseTime": 1678904726419,
            "catchQuestion": "How many <b class=\"r\">red<\/b> marbles did your opponent report drawing? ",
            "catchKey": -1,
            "catchResponse": -1,
            "catchTime": 1678904615723,
            "trialTime": 0
        },
        {
            "exptPart": "trial",
            "trialNumber": 4,
            "roleCurrent": "receiver",
            "marblesSampled": 100,
            "probRed": 0.5,
            "practiceLambda": 5,
            "trialLambda": 21.9,
            "instructedLambda": "honest",
            "drawnRed": 54,
            "reportedRed": 82,
            "inferredRed": 79,
            "playerTrialScore": -25,
            "oppTrialScore": 25,
            "playerTotalScore": -80,
            "oppTotalScore": 74,
            "waitTime": 6763.3463786932225,
            "responseTime": 1678904744020,
            "catchQuestion": "How many <b class=\"r\">red<\/b> marbles did your opponent report drawing? ",
            "catchKey": -1,
            "catchResponse": -1,
            "catchTime": 1678904615723,
            "trialTime": 0
        },
        {
            "exptPart": "trial",
            "trialNumber": 5,
            "roleCurrent": "receiver",
            "marblesSampled": 100,
            "probRed": 0.5,
            "practiceLambda": 5,
            "trialLambda": 21.9,
            "instructedLambda": "honest",
            "drawnRed": 80,
            "reportedRed": 100,
            "inferredRed": 81,
            "playerTrialScore": -1,
            "oppTrialScore": 1,
            "playerTotalScore": -81,
            "oppTotalScore": 75,
            "waitTime": 5225.186657229137,
            "responseTime": 1678904764183,
            "catchQuestion": "How many <b class=\"r\">red<\/b> marbles did your opponent report drawing? ",
            "catchKey": -1,
            "catchResponse": -1,
            "catchTime": 1678904615723,
            "trialTime": 0
        },
        {
            "exptPart": "trial",
            "trialNumber": 6,
            "roleCurrent": "receiver",
            "marblesSampled": 100,
            "probRed": 0.5,
            "practiceLambda": 5,
            "trialLambda": 21.9,
            "instructedLambda": "honest",
            "drawnRed": 29,
            "reportedRed": 53,
            "inferredRed": 49,
            "playerTrialScore": -20,
            "oppTrialScore": 20,
            "playerTotalScore": -101,
            "oppTotalScore": 95,
            "waitTime": 7366.360041509899,
            "responseTime": 1678904779881,
            "catchQuestion": "How many <b class=\"r\">red<\/b> marbles did your opponent report drawing? ",
            "catchKey": -1,
            "catchResponse": -1,
            "catchTime": 1678904615723,
            "trialTime": 0
        },
        {
            "exptPart": "trial",
            "trialNumber": 7,
            "roleCurrent": "receiver",
            "marblesSampled": 100,
            "probRed": 0.5,
            "practiceLambda": 5,
            "trialLambda": 21.9,
            "instructedLambda": "honest",
            "drawnRed": 34,
            "reportedRed": 66,
            "inferredRed": 28,
            "playerTrialScore": -6,
            "oppTrialScore": 0,
            "playerTotalScore": -107,
            "oppTotalScore": 95,
            "waitTime": 6959.559520343022,
            "responseTime": 1678904793654,
            "catchQuestion": "How many <b class=\"r\">red<\/b> marbles did your opponent report drawing? ",
            "catchKey": -1,
            "catchResponse": -1,
            "catchTime": 1678904615723,
            "trialTime": 0
        },
        {
            "exptPart": "trial",
            "trialNumber": 8,
            "roleCurrent": "receiver",
            "marblesSampled": 100,
            "probRed": 0.5,
            "practiceLambda": 5,
            "trialLambda": 21.9,
            "instructedLambda": "honest",
            "drawnRed": 39,
            "reportedRed": 65,
            "inferredRed": 74,
            "playerTrialScore": -35,
            "oppTrialScore": 35,
            "playerTotalScore": -142,
            "oppTotalScore": 130,
            "waitTime": 5530.7280090653185,
            "responseTime": 1678904802197,
            "catchQuestion": "How many <b class=\"r\">red<\/b> marbles did your opponent report drawing? ",
            "catchKey": -1,
            "catchResponse": -1,
            "catchTime": 1678904615723,
            "trialTime": 0
        },
        {
            "exptPart": "trial",
            "trialNumber": 9,
            "roleCurrent": "receiver",
            "marblesSampled": 100,
            "probRed": 0.5,
            "practiceLambda": 5,
            "trialLambda": 21.9,
            "instructedLambda": "honest",
            "drawnRed": 45,
            "reportedRed": 66,
            "inferredRed": 90,
            "playerTrialScore": -45,
            "oppTrialScore": 45,
            "playerTotalScore": -187,
            "oppTotalScore": 175,
            "waitTime": 6122.437659321475,
            "responseTime": 1678904812448,
            "catchQuestion": "How many <b class=\"r\">red<\/b> marbles did your opponent report drawing? ",
            "catchKey": -1,
            "catchResponse": -1,
            "catchTime": 1678904615723,
            "trialTime": 0
        },
        {
            "exptPart": "trial",
            "trialNumber": 10,
            "roleCurrent": "receiver",
            "marblesSampled": 100,
            "probRed": 0.5,
            "practiceLambda": 5,
            "trialLambda": 21.9,
            "instructedLambda": "honest",
            "drawnRed": 50,
            "reportedRed": 75,
            "inferredRed": 45,
            "playerTrialScore": -5,
            "oppTrialScore": 0,
            "playerTotalScore": -192,
            "oppTotalScore": 175,
            "waitTime": 6818.657655074936,
            "responseTime": 1678904822043,
            "catchQuestion": "How many <b class=\"r\">red<\/b> marbles did your opponent report drawing? ",
            "catchKey": -1,
            "catchResponse": -1,
            "catchTime": 1678904822043,
            "trialTime": 0
        },
        {
            "exptPart": "trial",
            "trialNumber": 11,
            "roleCurrent": "receiver",
            "marblesSampled": 100,
            "probRed": 0.5,
            "practiceLambda": 5,
            "trialLambda": 21.9,
            "instructedLambda": "honest",
            "drawnRed": 69,
            "reportedRed": 85,
            "inferredRed": 84,
            "playerTrialScore": -15,
            "oppTrialScore": 15,
            "playerTotalScore": -207,
            "oppTotalScore": 190,
            "waitTime": 5880.251609007457,
            "responseTime": 1678904839096,
            "catchQuestion": "How many <b class=\"r\">red<\/b> marbles did your opponent report drawing? ",
            "catchKey": -1,
            "catchResponse": -1,
            "catchTime": 1678904822043,
            "trialTime": 0
        },
        {
            "exptPart": "trial",
            "trialNumber": 12,
            "roleCurrent": "receiver",
            "marblesSampled": 100,
            "probRed": 0.5,
            "practiceLambda": 5,
            "trialLambda": 21.9,
            "instructedLambda": "honest",
            "drawnRed": 30,
            "reportedRed": 53,
            "inferredRed": 50,
            "playerTrialScore": -20,
            "oppTrialScore": 20,
            "playerTotalScore": -227,
            "oppTotalScore": 210,
            "waitTime": 5357.850365549595,
            "responseTime": 1678904847995,
            "catchQuestion": "How many <b class=\"r\">red<\/b> marbles did your opponent report drawing? ",
            "catchKey": -1,
            "catchResponse": -1,
            "catchTime": 1678904822043,
            "trialTime": 0
        },
        {
            "exptPart": "trial",
            "trialNumber": 13,
            "roleCurrent": "receiver",
            "marblesSampled": 100,
            "probRed": 0.5,
            "practiceLambda": 5,
            "trialLambda": 21.9,
            "instructedLambda": "honest",
            "drawnRed": 66,
            "reportedRed": 90,
            "inferredRed": 87,
            "playerTrialScore": -21,
            "oppTrialScore": 21,
            "playerTotalScore": -248,
            "oppTotalScore": 231,
            "waitTime": 5873.380919085308,
            "responseTime": 1678904856787,
            "catchQuestion": "How many <b class=\"r\">red<\/b> marbles did your opponent report drawing? ",
            "catchKey": -1,
            "catchResponse": -1,
            "catchTime": 1678904822043,
            "trialTime": 0
        },
        {
            "exptPart": "trial",
            "trialNumber": 14,
            "roleCurrent": "receiver",
            "marblesSampled": 100,
            "probRed": 0.5,
            "practiceLambda": 5,
            "trialLambda": 21.9,
            "instructedLambda": "honest",
            "drawnRed": 25,
            "reportedRed": 53,
            "inferredRed": 50,
            "playerTrialScore": -25,
            "oppTrialScore": 25,
            "playerTotalScore": -273,
            "oppTotalScore": 256,
            "waitTime": 5234.879414982811,
            "responseTime": 1678904865650,
            "catchQuestion": "How many <b class=\"r\">red<\/b> marbles did your opponent report drawing? ",
            "catchKey": -1,
            "catchResponse": -1,
            "catchTime": 1678904822043,
            "trialTime": 0
        },
        {
            "exptPart": "trial",
            "trialNumber": 15,
            "roleCurrent": "receiver",
            "marblesSampled": 100,
            "probRed": 0.5,
            "practiceLambda": 5,
            "trialLambda": 21.9,
            "instructedLambda": "honest",
            "drawnRed": 34,
            "reportedRed": 47,
            "inferredRed": 44,
            "playerTrialScore": -10,
            "oppTrialScore": 10,
            "playerTotalScore": -283,
            "oppTotalScore": 266,
            "waitTime": 7002.858339284922,
            "responseTime": 1678904875727,
            "catchQuestion": "How many <b class=\"r\">red<\/b> marbles did your opponent report drawing? ",
            "catchKey": -1,
            "catchResponse": -1,
            "catchTime": 1678904822043,
            "trialTime": 0
        },
        {
            "exptPart": "trial",
            "trialNumber": 16,
            "roleCurrent": "receiver",
            "marblesSampled": 100,
            "probRed": 0.5,
            "practiceLambda": 5,
            "trialLambda": 21.9,
            "instructedLambda": "honest",
            "drawnRed": 53,
            "reportedRed": 76,
            "inferredRed": 73,
            "playerTrialScore": -20,
            "oppTrialScore": 20,
            "playerTotalScore": -303,
            "oppTotalScore": 286,
            "waitTime": 6926.96639197082,
            "responseTime": 1678904886455,
            "catchQuestion": "How many <b class=\"r\">red<\/b> marbles did your opponent report drawing? ",
            "catchKey": -1,
            "catchResponse": -1,
            "catchTime": 1678904822043,
            "trialTime": 0
        },
        {
            "exptPart": "trial",
            "trialNumber": 17,
            "roleCurrent": "receiver",
            "marblesSampled": 100,
            "probRed": 0.5,
            "practiceLambda": 5,
            "trialLambda": 21.9,
            "instructedLambda": "honest",
            "drawnRed": 45,
            "reportedRed": 72,
            "inferredRed": 69,
            "playerTrialScore": -24,
            "oppTrialScore": 24,
            "playerTotalScore": -327,
            "oppTotalScore": 310,
            "waitTime": 7247.522375614105,
            "responseTime": 1678904897516,
            "catchQuestion": "How many <b class=\"r\">red<\/b> marbles did your opponent report drawing? ",
            "catchKey": -1,
            "catchResponse": -1,
            "catchTime": 1678904822043,
            "trialTime": 0
        },
        {
            "exptPart": "trial",
            "trialNumber": 18,
            "roleCurrent": "receiver",
            "marblesSampled": 100,
            "probRed": 0.5,
            "practiceLambda": 5,
            "trialLambda": 21.9,
            "instructedLambda": "honest",
            "drawnRed": 48,
            "reportedRed": 66,
            "inferredRed": 63,
            "playerTrialScore": -15,
            "oppTrialScore": 15,
            "playerTotalScore": -342,
            "oppTotalScore": 325,
            "waitTime": 5132.501614511686,
            "responseTime": 1678904905406,
            "catchQuestion": "How many <b class=\"r\">red<\/b> marbles did your opponent report drawing? ",
            "catchKey": -1,
            "catchResponse": -1,
            "catchTime": 1678904822043,
            "trialTime": 0
        },
        {
            "exptPart": "trial",
            "trialNumber": 19,
            "roleCurrent": "receiver",
            "marblesSampled": 100,
            "probRed": 0.5,
            "practiceLambda": 5,
            "trialLambda": 21.9,
            "instructedLambda": "honest",
            "drawnRed": 32,
            "reportedRed": 64,
            "inferredRed": 61,
            "playerTrialScore": -29,
            "oppTrialScore": 29,
            "playerTotalScore": -371,
            "oppTotalScore": 354,
            "waitTime": 6722.703744315808,
            "responseTime": 1678904915003,
            "catchQuestion": "How many <b class=\"r\">red<\/b> marbles did your opponent report drawing? ",
            "catchKey": -1,
            "catchResponse": -1,
            "catchTime": 1678904822043,
            "trialTime": 0
        },
        {
            "exptPart": "trial",
            "trialNumber": 20,
            "roleCurrent": "receiver",
            "marblesSampled": 100,
            "probRed": 0.5,
            "practiceLambda": 5,
            "trialLambda": 21.9,
            "instructedLambda": "honest",
            "drawnRed": 71,
            "reportedRed": 94,
            "inferredRed": 91,
            "playerTrialScore": -20,
            "oppTrialScore": 20,
            "playerTotalScore": -391,
            "oppTotalScore": 374,
            "waitTime": 5381.86709424462,
            "responseTime": 1678904923148,
            "catchQuestion": "How many <b class=\"r\">red<\/b> marbles did your opponent report drawing? ",
            "catchKey": -1,
            "catchResponse": -1,
            "catchTime": 1678904923148,
            "trialTime": 0
        },
        {
            "exptPart": "trial",
            "trialNumber": 21,
            "roleCurrent": "receiver",
            "marblesSampled": 100,
            "probRed": 0.5,
            "practiceLambda": 5,
            "trialLambda": 21.9,
            "instructedLambda": "honest",
            "drawnRed": 23,
            "reportedRed": 38,
            "inferredRed": 38,
            "playerTrialScore": -15,
            "oppTrialScore": 15,
            "playerTotalScore": -406,
            "oppTotalScore": 389,
            "waitTime": 6389.287436413853,
            "responseTime": 1678904941476,
            "catchQuestion": "How many <b class=\"r\">red<\/b> marbles did your opponent report drawing? ",
            "catchKey": -1,
            "catchResponse": -1,
            "catchTime": 1678904923148,
            "trialTime": 0
        },
        {
            "exptPart": "trial",
            "trialNumber": 22,
            "roleCurrent": "receiver",
            "marblesSampled": 100,
            "probRed": 0.5,
            "practiceLambda": 5,
            "trialLambda": 21.9,
            "instructedLambda": "honest",
            "drawnRed": 56,
            "reportedRed": 86,
            "inferredRed": 86,
            "playerTrialScore": -30,
            "oppTrialScore": 30,
            "playerTotalScore": -436,
            "oppTotalScore": 419,
            "waitTime": 7469.848068585504,
            "responseTime": 1678904951545,
            "catchQuestion": "How many <b class=\"r\">red<\/b> marbles did your opponent report drawing? ",
            "catchKey": -1,
            "catchResponse": -1,
            "catchTime": 1678904923148,
            "trialTime": 0
        },
        {
            "exptPart": "trial",
            "trialNumber": 23,
            "roleCurrent": "receiver",
            "marblesSampled": 100,
            "probRed": 0.5,
            "practiceLambda": 5,
            "trialLambda": 21.9,
            "instructedLambda": "honest",
            "drawnRed": 42,
            "reportedRed": 56,
            "inferredRed": 56,
            "playerTrialScore": -14,
            "oppTrialScore": 14,
            "playerTotalScore": -450,
            "oppTotalScore": 433,
            "waitTime": 6701.255364764326,
            "responseTime": 1678904961663,
            "catchQuestion": "How many <b class=\"r\">red<\/b> marbles did your opponent report drawing? ",
            "catchKey": -1,
            "catchResponse": -1,
            "catchTime": 1678904923148,
            "trialTime": 0
        },
        {
            "exptPart": "trial",
            "trialNumber": 24,
            "roleCurrent": "receiver",
            "marblesSampled": 100,
            "probRed": 0.5,
            "practiceLambda": 5,
            "trialLambda": 21.9,
            "instructedLambda": "honest",
            "drawnRed": 63,
            "reportedRed": 80,
            "inferredRed": 80,
            "playerTrialScore": -17,
            "oppTrialScore": 17,
            "playerTotalScore": -467,
            "oppTotalScore": 450,
            "waitTime": 5267.275279736341,
            "responseTime": 1678904970556,
            "catchQuestion": "How many <b class=\"r\">red<\/b> marbles did your opponent report drawing? ",
            "catchKey": -1,
            "catchResponse": -1,
            "catchTime": 1678904923148,
            "trialTime": 0
        },
        {
            "exptPart": "trial",
            "trialNumber": 25,
            "roleCurrent": "receiver",
            "marblesSampled": 100,
            "probRed": 0.5,
            "practiceLambda": 5,
            "trialLambda": 21.9,
            "instructedLambda": "honest",
            "drawnRed": 27,
            "reportedRed": 51,
            "inferredRed": 51,
            "playerTrialScore": -24,
            "oppTrialScore": 24,
            "playerTotalScore": -491,
            "oppTotalScore": 474,
            "waitTime": 5346.187346771525,
            "responseTime": 1678904979996,
            "catchQuestion": "How many <b class=\"r\">red<\/b> marbles did your opponent report drawing? ",
            "catchKey": -1,
            "catchResponse": -1,
            "catchTime": 1678904923148,
            "trialTime": 0
        },
        {
            "exptPart": "trial",
            "trialNumber": 26,
            "roleCurrent": "receiver",
            "marblesSampled": 100,
            "probRed": 0.5,
            "practiceLambda": 5,
            "trialLambda": 21.9,
            "instructedLambda": "honest",
            "drawnRed": 71,
            "reportedRed": 91,
            "inferredRed": 91,
            "playerTrialScore": -20,
            "oppTrialScore": 20,
            "playerTotalScore": -511,
            "oppTotalScore": 494,
            "waitTime": 6563.808532516268,
            "responseTime": 1678904989271,
            "catchQuestion": "How many <b class=\"r\">red<\/b> marbles did your opponent report drawing? ",
            "catchKey": -1,
            "catchResponse": -1,
            "catchTime": 1678904923148,
            "trialTime": 0
        },
        {
            "exptPart": "trial",
            "trialNumber": 27,
            "roleCurrent": "receiver",
            "marblesSampled": 100,
            "probRed": 0.5,
            "practiceLambda": 5,
            "trialLambda": 21.9,
            "instructedLambda": "honest",
            "drawnRed": 77,
            "reportedRed": 100,
            "inferredRed": 100,
            "playerTrialScore": -23,
            "oppTrialScore": 23,
            "playerTotalScore": -534,
            "oppTotalScore": 517,
            "waitTime": 6251.065949201125,
            "responseTime": 1678904998310,
            "catchQuestion": "How many <b class=\"r\">red<\/b> marbles did your opponent report drawing? ",
            "catchKey": -1,
            "catchResponse": -1,
            "catchTime": 1678904923148,
            "trialTime": 0
        },
        {
            "exptPart": "trial",
            "trialNumber": 28,
            "roleCurrent": "receiver",
            "marblesSampled": 100,
            "probRed": 0.5,
            "practiceLambda": 5,
            "trialLambda": 21.9,
            "instructedLambda": "honest",
            "drawnRed": 83,
            "reportedRed": 100,
            "inferredRed": 100,
            "playerTrialScore": -17,
            "oppTrialScore": 17,
            "playerTotalScore": -551,
            "oppTotalScore": 534,
            "waitTime": 5417.013839747233,
            "responseTime": 1678905011220,
            "catchQuestion": "How many <b class=\"r\">red<\/b> marbles did your opponent report drawing? ",
            "catchKey": 100,
            "catchResponse": 100,
            "catchTime": 1678905011220,
            "trialTime": 0
        },
        {
            "exptPart": "trial",
            "trialNumber": 29,
            "roleCurrent": "receiver",
            "marblesSampled": 100,
            "probRed": 0.5,
            "practiceLambda": 5,
            "trialLambda": 21.9,
            "instructedLambda": "honest",
            "drawnRed": 81,
            "reportedRed": 100,
            "inferredRed": 100,
            "playerTrialScore": -19,
            "oppTrialScore": 19,
            "playerTotalScore": -570,
            "oppTotalScore": 553,
            "waitTime": 6057.046564255878,
            "responseTime": 1678905025986,
            "catchQuestion": "How many <b class=\"r\">red<\/b> marbles did your opponent report drawing? ",
            "catchKey": 100,
            "catchResponse": 100,
            "catchTime": 1678905025987,
            "trialTime": 0
        },
        {
            "exptPart": "trial",
            "trialNumber": 30,
            "roleCurrent": "receiver",
            "marblesSampled": 100,
            "probRed": 0.5,
            "practiceLambda": 5,
            "trialLambda": 21.9,
            "instructedLambda": "honest",
            "drawnRed": 69,
            "reportedRed": 91,
            "inferredRed": 91,
            "playerTrialScore": -22,
            "oppTrialScore": 22,
            "playerTotalScore": -592,
            "oppTotalScore": 575,
            "waitTime": 5575.003210333183,
            "responseTime": 1678905038331,
            "catchQuestion": "How many <b class=\"r\">red<\/b> marbles did your opponent report drawing? ",
            "catchKey": -1,
            "catchResponse": -1,
            "catchTime": 1678905038331,
            "trialTime": 0
        },
        {
            "exptPart": "trial",
            "trialNumber": 31,
            "roleCurrent": "receiver",
            "marblesSampled": 100,
            "probRed": 0.5,
            "practiceLambda": 5,
            "trialLambda": 21.9,
            "instructedLambda": "honest",
            "drawnRed": 64,
            "reportedRed": 96,
            "inferredRed": 50,
            "playerTrialScore": -14,
            "oppTrialScore": 0,
            "playerTotalScore": -606,
            "oppTotalScore": 575,
            "waitTime": 6694.856236416303,
            "responseTime": 1678905063838,
            "catchQuestion": "How many <b class=\"r\">red<\/b> marbles did your opponent report drawing? ",
            "catchKey": 96,
            "catchResponse": 96,
            "catchTime": 1678905063838,
            "trialTime": 0
        },
        {
            "exptPart": "trial",
            "trialNumber": 32,
            "roleCurrent": "receiver",
            "marblesSampled": 100,
            "probRed": 0.5,
            "practiceLambda": 5,
            "trialLambda": 21.9,
            "instructedLambda": "honest",
            "drawnRed": 50,
            "reportedRed": 62,
            "inferredRed": 50,
            "playerTrialScore": 0,
            "oppTrialScore": 0,
            "playerTotalScore": -606,
            "oppTotalScore": 575,
            "waitTime": 5211.7440583308,
            "responseTime": 1678905076383,
            "catchQuestion": "How many <b class=\"r\">red<\/b> marbles did your opponent report drawing? ",
            "catchKey": -1,
            "catchResponse": -1,
            "catchTime": 1678905063838,
            "trialTime": 0
        },
        {
            "exptPart": "trial",
            "trialNumber": 33,
            "roleCurrent": "receiver",
            "marblesSampled": 100,
            "probRed": 0.5,
            "practiceLambda": 5,
            "trialLambda": 21.9,
            "instructedLambda": "honest",
            "drawnRed": 81,
            "reportedRed": 100,
            "inferredRed": 50,
            "playerTrialScore": -31,
            "oppTrialScore": 0,
            "playerTotalScore": -637,
            "oppTotalScore": 575,
            "waitTime": 5991.081700564749,
            "responseTime": 1678905085237,
            "catchQuestion": "How many <b class=\"r\">red<\/b> marbles did your opponent report drawing? ",
            "catchKey": 100,
            "catchResponse": 100,
            "catchTime": 1678905085237,
            "trialTime": 0
        },
        {
            "exptPart": "trial",
            "trialNumber": 34,
            "roleCurrent": "receiver",
            "marblesSampled": 100,
            "probRed": 0.5,
            "practiceLambda": 5,
            "trialLambda": 21.9,
            "instructedLambda": "honest",
            "drawnRed": 36,
            "reportedRed": 61,
            "inferredRed": 50,
            "playerTrialScore": -14,
            "oppTrialScore": 14,
            "playerTotalScore": -651,
            "oppTotalScore": 589,
            "waitTime": 6806.06853424051,
            "responseTime": 1678905100283,
            "catchQuestion": "How many <b class=\"r\">red<\/b> marbles did your opponent report drawing? ",
            "catchKey": -1,
            "catchResponse": -1,
            "catchTime": 1678905085237,
            "trialTime": 0
        },
        {
            "exptPart": "trial",
            "trialNumber": 35,
            "roleCurrent": "receiver",
            "marblesSampled": 100,
            "probRed": 0.5,
            "practiceLambda": 5,
            "trialLambda": 21.9,
            "instructedLambda": "honest",
            "drawnRed": 41,
            "reportedRed": 62,
            "inferredRed": 50,
            "playerTrialScore": -9,
            "oppTrialScore": 9,
            "playerTotalScore": -660,
            "oppTotalScore": 598,
            "waitTime": 5960.771058999448,
            "responseTime": 1678905109709,
            "catchQuestion": "How many <b class=\"r\">red<\/b> marbles did your opponent report drawing? ",
            "catchKey": -1,
            "catchResponse": -1,
            "catchTime": 1678905085237,
            "trialTime": 0
        },
        {
            "exptPart": "trial",
            "trialNumber": 36,
            "roleCurrent": "receiver",
            "marblesSampled": 100,
            "probRed": 0.5,
            "practiceLambda": 5,
            "trialLambda": 21.9,
            "instructedLambda": "honest",
            "drawnRed": 42,
            "reportedRed": 63,
            "inferredRed": 50,
            "playerTrialScore": -8,
            "oppTrialScore": 8,
            "playerTotalScore": -668,
            "oppTotalScore": 606,
            "waitTime": 7369.149321791693,
            "responseTime": 1678905119571,
            "catchQuestion": "How many <b class=\"r\">red<\/b> marbles did your opponent report drawing? ",
            "catchKey": -1,
            "catchResponse": -1,
            "catchTime": 1678905085237,
            "trialTime": 0
        },
        {
            "exptPart": "trial",
            "trialNumber": 37,
            "roleCurrent": "receiver",
            "marblesSampled": 100,
            "probRed": 0.5,
            "practiceLambda": 5,
            "trialLambda": 21.9,
            "instructedLambda": "honest",
            "drawnRed": 28,
            "reportedRed": 47,
            "inferredRed": 50,
            "playerTrialScore": -22,
            "oppTrialScore": 22,
            "playerTotalScore": -690,
            "oppTotalScore": 628,
            "waitTime": 6795.925788234979,
            "responseTime": 1678905129699,
            "catchQuestion": "How many <b class=\"r\">red<\/b> marbles did your opponent report drawing? ",
            "catchKey": -1,
            "catchResponse": -1,
            "catchTime": 1678905085237,
            "trialTime": 0
        },
        {
            "exptPart": "trial",
            "trialNumber": 38,
            "roleCurrent": "receiver",
            "marblesSampled": 100,
            "probRed": 0.5,
            "practiceLambda": 5,
            "trialLambda": 21.9,
            "instructedLambda": "honest",
            "drawnRed": 31,
            "reportedRed": 60,
            "inferredRed": 50,
            "playerTrialScore": -19,
            "oppTrialScore": 19,
            "playerTotalScore": -709,
            "oppTotalScore": 647,
            "waitTime": 7115.330357679473,
            "responseTime": 1678905139114,
            "catchQuestion": "How many <b class=\"r\">red<\/b> marbles did your opponent report drawing? ",
            "catchKey": -1,
            "catchResponse": -1,
            "catchTime": 1678905085237,
            "trialTime": 0
        },
        {
            "exptPart": "trial",
            "trialNumber": 39,
            "roleCurrent": "receiver",
            "marblesSampled": 100,
            "probRed": 0.5,
            "practiceLambda": 5,
            "trialLambda": 21.9,
            "instructedLambda": "honest",
            "drawnRed": 34,
            "reportedRed": 55,
            "inferredRed": 50,
            "playerTrialScore": -16,
            "oppTrialScore": 16,
            "playerTotalScore": -725,
            "oppTotalScore": 663,
            "waitTime": 7145.14243398407,
            "responseTime": 1678905148865,
            "catchQuestion": "How many <b class=\"r\">red<\/b> marbles did your opponent report drawing? ",
            "catchKey": -1,
            "catchResponse": -1,
            "catchTime": 1678905085237,
            "trialTime": 0
        },
        {
            "exptPart": "trial",
            "trialNumber": 40,
            "roleCurrent": "receiver",
            "marblesSampled": 100,
            "probRed": 0.5,
            "practiceLambda": 5,
            "trialLambda": 21.9,
            "instructedLambda": "honest",
            "drawnRed": 49,
            "reportedRed": 78,
            "inferredRed": 50,
            "playerTrialScore": -1,
            "oppTrialScore": 1,
            "playerTotalScore": -726,
            "oppTotalScore": 664,
            "waitTime": 5622.620947521617,
            "responseTime": 1678905157884,
            "catchQuestion": "How many <b class=\"r\">red<\/b> marbles did your opponent report drawing? ",
            "catchKey": 78,
            "catchResponse": 78,
            "catchTime": 1678905157884,
            "trialTime": 0
        },
        {
            "exptPart": "trial",
            "trialNumber": 41,
            "roleCurrent": "receiver",
            "marblesSampled": 100,
            "probRed": 0.5,
            "practiceLambda": 5,
            "trialLambda": 21.9,
            "instructedLambda": "honest",
            "drawnRed": 47,
            "reportedRed": 64,
            "inferredRed": 60,
            "playerTrialScore": -13,
            "oppTrialScore": 13,
            "playerTotalScore": -739,
            "oppTotalScore": 677,
            "waitTime": 5668.7705901498775,
            "responseTime": 1678905217132,
            "catchQuestion": "How many <b class=\"r\">red<\/b> marbles did your opponent report drawing? ",
            "catchKey": -1,
            "catchResponse": -1,
            "catchTime": 1678905157884,
            "trialTime": 0
        },
        {
            "exptPart": "trial",
            "trialNumber": 42,
            "roleCurrent": "receiver",
            "marblesSampled": 100,
            "probRed": 0.5,
            "practiceLambda": 5,
            "trialLambda": 21.9,
            "instructedLambda": "honest",
            "drawnRed": 49,
            "reportedRed": 65,
            "inferredRed": 60,
            "playerTrialScore": -11,
            "oppTrialScore": 11,
            "playerTotalScore": -750,
            "oppTotalScore": 688,
            "waitTime": 6338.236869981412,
            "responseTime": 1678905229421,
            "catchQuestion": "How many <b class=\"r\">red<\/b> marbles did your opponent report drawing? ",
            "catchKey": 65,
            "catchResponse": 65,
            "catchTime": 1678905229421,
            "trialTime": 0
        },
        {
            "exptPart": "trial",
            "trialNumber": 43,
            "roleCurrent": "receiver",
            "marblesSampled": 100,
            "probRed": 0.5,
            "practiceLambda": 5,
            "trialLambda": 21.9,
            "instructedLambda": "honest",
            "drawnRed": 62,
            "reportedRed": 79,
            "inferredRed": 75,
            "playerTrialScore": -13,
            "oppTrialScore": 13,
            "playerTotalScore": -763,
            "oppTotalScore": 701,
            "waitTime": 5779.3704892886535,
            "responseTime": 1678905242457,
            "catchQuestion": "How many <b class=\"r\">red<\/b> marbles did your opponent report drawing? ",
            "catchKey": -1,
            "catchResponse": -1,
            "catchTime": 1678905229421,
            "trialTime": 0
        },
        {
            "exptPart": "trial",
            "trialNumber": 44,
            "roleCurrent": "receiver",
            "marblesSampled": 100,
            "probRed": 0.5,
            "practiceLambda": 5,
            "trialLambda": 21.9,
            "instructedLambda": "honest",
            "drawnRed": 42,
            "reportedRed": 63,
            "inferredRed": 60,
            "playerTrialScore": -18,
            "oppTrialScore": 18,
            "playerTotalScore": -781,
            "oppTotalScore": 719,
            "waitTime": 5452.835315664841,
            "responseTime": 1678905274051,
            "catchQuestion": "How many <b class=\"r\">red<\/b> marbles did your opponent report drawing? ",
            "catchKey": -1,
            "catchResponse": -1,
            "catchTime": 1678905229421,
            "trialTime": 0
        },
        {
            "exptPart": "trial",
            "trialNumber": 45,
            "roleCurrent": "receiver",
            "marblesSampled": 100,
            "probRed": 0.5,
            "practiceLambda": 5,
            "trialLambda": 21.9,
            "instructedLambda": "honest",
            "drawnRed": 45,
            "reportedRed": 63,
            "inferredRed": 60,
            "playerTrialScore": -15,
            "oppTrialScore": 15,
            "playerTotalScore": -796,
            "oppTotalScore": 734,
            "waitTime": 7240.008408415221,
            "responseTime": 1678905283840,
            "catchQuestion": "How many <b class=\"r\">red<\/b> marbles did your opponent report drawing? ",
            "catchKey": -1,
            "catchResponse": -1,
            "catchTime": 1678905229421,
            "trialTime": 0
        },
        {
            "exptPart": "trial",
            "trialNumber": 46,
            "roleCurrent": "receiver",
            "marblesSampled": 100,
            "probRed": 0.5,
            "practiceLambda": 5,
            "trialLambda": 21.9,
            "instructedLambda": "honest",
            "drawnRed": 67,
            "reportedRed": 86,
            "inferredRed": 85,
            "playerTrialScore": -18,
            "oppTrialScore": 18,
            "playerTotalScore": -814,
            "oppTotalScore": 752,
            "waitTime": 5689.567303069446,
            "responseTime": 1678905301470,
            "catchQuestion": "How many <b class=\"r\">red<\/b> marbles did your opponent report drawing? ",
            "catchKey": -1,
            "catchResponse": -1,
            "catchTime": 1678905229421,
            "trialTime": 0
        },
        {
            "exptPart": "trial",
            "trialNumber": 47,
            "roleCurrent": "receiver",
            "marblesSampled": 100,
            "probRed": 0.5,
            "practiceLambda": 5,
            "trialLambda": 21.9,
            "instructedLambda": "honest",
            "drawnRed": 58,
            "reportedRed": 84,
            "inferredRed": 80,
            "playerTrialScore": -22,
            "oppTrialScore": 22,
            "playerTotalScore": -836,
            "oppTotalScore": 774,
            "waitTime": 5583.632686186689,
            "responseTime": 1678905310296,
            "catchQuestion": "How many <b class=\"r\">red<\/b> marbles did your opponent report drawing? ",
            "catchKey": -1,
            "catchResponse": -1,
            "catchTime": 1678905229421,
            "trialTime": 0
        },
        {
            "exptPart": "trial",
            "trialNumber": 48,
            "roleCurrent": "receiver",
            "marblesSampled": 100,
            "probRed": 0.5,
            "practiceLambda": 5,
            "trialLambda": 21.9,
            "instructedLambda": "honest",
            "drawnRed": 41,
            "reportedRed": 65,
            "inferredRed": 65,
            "playerTrialScore": -24,
            "oppTrialScore": 24,
            "playerTotalScore": -860,
            "oppTotalScore": 798,
            "waitTime": 6536.378078087779,
            "responseTime": 1678905326465,
            "catchQuestion": "How many <b class=\"r\">red<\/b> marbles did your opponent report drawing? ",
            "catchKey": -1,
            "catchResponse": -1,
            "catchTime": 1678905229421,
            "trialTime": 0
        },
        {
            "exptPart": "trial",
            "trialNumber": 49,
            "roleCurrent": "receiver",
            "marblesSampled": 100,
            "probRed": 0.5,
            "practiceLambda": 5,
            "trialLambda": 21.9,
            "instructedLambda": "honest",
            "drawnRed": 48,
            "reportedRed": 68,
            "inferredRed": 65,
            "playerTrialScore": -17,
            "oppTrialScore": 17,
            "playerTotalScore": -877,
            "oppTotalScore": 815,
            "waitTime": 7026.229990533191,
            "responseTime": 1678905337622,
            "catchQuestion": "How many <b class=\"r\">red<\/b> marbles did your opponent report drawing? ",
            "catchKey": -1,
            "catchResponse": -1,
            "catchTime": 1678905229421,
            "trialTime": 0
        },
        {
            "exptPart": "trial",
            "trialNumber": 50,
            "roleCurrent": "receiver",
            "marblesSampled": 100,
            "probRed": 0.5,
            "practiceLambda": 5,
            "trialLambda": 21.9,
            "instructedLambda": "honest",
            "drawnRed": 52,
            "reportedRed": 78,
            "inferredRed": 75,
            "playerTrialScore": -23,
            "oppTrialScore": 23,
            "playerTotalScore": -900,
            "oppTotalScore": 838,
            "waitTime": 6158.4844093913625,
            "responseTime": 1678905347578,
            "catchQuestion": "How many <b class=\"r\">red<\/b> marbles did your opponent report drawing? ",
            "catchKey": 78,
            "catchResponse": 78,
            "catchTime": 1678905347578,
            "trialTime": 0
        },
        {
            "exptPart": "trial",
            "trialNumber": 51,
            "roleCurrent": "receiver",
            "marblesSampled": 100,
            "probRed": 0.5,
            "practiceLambda": 5,
            "trialLambda": 21.9,
            "instructedLambda": "honest",
            "drawnRed": 76,
            "reportedRed": 94,
            "inferredRed": 90,
            "playerTrialScore": -14,
            "oppTrialScore": 14,
            "playerTotalScore": -914,
            "oppTotalScore": 852,
            "waitTime": 6058.186673816428,
            "responseTime": 1678905413655,
            "catchQuestion": "How many <b class=\"r\">red<\/b> marbles did your opponent report drawing? ",
            "catchKey": -1,
            "catchResponse": -1,
            "catchTime": 1678905347578,
            "trialTime": 0
        },
        {
            "exptPart": "trial",
            "trialNumber": 52,
            "roleCurrent": "receiver",
            "marblesSampled": 100,
            "probRed": 0.5,
            "practiceLambda": 5,
            "trialLambda": 21.9,
            "instructedLambda": "honest",
            "drawnRed": 61,
            "reportedRed": 79,
            "inferredRed": 75,
            "playerTrialScore": -14,
            "oppTrialScore": 14,
            "playerTotalScore": -928,
            "oppTotalScore": 866,
            "waitTime": 6372.306144675906,
            "responseTime": 1678905423069,
            "catchQuestion": "How many <b class=\"r\">red<\/b> marbles did your opponent report drawing? ",
            "catchKey": -1,
            "catchResponse": -1,
            "catchTime": 1678905347578,
            "trialTime": 0
        },
        {
            "exptPart": "trial",
            "trialNumber": 53,
            "roleCurrent": "receiver",
            "marblesSampled": 100,
            "probRed": 0.5,
            "practiceLambda": 5,
            "trialLambda": 21.9,
            "instructedLambda": "honest",
            "drawnRed": 19,
            "reportedRed": 47,
            "inferredRed": 45,
            "playerTrialScore": -26,
            "oppTrialScore": 26,
            "playerTotalScore": -954,
            "oppTotalScore": 892,
            "waitTime": 6213.409192859221,
            "responseTime": 1678905431964,
            "catchQuestion": "How many <b class=\"r\">red<\/b> marbles did your opponent report drawing? ",
            "catchKey": 47,
            "catchResponse": 47,
            "catchTime": 1678905431965,
            "trialTime": 0
        },
        {
            "exptPart": "trial",
            "trialNumber": 54,
            "roleCurrent": "receiver",
            "marblesSampled": 100,
            "probRed": 0.5,
            "practiceLambda": 5,
            "trialLambda": 21.9,
            "instructedLambda": "honest",
            "drawnRed": 66,
            "reportedRed": 86,
            "inferredRed": 80,
            "playerTrialScore": -14,
            "oppTrialScore": 14,
            "playerTotalScore": -968,
            "oppTotalScore": 906,
            "waitTime": 6869.870023902204,
            "responseTime": 1678905447838,
            "catchQuestion": "How many <b class=\"r\">red<\/b> marbles did your opponent report drawing? ",
            "catchKey": -1,
            "catchResponse": -1,
            "catchTime": 1678905431965,
            "trialTime": 0
        },
        {
            "exptPart": "trial",
            "trialNumber": 55,
            "roleCurrent": "receiver",
            "marblesSampled": 100,
            "probRed": 0.5,
            "practiceLambda": 5,
            "trialLambda": 21.9,
            "instructedLambda": "honest",
            "drawnRed": 33,
            "reportedRed": 54,
            "inferredRed": 50,
            "playerTrialScore": -17,
            "oppTrialScore": 17,
            "playerTotalScore": -985,
            "oppTotalScore": 923,
            "waitTime": 5598.318071361498,
            "responseTime": 1678905456237,
            "catchQuestion": "How many <b class=\"r\">red<\/b> marbles did your opponent report drawing? ",
            "catchKey": -1,
            "catchResponse": -1,
            "catchTime": 1678905431965,
            "trialTime": 0
        },
        {
            "exptPart": "trial",
            "trialNumber": 56,
            "roleCurrent": "receiver",
            "marblesSampled": 100,
            "probRed": 0.5,
            "practiceLambda": 5,
            "trialLambda": 21.9,
            "instructedLambda": "honest",
            "drawnRed": 67,
            "reportedRed": 83,
            "inferredRed": 80,
            "playerTrialScore": -13,
            "oppTrialScore": 13,
            "playerTotalScore": -998,
            "oppTotalScore": 936,
            "waitTime": 5282.915243180004,
            "responseTime": 1678905465834,
            "catchQuestion": "How many <b class=\"r\">red<\/b> marbles did your opponent report drawing? ",
            "catchKey": -1,
            "catchResponse": -1,
            "catchTime": 1678905431965,
            "trialTime": 0
        },
        {
            "exptPart": "trial",
            "trialNumber": 57,
            "roleCurrent": "receiver",
            "marblesSampled": 100,
            "probRed": 0.5,
            "practiceLambda": 5,
            "trialLambda": 21.9,
            "instructedLambda": "honest",
            "drawnRed": 63,
            "reportedRed": 86,
            "inferredRed": 80,
            "playerTrialScore": -17,
            "oppTrialScore": 17,
            "playerTotalScore": -1015,
            "oppTotalScore": 953,
            "waitTime": 6396.402995412338,
            "responseTime": 1678905475490,
            "catchQuestion": "How many <b class=\"r\">red<\/b> marbles did your opponent report drawing? ",
            "catchKey": -1,
            "catchResponse": -1,
            "catchTime": 1678905431965,
            "trialTime": 0
        },
        {
            "exptPart": "trial",
            "trialNumber": 58,
            "roleCurrent": "receiver",
            "marblesSampled": 100,
            "probRed": 0.5,
            "practiceLambda": 5,
            "trialLambda": 21.9,
            "instructedLambda": "honest",
            "drawnRed": 30,
            "reportedRed": 49,
            "inferredRed": 45,
            "playerTrialScore": -15,
            "oppTrialScore": 15,
            "playerTotalScore": -1030,
            "oppTotalScore": 968,
            "waitTime": 6214.708228349229,
            "responseTime": 1678905485627,
            "catchQuestion": "How many <b class=\"r\">red<\/b> marbles did your opponent report drawing? ",
            "catchKey": -1,
            "catchResponse": -1,
            "catchTime": 1678905431965,
            "trialTime": 0
        },
        {
            "exptPart": "trial",
            "trialNumber": 59,
            "roleCurrent": "receiver",
            "marblesSampled": 100,
            "probRed": 0.5,
            "practiceLambda": 5,
            "trialLambda": 21.9,
            "instructedLambda": "honest",
            "drawnRed": 96,
            "reportedRed": 100,
            "inferredRed": 100,
            "playerTrialScore": -4,
            "oppTrialScore": 4,
            "playerTotalScore": -1034,
            "oppTotalScore": 972,
            "waitTime": 5155.850515247586,
            "responseTime": 1678905494216,
            "catchQuestion": "How many <b class=\"r\">red<\/b> marbles did your opponent report drawing? ",
            "catchKey": -1,
            "catchResponse": -1,
            "catchTime": 1678905431965,
            "trialTime": 0
        },
        {
            "exptPart": "trial",
            "trialNumber": 60,
            "roleCurrent": "receiver",
            "marblesSampled": 100,
            "probRed": 0.5,
            "practiceLambda": 5,
            "trialLambda": 21.9,
            "instructedLambda": "honest",
            "drawnRed": 42,
            "reportedRed": 61,
            "inferredRed": 60,
            "playerTrialScore": -18,
            "oppTrialScore": 18,
            "playerTotalScore": -1052,
            "oppTotalScore": 990,
            "waitTime": 6271.416260912152,
            "responseTime": 1678905503516,
            "catchQuestion": "How many <b class=\"r\">red<\/b> marbles did your opponent report drawing? ",
            "catchKey": -1,
            "catchResponse": -1,
            "catchTime": 1678905503516,
            "trialTime": 0
        },
        {
            "exptPart": "trial",
            "trialNumber": 61,
            "roleCurrent": "receiver",
            "marblesSampled": 100,
            "probRed": 0.5,
            "practiceLambda": 5,
            "trialLambda": 21.9,
            "instructedLambda": "honest",
            "drawnRed": 28,
            "reportedRed": 47,
            "inferredRed": 34,
            "playerTrialScore": -6,
            "oppTrialScore": 6,
            "playerTotalScore": -1058,
            "oppTotalScore": 996,
            "waitTime": 6671.489377443077,
            "responseTime": 1678905520717,
            "catchQuestion": "How many <b class=\"r\">red<\/b> marbles did your opponent report drawing? ",
            "catchKey": -1,
            "catchResponse": -1,
            "catchTime": 1678905503516,
            "trialTime": 0
        },
        {
            "exptPart": "trial",
            "trialNumber": 62,
            "roleCurrent": "receiver",
            "marblesSampled": 100,
            "probRed": 0.5,
            "practiceLambda": 5,
            "trialLambda": 21.9,
            "instructedLambda": "honest",
            "drawnRed": 68,
            "reportedRed": 90,
            "inferredRed": 54,
            "playerTrialScore": -14,
            "oppTrialScore": 0,
            "playerTotalScore": -1072,
            "oppTotalScore": 996,
            "waitTime": 6312.0549551342465,
            "responseTime": 1678905529373,
            "catchQuestion": "How many <b class=\"r\">red<\/b> marbles did your opponent report drawing? ",
            "catchKey": -1,
            "catchResponse": -1,
            "catchTime": 1678905503516,
            "trialTime": 0
        },
        {
            "exptPart": "trial",
            "trialNumber": 63,
            "roleCurrent": "receiver",
            "marblesSampled": 100,
            "probRed": 0.5,
            "practiceLambda": 5,
            "trialLambda": 21.9,
            "instructedLambda": "honest",
            "drawnRed": 87,
            "reportedRed": 100,
            "inferredRed": 54,
            "playerTrialScore": -33,
            "oppTrialScore": 0,
            "playerTotalScore": -1105,
            "oppTotalScore": 996,
            "waitTime": 6704.477699341625,
            "responseTime": 1678905538511,
            "catchQuestion": "How many <b class=\"r\">red<\/b> marbles did your opponent report drawing? ",
            "catchKey": -1,
            "catchResponse": -1,
            "catchTime": 1678905503516,
            "trialTime": 0
        },
        {
            "exptPart": "trial",
            "trialNumber": 64,
            "roleCurrent": "receiver",
            "marblesSampled": 100,
            "probRed": 0.5,
            "practiceLambda": 5,
            "trialLambda": 21.9,
            "instructedLambda": "honest",
            "drawnRed": 20,
            "reportedRed": 47,
            "inferredRed": 34,
            "playerTrialScore": -14,
            "oppTrialScore": 14,
            "playerTotalScore": -1119,
            "oppTotalScore": 1010,
            "waitTime": 6264.275384440162,
            "responseTime": 1678905547819,
            "catchQuestion": "How many <b class=\"r\">red<\/b> marbles did your opponent report drawing? ",
            "catchKey": -1,
            "catchResponse": -1,
            "catchTime": 1678905503516,
            "trialTime": 0
        },
        {
            "exptPart": "trial",
            "trialNumber": 65,
            "roleCurrent": "receiver",
            "marblesSampled": 100,
            "probRed": 0.5,
            "practiceLambda": 5,
            "trialLambda": 21.9,
            "instructedLambda": "honest",
            "drawnRed": 60,
            "reportedRed": 80,
            "inferredRed": 54,
            "playerTrialScore": -6,
            "oppTrialScore": 0,
            "playerTotalScore": -1125,
            "oppTotalScore": 1010,
            "waitTime": 7330.334419558237,
            "responseTime": 1678905557546,
            "catchQuestion": "How many <b class=\"r\">red<\/b> marbles did your opponent report drawing? ",
            "catchKey": -1,
            "catchResponse": -1,
            "catchTime": 1678905503516,
            "trialTime": 0
        },
        {
            "exptPart": "trial",
            "trialNumber": 66,
            "roleCurrent": "receiver",
            "marblesSampled": 100,
            "probRed": 0.5,
            "practiceLambda": 5,
            "trialLambda": 21.9,
            "instructedLambda": "honest",
            "drawnRed": 86,
            "reportedRed": 100,
            "inferredRed": 55,
            "playerTrialScore": -31,
            "oppTrialScore": 0,
            "playerTotalScore": -1156,
            "oppTotalScore": 1010,
            "waitTime": 5673.834056860781,
            "responseTime": 1678905565748,
            "catchQuestion": "How many <b class=\"r\">red<\/b> marbles did your opponent report drawing? ",
            "catchKey": -1,
            "catchResponse": -1,
            "catchTime": 1678905503516,
            "trialTime": 0
        },
        {
            "exptPart": "trial",
            "trialNumber": 67,
            "roleCurrent": "receiver",
            "marblesSampled": 100,
            "probRed": 0.5,
            "practiceLambda": 5,
            "trialLambda": 21.9,
            "instructedLambda": "honest",
            "drawnRed": 65,
            "reportedRed": 85,
            "inferredRed": 55,
            "playerTrialScore": -10,
            "oppTrialScore": 0,
            "playerTotalScore": -1166,
            "oppTotalScore": 1010,
            "waitTime": 6489.855099074044,
            "responseTime": 1678905574913,
            "catchQuestion": "How many <b class=\"r\">red<\/b> marbles did your opponent report drawing? ",
            "catchKey": -1,
            "catchResponse": -1,
            "catchTime": 1678905503516,
            "trialTime": 0
        },
        {
            "exptPart": "trial",
            "trialNumber": 68,
            "roleCurrent": "receiver",
            "marblesSampled": 100,
            "probRed": 0.5,
            "practiceLambda": 5,
            "trialLambda": 21.9,
            "instructedLambda": "honest",
            "drawnRed": 51,
            "reportedRed": 70,
            "inferredRed": 55,
            "playerTrialScore": -4,
            "oppTrialScore": 4,
            "playerTotalScore": -1170,
            "oppTotalScore": 1014,
            "waitTime": 7023.1298023466825,
            "responseTime": 1678905584184,
            "catchQuestion": "How many <b class=\"r\">red<\/b> marbles did your opponent report drawing? ",
            "catchKey": -1,
            "catchResponse": -1,
            "catchTime": 1678905503516,
            "trialTime": 0
        },
        {
            "exptPart": "trial",
            "trialNumber": 69,
            "roleCurrent": "receiver",
            "marblesSampled": 100,
            "probRed": 0.5,
            "practiceLambda": 5,
            "trialLambda": 21.9,
            "instructedLambda": "honest",
            "drawnRed": 52,
            "reportedRed": 70,
            "inferredRed": 70,
            "playerTrialScore": -18,
            "oppTrialScore": 18,
            "playerTotalScore": -1188,
            "oppTotalScore": 1032,
            "waitTime": 7182.646219044949,
            "responseTime": 1678905594966,
            "catchQuestion": "How many <b class=\"r\">red<\/b> marbles did your opponent report drawing? ",
            "catchKey": -1,
            "catchResponse": -1,
            "catchTime": 1678905503516,
            "trialTime": 0
        },
        {
            "exptPart": "trial",
            "trialNumber": 70,
            "roleCurrent": "receiver",
            "marblesSampled": 100,
            "probRed": 0.5,
            "practiceLambda": 5,
            "trialLambda": 21.9,
            "instructedLambda": "honest",
            "drawnRed": 37,
            "reportedRed": 56,
            "inferredRed": 70,
            "playerTrialScore": -33,
            "oppTrialScore": 33,
            "playerTotalScore": -1221,
            "oppTotalScore": 1065,
            "waitTime": 5727.141345847632,
            "responseTime": 1678905603464,
            "catchQuestion": "How many <b class=\"r\">red<\/b> marbles did your opponent report drawing? ",
            "catchKey": -1,
            "catchResponse": -1,
            "catchTime": 1678905603464,
            "trialTime": 0
        },
        {
            "exptPart": "trial",
            "trialNumber": 71,
            "roleCurrent": "receiver",
            "marblesSampled": 100,
            "probRed": 0.5,
            "practiceLambda": 5,
            "trialLambda": 21.9,
            "instructedLambda": "honest",
            "drawnRed": 44,
            "reportedRed": 67,
            "inferredRed": 71,
            "playerTrialScore": -27,
            "oppTrialScore": 27,
            "playerTotalScore": -1248,
            "oppTotalScore": 1092,
            "waitTime": 5381.593566692241,
            "responseTime": 1678905618142,
            "catchQuestion": "How many <b class=\"r\">red<\/b> marbles did your opponent report drawing? ",
            "catchKey": -1,
            "catchResponse": -1,
            "catchTime": 1678905603464,
            "trialTime": 0
        },
        {
            "exptPart": "trial",
            "trialNumber": 72,
            "roleCurrent": "receiver",
            "marblesSampled": 100,
            "probRed": 0.5,
            "practiceLambda": 5,
            "trialLambda": 21.9,
            "instructedLambda": "honest",
            "drawnRed": 74,
            "reportedRed": 96,
            "inferredRed": 72,
            "playerTrialScore": -2,
            "oppTrialScore": 0,
            "playerTotalScore": -1250,
            "oppTotalScore": 1092,
            "waitTime": 6139.532831413408,
            "responseTime": 1678905626305,
            "catchQuestion": "How many <b class=\"r\">red<\/b> marbles did your opponent report drawing? ",
            "catchKey": -1,
            "catchResponse": -1,
            "catchTime": 1678905603464,
            "trialTime": 0
        },
        {
            "exptPart": "trial",
            "trialNumber": 73,
            "roleCurrent": "receiver",
            "marblesSampled": 100,
            "probRed": 0.5,
            "practiceLambda": 5,
            "trialLambda": 21.9,
            "instructedLambda": "honest",
            "drawnRed": 82,
            "reportedRed": 100,
            "inferredRed": 73,
            "playerTrialScore": -9,
            "oppTrialScore": 0,
            "playerTotalScore": -1259,
            "oppTotalScore": 1092,
            "waitTime": 7362.259583142943,
            "responseTime": 1678905637448,
            "catchQuestion": "How many <b class=\"r\">red<\/b> marbles did your opponent report drawing? ",
            "catchKey": -1,
            "catchResponse": -1,
            "catchTime": 1678905603464,
            "trialTime": 0
        },
        {
            "exptPart": "trial",
            "trialNumber": 74,
            "roleCurrent": "receiver",
            "marblesSampled": 100,
            "probRed": 0.5,
            "practiceLambda": 5,
            "trialLambda": 21.9,
            "instructedLambda": "honest",
            "drawnRed": 22,
            "reportedRed": 47,
            "inferredRed": 74,
            "playerTrialScore": -52,
            "oppTrialScore": 52,
            "playerTotalScore": -1311,
            "oppTotalScore": 1144,
            "waitTime": 5786.066204275847,
            "responseTime": 1678905645355,
            "catchQuestion": "How many <b class=\"r\">red<\/b> marbles did your opponent report drawing? ",
            "catchKey": -1,
            "catchResponse": -1,
            "catchTime": 1678905603464,
            "trialTime": 0
        },
        {
            "exptPart": "trial",
            "trialNumber": 75,
            "roleCurrent": "receiver",
            "marblesSampled": 100,
            "probRed": 0.5,
            "practiceLambda": 5,
            "trialLambda": 21.9,
            "instructedLambda": "honest",
            "drawnRed": 43,
            "reportedRed": 68,
            "inferredRed": 75,
            "playerTrialScore": -32,
            "oppTrialScore": 32,
            "playerTotalScore": -1343,
            "oppTotalScore": 1176,
            "waitTime": 6785.995405638088,
            "responseTime": 1678905653881,
            "catchQuestion": "How many <b class=\"r\">red<\/b> marbles did your opponent report drawing? ",
            "catchKey": -1,
            "catchResponse": -1,
            "catchTime": 1678905603464,
            "trialTime": 0
        },
        {
            "exptPart": "trial",
            "trialNumber": 76,
            "roleCurrent": "receiver",
            "marblesSampled": 100,
            "probRed": 0.5,
            "practiceLambda": 5,
            "trialLambda": 21.9,
            "instructedLambda": "honest",
            "drawnRed": 69,
            "reportedRed": 88,
            "inferredRed": 76,
            "playerTrialScore": -7,
            "oppTrialScore": 7,
            "playerTotalScore": -1350,
            "oppTotalScore": 1183,
            "waitTime": 5275.254317634501,
            "responseTime": 1678905664158,
            "catchQuestion": "How many <b class=\"r\">red<\/b> marbles did your opponent report drawing? ",
            "catchKey": -1,
            "catchResponse": -1,
            "catchTime": 1678905603464,
            "trialTime": 0
        },
        {
            "exptPart": "trial",
            "trialNumber": 77,
            "roleCurrent": "receiver",
            "marblesSampled": 100,
            "probRed": 0.5,
            "practiceLambda": 5,
            "trialLambda": 21.9,
            "instructedLambda": "honest",
            "drawnRed": 30,
            "reportedRed": 59,
            "inferredRed": 77,
            "playerTrialScore": -47,
            "oppTrialScore": 47,
            "playerTotalScore": -1397,
            "oppTotalScore": 1230,
            "waitTime": 7286.334910784789,
            "responseTime": 1678905674286,
            "catchQuestion": "How many <b class=\"r\">red<\/b> marbles did your opponent report drawing? ",
            "catchKey": -1,
            "catchResponse": -1,
            "catchTime": 1678905603464,
            "trialTime": 0
        },
        {
            "exptPart": "trial",
            "trialNumber": 78,
            "roleCurrent": "receiver",
            "marblesSampled": 100,
            "probRed": 0.5,
            "practiceLambda": 5,
            "trialLambda": 21.9,
            "instructedLambda": "honest",
            "drawnRed": 28,
            "reportedRed": 54,
            "inferredRed": 78,
            "playerTrialScore": -50,
            "oppTrialScore": 50,
            "playerTotalScore": -1447,
            "oppTotalScore": 1280,
            "waitTime": 6283.526807586182,
            "responseTime": 1678905683527,
            "catchQuestion": "How many <b class=\"r\">red<\/b> marbles did your opponent report drawing? ",
            "catchKey": -1,
            "catchResponse": -1,
            "catchTime": 1678905603464,
            "trialTime": 0
        },
        {
            "exptPart": "trial",
            "trialNumber": 79,
            "roleCurrent": "receiver",
            "marblesSampled": 100,
            "probRed": 0.5,
            "practiceLambda": 5,
            "trialLambda": 21.9,
            "instructedLambda": "honest",
            "drawnRed": 73,
            "reportedRed": 91,
            "inferredRed": 79,
            "playerTrialScore": -6,
            "oppTrialScore": 6,
            "playerTotalScore": -1453,
            "oppTotalScore": 1286,
            "waitTime": 6956.61375701856,
            "responseTime": 1678905693518,
            "catchQuestion": "How many <b class=\"r\">red<\/b> marbles did your opponent report drawing? ",
            "catchKey": -1,
            "catchResponse": -1,
            "catchTime": 1678905603464,
            "trialTime": 0
        },
        {
            "exptPart": "trial",
            "trialNumber": 80,
            "roleCurrent": "receiver",
            "marblesSampled": 100,
            "probRed": 0.5,
            "practiceLambda": 5,
            "trialLambda": 21.9,
            "instructedLambda": "honest",
            "drawnRed": 44,
            "reportedRed": 64,
            "inferredRed": 80,
            "playerTrialScore": -36,
            "oppTrialScore": 36,
            "playerTotalScore": -1489,
            "oppTotalScore": 1322,
            "waitTime": 6502.016327445826,
            "responseTime": 1678905702032,
            "catchQuestion": "How many <b class=\"r\">red<\/b> marbles did your opponent report drawing? ",
            "catchKey": -1,
            "catchResponse": -1,
            "catchTime": 1678905702032,
            "trialTime": 0
        },
        {
            "exptPart": "trial",
            "trialNumber": 81,
            "roleCurrent": "receiver",
            "marblesSampled": 100,
            "probRed": 0.5,
            "practiceLambda": 5,
            "trialLambda": 21.9,
            "instructedLambda": "honest",
            "drawnRed": 17,
            "reportedRed": 37,
            "inferredRed": 81,
            "playerTrialScore": -64,
            "oppTrialScore": 64,
            "playerTotalScore": -1553,
            "oppTotalScore": 1386,
            "waitTime": 6653.939132819656,
            "responseTime": 1678905751582,
            "catchQuestion": "How many <b class=\"r\">red<\/b> marbles did your opponent report drawing? ",
            "catchKey": -1,
            "catchResponse": -1,
            "catchTime": 1678905702032,
            "trialTime": 0
        },
        {
            "exptPart": "trial",
            "trialNumber": 82,
            "roleCurrent": "receiver",
            "marblesSampled": 100,
            "probRed": 0.5,
            "practiceLambda": 5,
            "trialLambda": 21.9,
            "instructedLambda": "honest",
            "drawnRed": 52,
            "reportedRed": 72,
            "inferredRed": 82,
            "playerTrialScore": -30,
            "oppTrialScore": 30,
            "playerTotalScore": -1583,
            "oppTotalScore": 1416,
            "waitTime": 6774.500582057044,
            "responseTime": 1678905760967,
            "catchQuestion": "How many <b class=\"r\">red<\/b> marbles did your opponent report drawing? ",
            "catchKey": -1,
            "catchResponse": -1,
            "catchTime": 1678905702032,
            "trialTime": 0
        },
        {
            "exptPart": "trial",
            "trialNumber": 83,
            "roleCurrent": "receiver",
            "marblesSampled": 100,
            "probRed": 0.5,
            "practiceLambda": 5,
            "trialLambda": 21.9,
            "instructedLambda": "honest",
            "drawnRed": 37,
            "reportedRed": 50,
            "inferredRed": 83,
            "playerTrialScore": -46,
            "oppTrialScore": 46,
            "playerTotalScore": -1629,
            "oppTotalScore": 1462,
            "waitTime": 5888.409937187835,
            "responseTime": 1678905771618,
            "catchQuestion": "How many <b class=\"r\">red<\/b> marbles did your opponent report drawing? ",
            "catchKey": -1,
            "catchResponse": -1,
            "catchTime": 1678905702032,
            "trialTime": 0
        },
        {
            "exptPart": "trial",
            "trialNumber": 84,
            "roleCurrent": "receiver",
            "marblesSampled": 100,
            "probRed": 0.5,
            "practiceLambda": 5,
            "trialLambda": 21.9,
            "instructedLambda": "honest",
            "drawnRed": 73,
            "reportedRed": 97,
            "inferredRed": 84,
            "playerTrialScore": -11,
            "oppTrialScore": 11,
            "playerTotalScore": -1640,
            "oppTotalScore": 1473,
            "waitTime": 6118.227606138749,
            "responseTime": 1678905779726,
            "catchQuestion": "How many <b class=\"r\">red<\/b> marbles did your opponent report drawing? ",
            "catchKey": -1,
            "catchResponse": -1,
            "catchTime": 1678905702032,
            "trialTime": 0
        },
        {
            "exptPart": "trial",
            "trialNumber": 85,
            "roleCurrent": "receiver",
            "marblesSampled": 100,
            "probRed": 0.5,
            "practiceLambda": 5,
            "trialLambda": 21.9,
            "instructedLambda": "honest",
            "drawnRed": 65,
            "reportedRed": 90,
            "inferredRed": 85,
            "playerTrialScore": -20,
            "oppTrialScore": 20,
            "playerTotalScore": -1660,
            "oppTotalScore": 1493,
            "waitTime": 7200.456807683703,
            "responseTime": 1678905789332,
            "catchQuestion": "How many <b class=\"r\">red<\/b> marbles did your opponent report drawing? ",
            "catchKey": -1,
            "catchResponse": -1,
            "catchTime": 1678905702032,
            "trialTime": 0
        },
        {
            "exptPart": "trial",
            "trialNumber": 86,
            "roleCurrent": "receiver",
            "marblesSampled": 100,
            "probRed": 0.5,
            "practiceLambda": 5,
            "trialLambda": 21.9,
            "instructedLambda": "honest",
            "drawnRed": 67,
            "reportedRed": 84,
            "inferredRed": 86,
            "playerTrialScore": -19,
            "oppTrialScore": 19,
            "playerTotalScore": -1679,
            "oppTotalScore": 1512,
            "waitTime": 6761.41343970681,
            "responseTime": 1678905798439,
            "catchQuestion": "How many <b class=\"r\">red<\/b> marbles did your opponent report drawing? ",
            "catchKey": -1,
            "catchResponse": -1,
            "catchTime": 1678905702032,
            "trialTime": 0
        },
        {
            "exptPart": "trial",
            "trialNumber": 87,
            "roleCurrent": "receiver",
            "marblesSampled": 100,
            "probRed": 0.5,
            "practiceLambda": 5,
            "trialLambda": 21.9,
            "instructedLambda": "honest",
            "drawnRed": 46,
            "reportedRed": 63,
            "inferredRed": 87,
            "playerTrialScore": -41,
            "oppTrialScore": 41,
            "playerTotalScore": -1720,
            "oppTotalScore": 1553,
            "waitTime": 5912.280826317636,
            "responseTime": 1678905807289,
            "catchQuestion": "How many <b class=\"r\">red<\/b> marbles did your opponent report drawing? ",
            "catchKey": -1,
            "catchResponse": -1,
            "catchTime": 1678905702032,
            "trialTime": 0
        },
        {
            "exptPart": "trial",
            "trialNumber": 88,
            "roleCurrent": "receiver",
            "marblesSampled": 100,
            "probRed": 0.5,
            "practiceLambda": 5,
            "trialLambda": 21.9,
            "instructedLambda": "honest",
            "drawnRed": 27,
            "reportedRed": 48,
            "inferredRed": 88,
            "playerTrialScore": -61,
            "oppTrialScore": 61,
            "playerTotalScore": -1781,
            "oppTotalScore": 1614,
            "waitTime": 6604.469280672773,
            "responseTime": 1678905816216,
            "catchQuestion": "How many <b class=\"r\">red<\/b> marbles did your opponent report drawing? ",
            "catchKey": -1,
            "catchResponse": -1,
            "catchTime": 1678905702032,
            "trialTime": 0
        },
        {
            "exptPart": "trial",
            "trialNumber": 89,
            "roleCurrent": "receiver",
            "marblesSampled": 100,
            "probRed": 0.5,
            "practiceLambda": 5,
            "trialLambda": 21.9,
            "instructedLambda": "honest",
            "drawnRed": 48,
            "reportedRed": 67,
            "inferredRed": 89,
            "playerTrialScore": -41,
            "oppTrialScore": 41,
            "playerTotalScore": -1822,
            "oppTotalScore": 1655,
            "waitTime": 6558.274412675621,
            "responseTime": 1678905824898,
            "catchQuestion": "How many <b class=\"r\">red<\/b> marbles did your opponent report drawing? ",
            "catchKey": 67,
            "catchResponse": 67,
            "catchTime": 1678905824898,
            "trialTime": 0
        },
        {
            "exptPart": "trial",
            "trialNumber": 90,
            "roleCurrent": "receiver",
            "marblesSampled": 100,
            "probRed": 0.5,
            "practiceLambda": 5,
            "trialLambda": 21.9,
            "instructedLambda": "honest",
            "drawnRed": 27,
            "reportedRed": 46,
            "inferredRed": 90,
            "playerTrialScore": -63,
            "oppTrialScore": 63,
            "playerTotalScore": -1885,
            "oppTotalScore": 1718,
            "waitTime": 6854.71345008846,
            "responseTime": 1678905842621,
            "catchQuestion": "How many <b class=\"r\">red<\/b> marbles did your opponent report drawing? ",
            "catchKey": -1,
            "catchResponse": -1,
            "catchTime": 1678905842621,
            "trialTime": 0
        },
        {
            "exptPart": "trial",
            "trialNumber": 91,
            "roleCurrent": "receiver",
            "marblesSampled": 100,
            "probRed": 0.5,
            "practiceLambda": 5,
            "trialLambda": 21.9,
            "instructedLambda": "honest",
            "drawnRed": 33,
            "reportedRed": 55,
            "inferredRed": 91,
            "playerTrialScore": -58,
            "oppTrialScore": 58,
            "playerTotalScore": -1943,
            "oppTotalScore": 1776,
            "waitTime": 6409.589863173811,
            "responseTime": 1678905853077,
            "catchQuestion": "How many <b class=\"r\">red<\/b> marbles did your opponent report drawing? ",
            "catchKey": -1,
            "catchResponse": -1,
            "catchTime": 1678905842621,
            "trialTime": 0
        },
        {
            "exptPart": "trial",
            "trialNumber": 92,
            "roleCurrent": "receiver",
            "marblesSampled": 100,
            "probRed": 0.5,
            "practiceLambda": 5,
            "trialLambda": 21.9,
            "instructedLambda": "honest",
            "drawnRed": 81,
            "reportedRed": 98,
            "inferredRed": 92,
            "playerTrialScore": -11,
            "oppTrialScore": 11,
            "playerTotalScore": -1954,
            "oppTotalScore": 1787,
            "waitTime": 7186.597210799366,
            "responseTime": 1678905862358,
            "catchQuestion": "How many <b class=\"r\">red<\/b> marbles did your opponent report drawing? ",
            "catchKey": -1,
            "catchResponse": -1,
            "catchTime": 1678905842621,
            "trialTime": 0
        },
        {
            "exptPart": "trial",
            "trialNumber": 93,
            "roleCurrent": "receiver",
            "marblesSampled": 100,
            "probRed": 0.5,
            "practiceLambda": 5,
            "trialLambda": 21.9,
            "instructedLambda": "honest",
            "drawnRed": 67,
            "reportedRed": 88,
            "inferredRed": 93,
            "playerTrialScore": -26,
            "oppTrialScore": 26,
            "playerTotalScore": -1980,
            "oppTotalScore": 1813,
            "waitTime": 6499.560053858433,
            "responseTime": 1678905871097,
            "catchQuestion": "How many <b class=\"r\">red<\/b> marbles did your opponent report drawing? ",
            "catchKey": -1,
            "catchResponse": -1,
            "catchTime": 1678905842621,
            "trialTime": 0
        },
        {
            "exptPart": "trial",
            "trialNumber": 94,
            "roleCurrent": "receiver",
            "marblesSampled": 100,
            "probRed": 0.5,
            "practiceLambda": 5,
            "trialLambda": 21.9,
            "instructedLambda": "honest",
            "drawnRed": 48,
            "reportedRed": 62,
            "inferredRed": 94,
            "playerTrialScore": -46,
            "oppTrialScore": 46,
            "playerTotalScore": -2026,
            "oppTotalScore": 1859,
            "waitTime": 7491.420391726034,
            "responseTime": 1678905880679,
            "catchQuestion": "How many <b class=\"r\">red<\/b> marbles did your opponent report drawing? ",
            "catchKey": 62,
            "catchResponse": 94,
            "catchTime": 1678905880679,
            "trialTime": 0
        },
        {
            "exptPart": "trial",
            "trialNumber": 95,
            "roleCurrent": "receiver",
            "marblesSampled": 100,
            "probRed": 0.5,
            "practiceLambda": 5,
            "trialLambda": 21.9,
            "instructedLambda": "honest",
            "drawnRed": 48,
            "reportedRed": 69,
            "inferredRed": 95,
            "playerTrialScore": -47,
            "oppTrialScore": 47,
            "playerTotalScore": -2073,
            "oppTotalScore": 1906,
            "waitTime": 7317.556255853594,
            "responseTime": 1678905901324,
            "catchQuestion": "How many <b class=\"r\">red<\/b> marbles did your opponent report drawing? ",
            "catchKey": -1,
            "catchResponse": -1,
            "catchTime": 1678905880679,
            "trialTime": 0
        },
        {
            "exptPart": "trial",
            "trialNumber": 96,
            "roleCurrent": "receiver",
            "marblesSampled": 100,
            "probRed": 0.5,
            "practiceLambda": 5,
            "trialLambda": 21.9,
            "instructedLambda": "honest",
            "drawnRed": 82,
            "reportedRed": 100,
            "inferredRed": 96,
            "playerTrialScore": -14,
            "oppTrialScore": 14,
            "playerTotalScore": -2087,
            "oppTotalScore": 1920,
            "waitTime": 6841.211461030395,
            "responseTime": 1678905910798,
            "catchQuestion": "How many <b class=\"r\">red<\/b> marbles did your opponent report drawing? ",
            "catchKey": -1,
            "catchResponse": -1,
            "catchTime": 1678905880679,
            "trialTime": 0
        },
        {
            "exptPart": "trial",
            "trialNumber": 97,
            "roleCurrent": "receiver",
            "marblesSampled": 100,
            "probRed": 0.5,
            "practiceLambda": 5,
            "trialLambda": 21.9,
            "instructedLambda": "honest",
            "drawnRed": 21,
            "reportedRed": 39,
            "inferredRed": 97,
            "playerTrialScore": -76,
            "oppTrialScore": 76,
            "playerTotalScore": -2163,
            "oppTotalScore": 1996,
            "waitTime": 5304.480095623809,
            "responseTime": 1678905918897,
            "catchQuestion": "How many <b class=\"r\">red<\/b> marbles did your opponent report drawing? ",
            "catchKey": -1,
            "catchResponse": -1,
            "catchTime": 1678905880679,
            "trialTime": 0
        },
        {
            "exptPart": "trial",
            "trialNumber": 98,
            "roleCurrent": "receiver",
            "marblesSampled": 100,
            "probRed": 0.5,
            "practiceLambda": 5,
            "trialLambda": 21.9,
            "instructedLambda": "honest",
            "drawnRed": 38,
            "reportedRed": 64,
            "inferredRed": 98,
            "playerTrialScore": -60,
            "oppTrialScore": 60,
            "playerTotalScore": -2223,
            "oppTotalScore": 2056,
            "waitTime": 5358.0981083800125,
            "responseTime": 1678905926792,
            "catchQuestion": "How many <b class=\"r\">red<\/b> marbles did your opponent report drawing? ",
            "catchKey": -1,
            "catchResponse": -1,
            "catchTime": 1678905880679,
            "trialTime": 0
        },
        {
            "exptPart": "trial",
            "trialNumber": 99,
            "roleCurrent": "receiver",
            "marblesSampled": 100,
            "probRed": 0.5,
            "practiceLambda": 5,
            "trialLambda": 21.9,
            "instructedLambda": "honest",
            "drawnRed": 16,
            "reportedRed": 39,
            "inferredRed": 99,
            "playerTrialScore": -83,
            "oppTrialScore": 83,
            "playerTotalScore": -2306,
            "oppTotalScore": 2139,
            "waitTime": 6769.663579510754,
            "responseTime": 1678905935818,
            "catchQuestion": "How many <b class=\"r\">red<\/b> marbles did your opponent report drawing? ",
            "catchKey": -1,
            "catchResponse": -1,
            "catchTime": 1678905880679,
            "trialTime": 0
        },
        {
            "exptPart": "trial",
            "trialNumber": 100,
            "roleCurrent": "receiver",
            "marblesSampled": 100,
            "probRed": 0.5,
            "practiceLambda": 5,
            "trialLambda": 21.9,
            "instructedLambda": "honest",
            "drawnRed": 30,
            "reportedRed": 61,
            "inferredRed": 100,
            "playerTrialScore": -70,
            "oppTrialScore": 70,
            "playerTotalScore": -2376,
            "oppTotalScore": 2209,
            "waitTime": 6024.410373251911,
            "responseTime": 1678905945032,
            "catchQuestion": "How many <b class=\"r\">red<\/b> marbles did your opponent report drawing? ",
            "catchKey": -1,
            "catchResponse": -1,
            "catchTime": 1678905945033,
            "trialTime": 0
        }
    ]
}