{
    "client": {
        "type": "sona",
        "experiment_id": 2488,
        "credit_token": "79d15902e9034cb6b65a542be205401c",
        "survey_code": "42253",
        "sid": "sona-42253",
        "window": {
            "width": 1863,
            "height": 961
        },
        "screen": {
            "width": 1920,
            "height": 1080
        },
        "userAgent": "Mozilla\/5.0 (Windows NT 10.0; Win64; x64) AppleWebKit\/537.36 (KHTML, like Gecko) Chrome\/111.0.0.0 Safari\/537.36 Edg\/111.0.1661.41",
        "score": 0,
        "bonus": 0
    },
    "expt": {
        "saveURL": "submit.simple.php",
        "trials": 100,
        "practiceTrials": 2,
        "marblesSampled": 100,
        "probRed": 0.5,
        "practiceLambdaAI": 5,
        "lambdaAI": 8.1,
        "roles": [
            "sender",
            "receiver"
        ],
        "cost": "unif",
        "goal": "over",
        "oppDishonesty": "dishonest_small",
        "catchTrials": [
            69,
            63,
            10,
            58,
            60,
            11,
            93,
            28,
            13,
            75
        ],
        "scoreTotal": {
            "player": -757,
            "opp": 168
        },
        "sona": {
            "experiment_id": 2488,
            "credit_token": "79d15902e9034cb6b65a542be205401c"
        },
        "pilot": false,
        "debug": false
    },
    "trials": [
        {
            "exptPart": "practice",
            "trialNumber": 1,
            "roleCurrent": "sender",
            "marblesSampled": 100,
            "probRed": 0.5,
            "practiceLambda": 5,
            "trialLambda": 8.1,
            "instructedLambda": "dishonest_small",
            "drawnRed": 58,
            "reportedRed": 58,
            "inferredRed": 49,
            "playerTrialScore": 0,
            "oppTrialScore": -9,
            "playerTotalScore": 0,
            "oppTotalScore": -9,
            "waitTime": 2534.2625381836588,
            "responseTime": 1678906770420,
            "catchQuestion": "How many <b class=\"r\">red<\/b> marbles did you actually draw (before any changes)? ",
            "catchKey": 58,
            "catchResponse": 13,
            "catchTime": 1678906770420,
            "trialTime": 0
        },
        {
            "exptPart": "practice",
            "trialNumber": 2,
            "roleCurrent": "receiver",
            "marblesSampled": 100,
            "probRed": 0.5,
            "practiceLambda": 5,
            "trialLambda": 8.1,
            "instructedLambda": "dishonest_small",
            "drawnRed": 14,
            "reportedRed": 24,
            "inferredRed": 20,
            "playerTrialScore": -6,
            "oppTrialScore": 6,
            "playerTotalScore": -6,
            "oppTotalScore": -3,
            "waitTime": 6297.304422452189,
            "responseTime": 1678906806405,
            "catchQuestion": "How many <b class=\"r\">red<\/b> marbles did your opponent report drawing? ",
            "catchKey": 24,
            "catchResponse": 24,
            "catchTime": 1678906806405,
            "trialTime": 0
        },
        {
            "exptPart": "trial",
            "trialNumber": 1,
            "roleCurrent": "receiver",
            "marblesSampled": 100,
            "probRed": 0.5,
            "practiceLambda": 5,
            "trialLambda": 8.1,
            "instructedLambda": "dishonest_small",
            "drawnRed": 50,
            "reportedRed": 57,
            "inferredRed": 40,
            "playerTrialScore": -10,
            "oppTrialScore": 0,
            "playerTotalScore": -10,
            "oppTotalScore": 0,
            "waitTime": 5870.48313355848,
            "responseTime": 1678906825535,
            "catchQuestion": "How many <b class=\"r\">red<\/b> marbles did your opponent report drawing? ",
            "catchKey": -1,
            "catchResponse": -1,
            "catchTime": 1678906806405,
            "trialTime": 0
        },
        {
            "exptPart": "trial",
            "trialNumber": 2,
            "roleCurrent": "receiver",
            "marblesSampled": 100,
            "probRed": 0.5,
            "practiceLambda": 5,
            "trialLambda": 8.1,
            "instructedLambda": "dishonest_small",
            "drawnRed": 48,
            "reportedRed": 59,
            "inferredRed": 19,
            "playerTrialScore": -29,
            "oppTrialScore": 0,
            "playerTotalScore": -39,
            "oppTotalScore": 0,
            "waitTime": 6567.424337600788,
            "responseTime": 1678906835573,
            "catchQuestion": "How many <b class=\"r\">red<\/b> marbles did your opponent report drawing? ",
            "catchKey": -1,
            "catchResponse": -1,
            "catchTime": 1678906806405,
            "trialTime": 0
        },
        {
            "exptPart": "trial",
            "trialNumber": 3,
            "roleCurrent": "receiver",
            "marblesSampled": 100,
            "probRed": 0.5,
            "practiceLambda": 5,
            "trialLambda": 8.1,
            "instructedLambda": "dishonest_small",
            "drawnRed": 68,
            "reportedRed": 76,
            "inferredRed": 50,
            "playerTrialScore": -18,
            "oppTrialScore": 0,
            "playerTotalScore": -57,
            "oppTotalScore": 0,
            "waitTime": 5988.059705709549,
            "responseTime": 1678906845409,
            "catchQuestion": "How many <b class=\"r\">red<\/b> marbles did your opponent report drawing? ",
            "catchKey": -1,
            "catchResponse": -1,
            "catchTime": 1678906806405,
            "trialTime": 0
        },
        {
            "exptPart": "trial",
            "trialNumber": 4,
            "roleCurrent": "receiver",
            "marblesSampled": 100,
            "probRed": 0.5,
            "practiceLambda": 5,
            "trialLambda": 8.1,
            "instructedLambda": "dishonest_small",
            "drawnRed": 58,
            "reportedRed": 74,
            "inferredRed": 60,
            "playerTrialScore": -2,
            "oppTrialScore": 2,
            "playerTotalScore": -59,
            "oppTotalScore": 2,
            "waitTime": 5173.487020271028,
            "responseTime": 1678906858276,
            "catchQuestion": "How many <b class=\"r\">red<\/b> marbles did your opponent report drawing? ",
            "catchKey": -1,
            "catchResponse": -1,
            "catchTime": 1678906806405,
            "trialTime": 0
        },
        {
            "exptPart": "trial",
            "trialNumber": 5,
            "roleCurrent": "receiver",
            "marblesSampled": 100,
            "probRed": 0.5,
            "practiceLambda": 5,
            "trialLambda": 8.1,
            "instructedLambda": "dishonest_small",
            "drawnRed": 20,
            "reportedRed": 28,
            "inferredRed": 15,
            "playerTrialScore": -5,
            "oppTrialScore": 0,
            "playerTotalScore": -64,
            "oppTotalScore": 2,
            "waitTime": 6109.29775011552,
            "responseTime": 1678906867833,
            "catchQuestion": "How many <b class=\"r\">red<\/b> marbles did your opponent report drawing? ",
            "catchKey": -1,
            "catchResponse": -1,
            "catchTime": 1678906806405,
            "trialTime": 0
        },
        {
            "exptPart": "trial",
            "trialNumber": 6,
            "roleCurrent": "receiver",
            "marblesSampled": 100,
            "probRed": 0.5,
            "practiceLambda": 5,
            "trialLambda": 8.1,
            "instructedLambda": "dishonest_small",
            "drawnRed": 32,
            "reportedRed": 40,
            "inferredRed": 20,
            "playerTrialScore": -12,
            "oppTrialScore": 0,
            "playerTotalScore": -76,
            "oppTotalScore": 2,
            "waitTime": 7289.021047858403,
            "responseTime": 1678906878433,
            "catchQuestion": "How many <b class=\"r\">red<\/b> marbles did your opponent report drawing? ",
            "catchKey": -1,
            "catchResponse": -1,
            "catchTime": 1678906806405,
            "trialTime": 0
        },
        {
            "exptPart": "trial",
            "trialNumber": 7,
            "roleCurrent": "receiver",
            "marblesSampled": 100,
            "probRed": 0.5,
            "practiceLambda": 5,
            "trialLambda": 8.1,
            "instructedLambda": "dishonest_small",
            "drawnRed": 69,
            "reportedRed": 72,
            "inferredRed": 50,
            "playerTrialScore": -19,
            "oppTrialScore": 0,
            "playerTotalScore": -95,
            "oppTotalScore": 2,
            "waitTime": 5211.814501585601,
            "responseTime": 1678906887433,
            "catchQuestion": "How many <b class=\"r\">red<\/b> marbles did your opponent report drawing? ",
            "catchKey": -1,
            "catchResponse": -1,
            "catchTime": 1678906806405,
            "trialTime": 0
        },
        {
            "exptPart": "trial",
            "trialNumber": 8,
            "roleCurrent": "receiver",
            "marblesSampled": 100,
            "probRed": 0.5,
            "practiceLambda": 5,
            "trialLambda": 8.1,
            "instructedLambda": "dishonest_small",
            "drawnRed": 82,
            "reportedRed": 91,
            "inferredRed": 80,
            "playerTrialScore": -2,
            "oppTrialScore": 0,
            "playerTotalScore": -97,
            "oppTotalScore": 2,
            "waitTime": 6782.627037737389,
            "responseTime": 1678906900908,
            "catchQuestion": "How many <b class=\"r\">red<\/b> marbles did your opponent report drawing? ",
            "catchKey": -1,
            "catchResponse": -1,
            "catchTime": 1678906806405,
            "trialTime": 0
        },
        {
            "exptPart": "trial",
            "trialNumber": 9,
            "roleCurrent": "receiver",
            "marblesSampled": 100,
            "probRed": 0.5,
            "practiceLambda": 5,
            "trialLambda": 8.1,
            "instructedLambda": "dishonest_small",
            "drawnRed": 78,
            "reportedRed": 84,
            "inferredRed": 60,
            "playerTrialScore": -18,
            "oppTrialScore": 0,
            "playerTotalScore": -115,
            "oppTotalScore": 2,
            "waitTime": 6400.566300753612,
            "responseTime": 1678906920546,
            "catchQuestion": "How many <b class=\"r\">red<\/b> marbles did your opponent report drawing? ",
            "catchKey": -1,
            "catchResponse": -1,
            "catchTime": 1678906806405,
            "trialTime": 0
        },
        {
            "exptPart": "trial",
            "trialNumber": 10,
            "roleCurrent": "receiver",
            "marblesSampled": 100,
            "probRed": 0.5,
            "practiceLambda": 5,
            "trialLambda": 8.1,
            "instructedLambda": "dishonest_small",
            "drawnRed": 86,
            "reportedRed": 95,
            "inferredRed": 80,
            "playerTrialScore": -6,
            "oppTrialScore": 0,
            "playerTotalScore": -121,
            "oppTotalScore": 2,
            "waitTime": 5942.395574732873,
            "responseTime": 1678906930873,
            "catchQuestion": "How many <b class=\"r\">red<\/b> marbles did your opponent report drawing? ",
            "catchKey": -1,
            "catchResponse": -1,
            "catchTime": 1678906930873,
            "trialTime": 0
        },
        {
            "exptPart": "trial",
            "trialNumber": 11,
            "roleCurrent": "receiver",
            "marblesSampled": 100,
            "probRed": 0.5,
            "practiceLambda": 5,
            "trialLambda": 8.1,
            "instructedLambda": "dishonest_small",
            "drawnRed": 83,
            "reportedRed": 93,
            "inferredRed": 80,
            "playerTrialScore": -3,
            "oppTrialScore": 0,
            "playerTotalScore": -124,
            "oppTotalScore": 2,
            "waitTime": 6878.681937377815,
            "responseTime": 1678906944178,
            "catchQuestion": "How many <b class=\"r\">red<\/b> marbles did your opponent report drawing? ",
            "catchKey": 93,
            "catchResponse": 70,
            "catchTime": 1678906944178,
            "trialTime": 0
        },
        {
            "exptPart": "trial",
            "trialNumber": 12,
            "roleCurrent": "receiver",
            "marblesSampled": 100,
            "probRed": 0.5,
            "practiceLambda": 5,
            "trialLambda": 8.1,
            "instructedLambda": "dishonest_small",
            "drawnRed": 56,
            "reportedRed": 65,
            "inferredRed": 60,
            "playerTrialScore": -4,
            "oppTrialScore": 4,
            "playerTotalScore": -128,
            "oppTotalScore": 6,
            "waitTime": 6425.227821532224,
            "responseTime": 1678906965685,
            "catchQuestion": "How many <b class=\"r\">red<\/b> marbles did your opponent report drawing? ",
            "catchKey": 65,
            "catchResponse": 60,
            "catchTime": 1678906965685,
            "trialTime": 0
        },
        {
            "exptPart": "trial",
            "trialNumber": 13,
            "roleCurrent": "receiver",
            "marblesSampled": 100,
            "probRed": 0.5,
            "practiceLambda": 5,
            "trialLambda": 8.1,
            "instructedLambda": "dishonest_small",
            "drawnRed": 27,
            "reportedRed": 33,
            "inferredRed": 40,
            "playerTrialScore": -13,
            "oppTrialScore": 13,
            "playerTotalScore": -141,
            "oppTotalScore": 19,
            "waitTime": 5885.622609269734,
            "responseTime": 1678906984164,
            "catchQuestion": "How many <b class=\"r\">red<\/b> marbles did your opponent report drawing? ",
            "catchKey": -1,
            "catchResponse": -1,
            "catchTime": 1678906965685,
            "trialTime": 0
        },
        {
            "exptPart": "trial",
            "trialNumber": 14,
            "roleCurrent": "receiver",
            "marblesSampled": 100,
            "probRed": 0.5,
            "practiceLambda": 5,
            "trialLambda": 8.1,
            "instructedLambda": "dishonest_small",
            "drawnRed": 57,
            "reportedRed": 70,
            "inferredRed": 50,
            "playerTrialScore": -7,
            "oppTrialScore": 0,
            "playerTotalScore": -148,
            "oppTotalScore": 19,
            "waitTime": 7424.065771623373,
            "responseTime": 1678906994773,
            "catchQuestion": "How many <b class=\"r\">red<\/b> marbles did your opponent report drawing? ",
            "catchKey": 70,
            "catchResponse": 60,
            "catchTime": 1678906994773,
            "trialTime": 0
        },
        {
            "exptPart": "trial",
            "trialNumber": 15,
            "roleCurrent": "receiver",
            "marblesSampled": 100,
            "probRed": 0.5,
            "practiceLambda": 5,
            "trialLambda": 8.1,
            "instructedLambda": "dishonest_small",
            "drawnRed": 40,
            "reportedRed": 46,
            "inferredRed": 40,
            "playerTrialScore": 0,
            "oppTrialScore": 0,
            "playerTotalScore": -148,
            "oppTotalScore": 19,
            "waitTime": 6405.422205412069,
            "responseTime": 1678907017961,
            "catchQuestion": "How many <b class=\"r\">red<\/b> marbles did your opponent report drawing? ",
            "catchKey": -1,
            "catchResponse": -1,
            "catchTime": 1678906994773,
            "trialTime": 0
        },
        {
            "exptPart": "trial",
            "trialNumber": 16,
            "roleCurrent": "receiver",
            "marblesSampled": 100,
            "probRed": 0.5,
            "practiceLambda": 5,
            "trialLambda": 8.1,
            "instructedLambda": "dishonest_small",
            "drawnRed": 35,
            "reportedRed": 44,
            "inferredRed": 40,
            "playerTrialScore": -5,
            "oppTrialScore": 5,
            "playerTotalScore": -153,
            "oppTotalScore": 24,
            "waitTime": 6591.783893983282,
            "responseTime": 1678907028599,
            "catchQuestion": "How many <b class=\"r\">red<\/b> marbles did your opponent report drawing? ",
            "catchKey": -1,
            "catchResponse": -1,
            "catchTime": 1678906994773,
            "trialTime": 0
        },
        {
            "exptPart": "trial",
            "trialNumber": 17,
            "roleCurrent": "receiver",
            "marblesSampled": 100,
            "probRed": 0.5,
            "practiceLambda": 5,
            "trialLambda": 8.1,
            "instructedLambda": "dishonest_small",
            "drawnRed": 53,
            "reportedRed": 59,
            "inferredRed": 50,
            "playerTrialScore": -3,
            "oppTrialScore": 0,
            "playerTotalScore": -156,
            "oppTotalScore": 24,
            "waitTime": 5647.887580007265,
            "responseTime": 1678907038177,
            "catchQuestion": "How many <b class=\"r\">red<\/b> marbles did your opponent report drawing? ",
            "catchKey": -1,
            "catchResponse": -1,
            "catchTime": 1678906994773,
            "trialTime": 0
        },
        {
            "exptPart": "trial",
            "trialNumber": 18,
            "roleCurrent": "receiver",
            "marblesSampled": 100,
            "probRed": 0.5,
            "practiceLambda": 5,
            "trialLambda": 8.1,
            "instructedLambda": "dishonest_small",
            "drawnRed": 59,
            "reportedRed": 70,
            "inferredRed": 60,
            "playerTrialScore": -1,
            "oppTrialScore": 1,
            "playerTotalScore": -157,
            "oppTotalScore": 25,
            "waitTime": 6091.553557351855,
            "responseTime": 1678907053059,
            "catchQuestion": "How many <b class=\"r\">red<\/b> marbles did your opponent report drawing? ",
            "catchKey": -1,
            "catchResponse": -1,
            "catchTime": 1678906994773,
            "trialTime": 0
        },
        {
            "exptPart": "trial",
            "trialNumber": 19,
            "roleCurrent": "receiver",
            "marblesSampled": 100,
            "probRed": 0.5,
            "practiceLambda": 5,
            "trialLambda": 8.1,
            "instructedLambda": "dishonest_small",
            "drawnRed": 25,
            "reportedRed": 32,
            "inferredRed": 30,
            "playerTrialScore": -5,
            "oppTrialScore": 5,
            "playerTotalScore": -162,
            "oppTotalScore": 30,
            "waitTime": 6326.426638560103,
            "responseTime": 1678907064632,
            "catchQuestion": "How many <b class=\"r\">red<\/b> marbles did your opponent report drawing? ",
            "catchKey": -1,
            "catchResponse": -1,
            "catchTime": 1678906994773,
            "trialTime": 0
        },
        {
            "exptPart": "trial",
            "trialNumber": 20,
            "roleCurrent": "receiver",
            "marblesSampled": 100,
            "probRed": 0.5,
            "practiceLambda": 5,
            "trialLambda": 8.1,
            "instructedLambda": "dishonest_small",
            "drawnRed": 26,
            "reportedRed": 31,
            "inferredRed": 30,
            "playerTrialScore": -4,
            "oppTrialScore": 4,
            "playerTotalScore": -166,
            "oppTotalScore": 34,
            "waitTime": 7044.599030330612,
            "responseTime": 1678907077842,
            "catchQuestion": "How many <b class=\"r\">red<\/b> marbles did your opponent report drawing? ",
            "catchKey": -1,
            "catchResponse": -1,
            "catchTime": 1678907077842,
            "trialTime": 0
        },
        {
            "exptPart": "trial",
            "trialNumber": 21,
            "roleCurrent": "receiver",
            "marblesSampled": 100,
            "probRed": 0.5,
            "practiceLambda": 5,
            "trialLambda": 8.1,
            "instructedLambda": "dishonest_small",
            "drawnRed": 16,
            "reportedRed": 26,
            "inferredRed": 20,
            "playerTrialScore": -4,
            "oppTrialScore": 4,
            "playerTotalScore": -170,
            "oppTotalScore": 38,
            "waitTime": 6809.33302262864,
            "responseTime": 1678907091732,
            "catchQuestion": "How many <b class=\"r\">red<\/b> marbles did your opponent report drawing? ",
            "catchKey": -1,
            "catchResponse": -1,
            "catchTime": 1678907077842,
            "trialTime": 0
        },
        {
            "exptPart": "trial",
            "trialNumber": 22,
            "roleCurrent": "receiver",
            "marblesSampled": 100,
            "probRed": 0.5,
            "practiceLambda": 5,
            "trialLambda": 8.1,
            "instructedLambda": "dishonest_small",
            "drawnRed": 48,
            "reportedRed": 58,
            "inferredRed": 50,
            "playerTrialScore": -2,
            "oppTrialScore": 2,
            "playerTotalScore": -172,
            "oppTotalScore": 40,
            "waitTime": 7408.803668133326,
            "responseTime": 1678907106871,
            "catchQuestion": "How many <b class=\"r\">red<\/b> marbles did your opponent report drawing? ",
            "catchKey": -1,
            "catchResponse": -1,
            "catchTime": 1678907077842,
            "trialTime": 0
        },
        {
            "exptPart": "trial",
            "trialNumber": 23,
            "roleCurrent": "receiver",
            "marblesSampled": 100,
            "probRed": 0.5,
            "practiceLambda": 5,
            "trialLambda": 8.1,
            "instructedLambda": "dishonest_small",
            "drawnRed": 76,
            "reportedRed": 85,
            "inferredRed": 80,
            "playerTrialScore": -4,
            "oppTrialScore": 4,
            "playerTotalScore": -176,
            "oppTotalScore": 44,
            "waitTime": 7225.039893089295,
            "responseTime": 1678907120610,
            "catchQuestion": "How many <b class=\"r\">red<\/b> marbles did your opponent report drawing? ",
            "catchKey": -1,
            "catchResponse": -1,
            "catchTime": 1678907077842,
            "trialTime": 0
        },
        {
            "exptPart": "trial",
            "trialNumber": 24,
            "roleCurrent": "receiver",
            "marblesSampled": 100,
            "probRed": 0.5,
            "practiceLambda": 5,
            "trialLambda": 8.1,
            "instructedLambda": "dishonest_small",
            "drawnRed": 71,
            "reportedRed": 77,
            "inferredRed": 70,
            "playerTrialScore": -1,
            "oppTrialScore": 0,
            "playerTotalScore": -177,
            "oppTotalScore": 44,
            "waitTime": 6834.62822608199,
            "responseTime": 1678907134856,
            "catchQuestion": "How many <b class=\"r\">red<\/b> marbles did your opponent report drawing? ",
            "catchKey": -1,
            "catchResponse": -1,
            "catchTime": 1678907077842,
            "trialTime": 0
        },
        {
            "exptPart": "trial",
            "trialNumber": 25,
            "roleCurrent": "receiver",
            "marblesSampled": 100,
            "probRed": 0.5,
            "practiceLambda": 5,
            "trialLambda": 8.1,
            "instructedLambda": "dishonest_small",
            "drawnRed": 20,
            "reportedRed": 23,
            "inferredRed": 20,
            "playerTrialScore": 0,
            "oppTrialScore": 0,
            "playerTotalScore": -177,
            "oppTotalScore": 44,
            "waitTime": 6601.337917695529,
            "responseTime": 1678907146767,
            "catchQuestion": "How many <b class=\"r\">red<\/b> marbles did your opponent report drawing? ",
            "catchKey": -1,
            "catchResponse": -1,
            "catchTime": 1678907077842,
            "trialTime": 0
        },
        {
            "exptPart": "trial",
            "trialNumber": 26,
            "roleCurrent": "receiver",
            "marblesSampled": 100,
            "probRed": 0.5,
            "practiceLambda": 5,
            "trialLambda": 8.1,
            "instructedLambda": "dishonest_small",
            "drawnRed": 28,
            "reportedRed": 42,
            "inferredRed": 40,
            "playerTrialScore": -12,
            "oppTrialScore": 12,
            "playerTotalScore": -189,
            "oppTotalScore": 56,
            "waitTime": 5593.312953406772,
            "responseTime": 1678907157096,
            "catchQuestion": "How many <b class=\"r\">red<\/b> marbles did your opponent report drawing? ",
            "catchKey": -1,
            "catchResponse": -1,
            "catchTime": 1678907077842,
            "trialTime": 0
        },
        {
            "exptPart": "trial",
            "trialNumber": 27,
            "roleCurrent": "receiver",
            "marblesSampled": 100,
            "probRed": 0.5,
            "practiceLambda": 5,
            "trialLambda": 8.1,
            "instructedLambda": "dishonest_small",
            "drawnRed": 57,
            "reportedRed": 61,
            "inferredRed": 60,
            "playerTrialScore": -3,
            "oppTrialScore": 3,
            "playerTotalScore": -192,
            "oppTotalScore": 59,
            "waitTime": 5697.37311059022,
            "responseTime": 1678907168083,
            "catchQuestion": "How many <b class=\"r\">red<\/b> marbles did your opponent report drawing? ",
            "catchKey": -1,
            "catchResponse": -1,
            "catchTime": 1678907077842,
            "trialTime": 0
        },
        {
            "exptPart": "trial",
            "trialNumber": 28,
            "roleCurrent": "receiver",
            "marblesSampled": 100,
            "probRed": 0.5,
            "practiceLambda": 5,
            "trialLambda": 8.1,
            "instructedLambda": "dishonest_small",
            "drawnRed": 79,
            "reportedRed": 85,
            "inferredRed": 80,
            "playerTrialScore": -1,
            "oppTrialScore": 1,
            "playerTotalScore": -193,
            "oppTotalScore": 60,
            "waitTime": 7399.532302403716,
            "responseTime": 1678907181596,
            "catchQuestion": "How many <b class=\"r\">red<\/b> marbles did your opponent report drawing? ",
            "catchKey": -1,
            "catchResponse": -1,
            "catchTime": 1678907077842,
            "trialTime": 0
        },
        {
            "exptPart": "trial",
            "trialNumber": 29,
            "roleCurrent": "receiver",
            "marblesSampled": 100,
            "probRed": 0.5,
            "practiceLambda": 5,
            "trialLambda": 8.1,
            "instructedLambda": "dishonest_small",
            "drawnRed": 66,
            "reportedRed": 72,
            "inferredRed": 70,
            "playerTrialScore": -4,
            "oppTrialScore": 4,
            "playerTotalScore": -197,
            "oppTotalScore": 64,
            "waitTime": 7456.809230323217,
            "responseTime": 1678907194255,
            "catchQuestion": "How many <b class=\"r\">red<\/b> marbles did your opponent report drawing? ",
            "catchKey": 72,
            "catchResponse": 70,
            "catchTime": 1678907194255,
            "trialTime": 0
        },
        {
            "exptPart": "trial",
            "trialNumber": 30,
            "roleCurrent": "receiver",
            "marblesSampled": 100,
            "probRed": 0.5,
            "practiceLambda": 5,
            "trialLambda": 8.1,
            "instructedLambda": "dishonest_small",
            "drawnRed": 70,
            "reportedRed": 77,
            "inferredRed": 75,
            "playerTrialScore": -5,
            "oppTrialScore": 5,
            "playerTotalScore": -202,
            "oppTotalScore": 69,
            "waitTime": 7332.356527697402,
            "responseTime": 1678907217262,
            "catchQuestion": "How many <b class=\"r\">red<\/b> marbles did your opponent report drawing? ",
            "catchKey": -1,
            "catchResponse": -1,
            "catchTime": 1678907217262,
            "trialTime": 0
        },
        {
            "exptPart": "trial",
            "trialNumber": 31,
            "roleCurrent": "receiver",
            "marblesSampled": 100,
            "probRed": 0.5,
            "practiceLambda": 5,
            "trialLambda": 8.1,
            "instructedLambda": "dishonest_small",
            "drawnRed": 31,
            "reportedRed": 36,
            "inferredRed": 30,
            "playerTrialScore": -1,
            "oppTrialScore": 0,
            "playerTotalScore": -203,
            "oppTotalScore": 69,
            "waitTime": 6427.916551543474,
            "responseTime": 1678907233200,
            "catchQuestion": "How many <b class=\"r\">red<\/b> marbles did your opponent report drawing? ",
            "catchKey": -1,
            "catchResponse": -1,
            "catchTime": 1678907217262,
            "trialTime": 0
        },
        {
            "exptPart": "trial",
            "trialNumber": 32,
            "roleCurrent": "receiver",
            "marblesSampled": 100,
            "probRed": 0.5,
            "practiceLambda": 5,
            "trialLambda": 8.1,
            "instructedLambda": "dishonest_small",
            "drawnRed": 71,
            "reportedRed": 80,
            "inferredRed": 60,
            "playerTrialScore": -11,
            "oppTrialScore": 0,
            "playerTotalScore": -214,
            "oppTotalScore": 69,
            "waitTime": 6520.763757669716,
            "responseTime": 1678907243288,
            "catchQuestion": "How many <b class=\"r\">red<\/b> marbles did your opponent report drawing? ",
            "catchKey": -1,
            "catchResponse": -1,
            "catchTime": 1678907217262,
            "trialTime": 0
        },
        {
            "exptPart": "trial",
            "trialNumber": 33,
            "roleCurrent": "receiver",
            "marblesSampled": 100,
            "probRed": 0.5,
            "practiceLambda": 5,
            "trialLambda": 8.1,
            "instructedLambda": "dishonest_small",
            "drawnRed": 41,
            "reportedRed": 48,
            "inferredRed": 40,
            "playerTrialScore": -1,
            "oppTrialScore": 0,
            "playerTotalScore": -215,
            "oppTotalScore": 69,
            "waitTime": 6564.4821121611285,
            "responseTime": 1678907253000,
            "catchQuestion": "How many <b class=\"r\">red<\/b> marbles did your opponent report drawing? ",
            "catchKey": -1,
            "catchResponse": -1,
            "catchTime": 1678907217262,
            "trialTime": 0
        },
        {
            "exptPart": "trial",
            "trialNumber": 34,
            "roleCurrent": "receiver",
            "marblesSampled": 100,
            "probRed": 0.5,
            "practiceLambda": 5,
            "trialLambda": 8.1,
            "instructedLambda": "dishonest_small",
            "drawnRed": 36,
            "reportedRed": 46,
            "inferredRed": 40,
            "playerTrialScore": -4,
            "oppTrialScore": 4,
            "playerTotalScore": -219,
            "oppTotalScore": 73,
            "waitTime": 7303.249721643112,
            "responseTime": 1678907275459,
            "catchQuestion": "How many <b class=\"r\">red<\/b> marbles did your opponent report drawing? ",
            "catchKey": -1,
            "catchResponse": -1,
            "catchTime": 1678907217262,
            "trialTime": 0
        },
        {
            "exptPart": "trial",
            "trialNumber": 35,
            "roleCurrent": "receiver",
            "marblesSampled": 100,
            "probRed": 0.5,
            "practiceLambda": 5,
            "trialLambda": 8.1,
            "instructedLambda": "dishonest_small",
            "drawnRed": 46,
            "reportedRed": 55,
            "inferredRed": 50,
            "playerTrialScore": -4,
            "oppTrialScore": 4,
            "playerTotalScore": -223,
            "oppTotalScore": 77,
            "waitTime": 5789.849176177335,
            "responseTime": 1678907294092,
            "catchQuestion": "How many <b class=\"r\">red<\/b> marbles did your opponent report drawing? ",
            "catchKey": -1,
            "catchResponse": -1,
            "catchTime": 1678907217262,
            "trialTime": 0
        },
        {
            "exptPart": "trial",
            "trialNumber": 36,
            "roleCurrent": "receiver",
            "marblesSampled": 100,
            "probRed": 0.5,
            "practiceLambda": 5,
            "trialLambda": 8.1,
            "instructedLambda": "dishonest_small",
            "drawnRed": 54,
            "reportedRed": 60,
            "inferredRed": 50,
            "playerTrialScore": -4,
            "oppTrialScore": 0,
            "playerTotalScore": -227,
            "oppTotalScore": 77,
            "waitTime": 7418.548007046113,
            "responseTime": 1678907305634,
            "catchQuestion": "How many <b class=\"r\">red<\/b> marbles did your opponent report drawing? ",
            "catchKey": -1,
            "catchResponse": -1,
            "catchTime": 1678907217262,
            "trialTime": 0
        },
        {
            "exptPart": "trial",
            "trialNumber": 37,
            "roleCurrent": "receiver",
            "marblesSampled": 100,
            "probRed": 0.5,
            "practiceLambda": 5,
            "trialLambda": 8.1,
            "instructedLambda": "dishonest_small",
            "drawnRed": 59,
            "reportedRed": 66,
            "inferredRed": 50,
            "playerTrialScore": -9,
            "oppTrialScore": 0,
            "playerTotalScore": -236,
            "oppTotalScore": 77,
            "waitTime": 6871.189351288595,
            "responseTime": 1678907317285,
            "catchQuestion": "How many <b class=\"r\">red<\/b> marbles did your opponent report drawing? ",
            "catchKey": -1,
            "catchResponse": -1,
            "catchTime": 1678907217262,
            "trialTime": 0
        },
        {
            "exptPart": "trial",
            "trialNumber": 38,
            "roleCurrent": "receiver",
            "marblesSampled": 100,
            "probRed": 0.5,
            "practiceLambda": 5,
            "trialLambda": 8.1,
            "instructedLambda": "dishonest_small",
            "drawnRed": 45,
            "reportedRed": 52,
            "inferredRed": 50,
            "playerTrialScore": -5,
            "oppTrialScore": 5,
            "playerTotalScore": -241,
            "oppTotalScore": 82,
            "waitTime": 5506.617400940786,
            "responseTime": 1678907325979,
            "catchQuestion": "How many <b class=\"r\">red<\/b> marbles did your opponent report drawing? ",
            "catchKey": -1,
            "catchResponse": -1,
            "catchTime": 1678907217262,
            "trialTime": 0
        },
        {
            "exptPart": "trial",
            "trialNumber": 39,
            "roleCurrent": "receiver",
            "marblesSampled": 100,
            "probRed": 0.5,
            "practiceLambda": 5,
            "trialLambda": 8.1,
            "instructedLambda": "dishonest_small",
            "drawnRed": 75,
            "reportedRed": 87,
            "inferredRed": 85,
            "playerTrialScore": -10,
            "oppTrialScore": 10,
            "playerTotalScore": -251,
            "oppTotalScore": 92,
            "waitTime": 6478.928072995501,
            "responseTime": 1678907336352,
            "catchQuestion": "How many <b class=\"r\">red<\/b> marbles did your opponent report drawing? ",
            "catchKey": -1,
            "catchResponse": -1,
            "catchTime": 1678907217262,
            "trialTime": 0
        },
        {
            "exptPart": "trial",
            "trialNumber": 40,
            "roleCurrent": "receiver",
            "marblesSampled": 100,
            "probRed": 0.5,
            "practiceLambda": 5,
            "trialLambda": 8.1,
            "instructedLambda": "dishonest_small",
            "drawnRed": 46,
            "reportedRed": 52,
            "inferredRed": 50,
            "playerTrialScore": -4,
            "oppTrialScore": 4,
            "playerTotalScore": -255,
            "oppTotalScore": 96,
            "waitTime": 7100.793642416746,
            "responseTime": 1678907347360,
            "catchQuestion": "How many <b class=\"r\">red<\/b> marbles did your opponent report drawing? ",
            "catchKey": -1,
            "catchResponse": -1,
            "catchTime": 1678907347360,
            "trialTime": 0
        },
        {
            "exptPart": "trial",
            "trialNumber": 41,
            "roleCurrent": "receiver",
            "marblesSampled": 100,
            "probRed": 0.5,
            "practiceLambda": 5,
            "trialLambda": 8.1,
            "instructedLambda": "dishonest_small",
            "drawnRed": 33,
            "reportedRed": 41,
            "inferredRed": 35,
            "playerTrialScore": -2,
            "oppTrialScore": 2,
            "playerTotalScore": -257,
            "oppTotalScore": 98,
            "waitTime": 5213.334744779737,
            "responseTime": 1678907366674,
            "catchQuestion": "How many <b class=\"r\">red<\/b> marbles did your opponent report drawing? ",
            "catchKey": -1,
            "catchResponse": -1,
            "catchTime": 1678907347360,
            "trialTime": 0
        },
        {
            "exptPart": "trial",
            "trialNumber": 42,
            "roleCurrent": "receiver",
            "marblesSampled": 100,
            "probRed": 0.5,
            "practiceLambda": 5,
            "trialLambda": 8.1,
            "instructedLambda": "dishonest_small",
            "drawnRed": 38,
            "reportedRed": 40,
            "inferredRed": 30,
            "playerTrialScore": -8,
            "oppTrialScore": 0,
            "playerTotalScore": -265,
            "oppTotalScore": 98,
            "waitTime": 7433.201817539299,
            "responseTime": 1678907378656,
            "catchQuestion": "How many <b class=\"r\">red<\/b> marbles did your opponent report drawing? ",
            "catchKey": -1,
            "catchResponse": -1,
            "catchTime": 1678907347360,
            "trialTime": 0
        },
        {
            "exptPart": "trial",
            "trialNumber": 43,
            "roleCurrent": "receiver",
            "marblesSampled": 100,
            "probRed": 0.5,
            "practiceLambda": 5,
            "trialLambda": 8.1,
            "instructedLambda": "dishonest_small",
            "drawnRed": 45,
            "reportedRed": 54,
            "inferredRed": 40,
            "playerTrialScore": -5,
            "oppTrialScore": 0,
            "playerTotalScore": -270,
            "oppTotalScore": 98,
            "waitTime": 5374.5247227596155,
            "responseTime": 1678907391050,
            "catchQuestion": "How many <b class=\"r\">red<\/b> marbles did your opponent report drawing? ",
            "catchKey": -1,
            "catchResponse": -1,
            "catchTime": 1678907347360,
            "trialTime": 0
        },
        {
            "exptPart": "trial",
            "trialNumber": 44,
            "roleCurrent": "receiver",
            "marblesSampled": 100,
            "probRed": 0.5,
            "practiceLambda": 5,
            "trialLambda": 8.1,
            "instructedLambda": "dishonest_small",
            "drawnRed": 65,
            "reportedRed": 76,
            "inferredRed": 50,
            "playerTrialScore": -15,
            "oppTrialScore": 0,
            "playerTotalScore": -285,
            "oppTotalScore": 98,
            "waitTime": 5884.861020181052,
            "responseTime": 1678907404704,
            "catchQuestion": "How many <b class=\"r\">red<\/b> marbles did your opponent report drawing? ",
            "catchKey": -1,
            "catchResponse": -1,
            "catchTime": 1678907347360,
            "trialTime": 0
        },
        {
            "exptPart": "trial",
            "trialNumber": 45,
            "roleCurrent": "receiver",
            "marblesSampled": 100,
            "probRed": 0.5,
            "practiceLambda": 5,
            "trialLambda": 8.1,
            "instructedLambda": "dishonest_small",
            "drawnRed": 27,
            "reportedRed": 34,
            "inferredRed": 30,
            "playerTrialScore": -3,
            "oppTrialScore": 3,
            "playerTotalScore": -288,
            "oppTotalScore": 101,
            "waitTime": 5687.43005155541,
            "responseTime": 1678907414931,
            "catchQuestion": "How many <b class=\"r\">red<\/b> marbles did your opponent report drawing? ",
            "catchKey": -1,
            "catchResponse": -1,
            "catchTime": 1678907347360,
            "trialTime": 0
        },
        {
            "exptPart": "trial",
            "trialNumber": 46,
            "roleCurrent": "receiver",
            "marblesSampled": 100,
            "probRed": 0.5,
            "practiceLambda": 5,
            "trialLambda": 8.1,
            "instructedLambda": "dishonest_small",
            "drawnRed": 60,
            "reportedRed": 69,
            "inferredRed": 40,
            "playerTrialScore": -20,
            "oppTrialScore": 0,
            "playerTotalScore": -308,
            "oppTotalScore": 101,
            "waitTime": 5182.129530661901,
            "responseTime": 1678907430806,
            "catchQuestion": "How many <b class=\"r\">red<\/b> marbles did your opponent report drawing? ",
            "catchKey": -1,
            "catchResponse": -1,
            "catchTime": 1678907347360,
            "trialTime": 0
        },
        {
            "exptPart": "trial",
            "trialNumber": 47,
            "roleCurrent": "receiver",
            "marblesSampled": 100,
            "probRed": 0.5,
            "practiceLambda": 5,
            "trialLambda": 8.1,
            "instructedLambda": "dishonest_small",
            "drawnRed": 30,
            "reportedRed": 44,
            "inferredRed": 35,
            "playerTrialScore": -5,
            "oppTrialScore": 5,
            "playerTotalScore": -313,
            "oppTotalScore": 106,
            "waitTime": 5253.255228672571,
            "responseTime": 1678907445936,
            "catchQuestion": "How many <b class=\"r\">red<\/b> marbles did your opponent report drawing? ",
            "catchKey": -1,
            "catchResponse": -1,
            "catchTime": 1678907347360,
            "trialTime": 0
        },
        {
            "exptPart": "trial",
            "trialNumber": 48,
            "roleCurrent": "receiver",
            "marblesSampled": 100,
            "probRed": 0.5,
            "practiceLambda": 5,
            "trialLambda": 8.1,
            "instructedLambda": "dishonest_small",
            "drawnRed": 64,
            "reportedRed": 73,
            "inferredRed": 50,
            "playerTrialScore": -14,
            "oppTrialScore": 0,
            "playerTotalScore": -327,
            "oppTotalScore": 106,
            "waitTime": 5531.343532923673,
            "responseTime": 1678907455820,
            "catchQuestion": "How many <b class=\"r\">red<\/b> marbles did your opponent report drawing? ",
            "catchKey": -1,
            "catchResponse": -1,
            "catchTime": 1678907347360,
            "trialTime": 0
        },
        {
            "exptPart": "trial",
            "trialNumber": 49,
            "roleCurrent": "receiver",
            "marblesSampled": 100,
            "probRed": 0.5,
            "practiceLambda": 5,
            "trialLambda": 8.1,
            "instructedLambda": "dishonest_small",
            "drawnRed": 41,
            "reportedRed": 49,
            "inferredRed": 30,
            "playerTrialScore": -11,
            "oppTrialScore": 0,
            "playerTotalScore": -338,
            "oppTotalScore": 106,
            "waitTime": 7434.467359157643,
            "responseTime": 1678907465846,
            "catchQuestion": "How many <b class=\"r\">red<\/b> marbles did your opponent report drawing? ",
            "catchKey": -1,
            "catchResponse": -1,
            "catchTime": 1678907347360,
            "trialTime": 0
        },
        {
            "exptPart": "trial",
            "trialNumber": 50,
            "roleCurrent": "receiver",
            "marblesSampled": 100,
            "probRed": 0.5,
            "practiceLambda": 5,
            "trialLambda": 8.1,
            "instructedLambda": "dishonest_small",
            "drawnRed": 9,
            "reportedRed": 23,
            "inferredRed": 20,
            "playerTrialScore": -11,
            "oppTrialScore": 11,
            "playerTotalScore": -349,
            "oppTotalScore": 117,
            "waitTime": 6270.0645691349855,
            "responseTime": 1678907475456,
            "catchQuestion": "How many <b class=\"r\">red<\/b> marbles did your opponent report drawing? ",
            "catchKey": -1,
            "catchResponse": -1,
            "catchTime": 1678907475456,
            "trialTime": 0
        },
        {
            "exptPart": "trial",
            "trialNumber": 51,
            "roleCurrent": "receiver",
            "marblesSampled": 100,
            "probRed": 0.5,
            "practiceLambda": 5,
            "trialLambda": 8.1,
            "instructedLambda": "dishonest_small",
            "drawnRed": 53,
            "reportedRed": 62,
            "inferredRed": 50,
            "playerTrialScore": -3,
            "oppTrialScore": 0,
            "playerTotalScore": -352,
            "oppTotalScore": 117,
            "waitTime": 7483.553655704412,
            "responseTime": 1678907486807,
            "catchQuestion": "How many <b class=\"r\">red<\/b> marbles did your opponent report drawing? ",
            "catchKey": -1,
            "catchResponse": -1,
            "catchTime": 1678907475456,
            "trialTime": 0
        },
        {
            "exptPart": "trial",
            "trialNumber": 52,
            "roleCurrent": "receiver",
            "marblesSampled": 100,
            "probRed": 0.5,
            "practiceLambda": 5,
            "trialLambda": 8.1,
            "instructedLambda": "dishonest_small",
            "drawnRed": 54,
            "reportedRed": 65,
            "inferredRed": 40,
            "playerTrialScore": -14,
            "oppTrialScore": 0,
            "playerTotalScore": -366,
            "oppTotalScore": 117,
            "waitTime": 6293.618444363069,
            "responseTime": 1678907498326,
            "catchQuestion": "How many <b class=\"r\">red<\/b> marbles did your opponent report drawing? ",
            "catchKey": -1,
            "catchResponse": -1,
            "catchTime": 1678907475456,
            "trialTime": 0
        },
        {
            "exptPart": "trial",
            "trialNumber": 53,
            "roleCurrent": "receiver",
            "marblesSampled": 100,
            "probRed": 0.5,
            "practiceLambda": 5,
            "trialLambda": 8.1,
            "instructedLambda": "dishonest_small",
            "drawnRed": 76,
            "reportedRed": 86,
            "inferredRed": 70,
            "playerTrialScore": -6,
            "oppTrialScore": 0,
            "playerTotalScore": -372,
            "oppTotalScore": 117,
            "waitTime": 6465.638007659821,
            "responseTime": 1678907508835,
            "catchQuestion": "How many <b class=\"r\">red<\/b> marbles did your opponent report drawing? ",
            "catchKey": -1,
            "catchResponse": -1,
            "catchTime": 1678907475456,
            "trialTime": 0
        },
        {
            "exptPart": "trial",
            "trialNumber": 54,
            "roleCurrent": "receiver",
            "marblesSampled": 100,
            "probRed": 0.5,
            "practiceLambda": 5,
            "trialLambda": 8.1,
            "instructedLambda": "dishonest_small",
            "drawnRed": 56,
            "reportedRed": 61,
            "inferredRed": 50,
            "playerTrialScore": -6,
            "oppTrialScore": 0,
            "playerTotalScore": -378,
            "oppTotalScore": 117,
            "waitTime": 5881.633699750171,
            "responseTime": 1678907519050,
            "catchQuestion": "How many <b class=\"r\">red<\/b> marbles did your opponent report drawing? ",
            "catchKey": -1,
            "catchResponse": -1,
            "catchTime": 1678907475456,
            "trialTime": 0
        },
        {
            "exptPart": "trial",
            "trialNumber": 55,
            "roleCurrent": "receiver",
            "marblesSampled": 100,
            "probRed": 0.5,
            "practiceLambda": 5,
            "trialLambda": 8.1,
            "instructedLambda": "dishonest_small",
            "drawnRed": 13,
            "reportedRed": 19,
            "inferredRed": 10,
            "playerTrialScore": -3,
            "oppTrialScore": 0,
            "playerTotalScore": -381,
            "oppTotalScore": 117,
            "waitTime": 6639.787714453999,
            "responseTime": 1678907534177,
            "catchQuestion": "How many <b class=\"r\">red<\/b> marbles did your opponent report drawing? ",
            "catchKey": -1,
            "catchResponse": -1,
            "catchTime": 1678907475456,
            "trialTime": 0
        },
        {
            "exptPart": "trial",
            "trialNumber": 56,
            "roleCurrent": "receiver",
            "marblesSampled": 100,
            "probRed": 0.5,
            "practiceLambda": 5,
            "trialLambda": 8.1,
            "instructedLambda": "dishonest_small",
            "drawnRed": 18,
            "reportedRed": 26,
            "inferredRed": 15,
            "playerTrialScore": -3,
            "oppTrialScore": 0,
            "playerTotalScore": -384,
            "oppTotalScore": 117,
            "waitTime": 7401.00035569346,
            "responseTime": 1678907554486,
            "catchQuestion": "How many <b class=\"r\">red<\/b> marbles did your opponent report drawing? ",
            "catchKey": -1,
            "catchResponse": -1,
            "catchTime": 1678907475456,
            "trialTime": 0
        },
        {
            "exptPart": "trial",
            "trialNumber": 57,
            "roleCurrent": "receiver",
            "marblesSampled": 100,
            "probRed": 0.5,
            "practiceLambda": 5,
            "trialLambda": 8.1,
            "instructedLambda": "dishonest_small",
            "drawnRed": 35,
            "reportedRed": 41,
            "inferredRed": 20,
            "playerTrialScore": -15,
            "oppTrialScore": 0,
            "playerTotalScore": -399,
            "oppTotalScore": 117,
            "waitTime": 6546.038741079122,
            "responseTime": 1678907565619,
            "catchQuestion": "How many <b class=\"r\">red<\/b> marbles did your opponent report drawing? ",
            "catchKey": -1,
            "catchResponse": -1,
            "catchTime": 1678907475456,
            "trialTime": 0
        },
        {
            "exptPart": "trial",
            "trialNumber": 58,
            "roleCurrent": "receiver",
            "marblesSampled": 100,
            "probRed": 0.5,
            "practiceLambda": 5,
            "trialLambda": 8.1,
            "instructedLambda": "dishonest_small",
            "drawnRed": 80,
            "reportedRed": 90,
            "inferredRed": 85,
            "playerTrialScore": -5,
            "oppTrialScore": 5,
            "playerTotalScore": -404,
            "oppTotalScore": 122,
            "waitTime": 6643.902358221662,
            "responseTime": 1678907580637,
            "catchQuestion": "How many <b class=\"r\">red<\/b> marbles did your opponent report drawing? ",
            "catchKey": -1,
            "catchResponse": -1,
            "catchTime": 1678907475456,
            "trialTime": 0
        },
        {
            "exptPart": "trial",
            "trialNumber": 59,
            "roleCurrent": "receiver",
            "marblesSampled": 100,
            "probRed": 0.5,
            "practiceLambda": 5,
            "trialLambda": 8.1,
            "instructedLambda": "dishonest_small",
            "drawnRed": 57,
            "reportedRed": 65,
            "inferredRed": 45,
            "playerTrialScore": -12,
            "oppTrialScore": 0,
            "playerTotalScore": -416,
            "oppTotalScore": 122,
            "waitTime": 7326.095237120391,
            "responseTime": 1678907599866,
            "catchQuestion": "How many <b class=\"r\">red<\/b> marbles did your opponent report drawing? ",
            "catchKey": 65,
            "catchResponse": 50,
            "catchTime": 1678907599866,
            "trialTime": 0
        },
        {
            "exptPart": "trial",
            "trialNumber": 60,
            "roleCurrent": "receiver",
            "marblesSampled": 100,
            "probRed": 0.5,
            "practiceLambda": 5,
            "trialLambda": 8.1,
            "instructedLambda": "dishonest_small",
            "drawnRed": 43,
            "reportedRed": 52,
            "inferredRed": 35,
            "playerTrialScore": -8,
            "oppTrialScore": 0,
            "playerTotalScore": -424,
            "oppTotalScore": 122,
            "waitTime": 5318.516681383155,
            "responseTime": 1678907634506,
            "catchQuestion": "How many <b class=\"r\">red<\/b> marbles did your opponent report drawing? ",
            "catchKey": -1,
            "catchResponse": -1,
            "catchTime": 1678907634506,
            "trialTime": 0
        },
        {
            "exptPart": "trial",
            "trialNumber": 61,
            "roleCurrent": "receiver",
            "marblesSampled": 100,
            "probRed": 0.5,
            "practiceLambda": 5,
            "trialLambda": 8.1,
            "instructedLambda": "dishonest_small",
            "drawnRed": 56,
            "reportedRed": 64,
            "inferredRed": 40,
            "playerTrialScore": -16,
            "oppTrialScore": 0,
            "playerTotalScore": -440,
            "oppTotalScore": 122,
            "waitTime": 5269.035088637652,
            "responseTime": 1678907651521,
            "catchQuestion": "How many <b class=\"r\">red<\/b> marbles did your opponent report drawing? ",
            "catchKey": 64,
            "catchResponse": 61,
            "catchTime": 1678907651521,
            "trialTime": 0
        },
        {
            "exptPart": "trial",
            "trialNumber": 62,
            "roleCurrent": "receiver",
            "marblesSampled": 100,
            "probRed": 0.5,
            "practiceLambda": 5,
            "trialLambda": 8.1,
            "instructedLambda": "dishonest_small",
            "drawnRed": 76,
            "reportedRed": 83,
            "inferredRed": 70,
            "playerTrialScore": -6,
            "oppTrialScore": 0,
            "playerTotalScore": -446,
            "oppTotalScore": 122,
            "waitTime": 5966.075353560396,
            "responseTime": 1678907670011,
            "catchQuestion": "How many <b class=\"r\">red<\/b> marbles did your opponent report drawing? ",
            "catchKey": -1,
            "catchResponse": -1,
            "catchTime": 1678907651521,
            "trialTime": 0
        },
        {
            "exptPart": "trial",
            "trialNumber": 63,
            "roleCurrent": "receiver",
            "marblesSampled": 100,
            "probRed": 0.5,
            "practiceLambda": 5,
            "trialLambda": 8.1,
            "instructedLambda": "dishonest_small",
            "drawnRed": 31,
            "reportedRed": 39,
            "inferredRed": 30,
            "playerTrialScore": -1,
            "oppTrialScore": 0,
            "playerTotalScore": -447,
            "oppTotalScore": 122,
            "waitTime": 5474.682481792539,
            "responseTime": 1678907681513,
            "catchQuestion": "How many <b class=\"r\">red<\/b> marbles did your opponent report drawing? ",
            "catchKey": -1,
            "catchResponse": -1,
            "catchTime": 1678907651521,
            "trialTime": 0
        },
        {
            "exptPart": "trial",
            "trialNumber": 64,
            "roleCurrent": "receiver",
            "marblesSampled": 100,
            "probRed": 0.5,
            "practiceLambda": 5,
            "trialLambda": 8.1,
            "instructedLambda": "dishonest_small",
            "drawnRed": 51,
            "reportedRed": 64,
            "inferredRed": 40,
            "playerTrialScore": -11,
            "oppTrialScore": 0,
            "playerTotalScore": -458,
            "oppTotalScore": 122,
            "waitTime": 5197.2664884764545,
            "responseTime": 1678907692184,
            "catchQuestion": "How many <b class=\"r\">red<\/b> marbles did your opponent report drawing? ",
            "catchKey": 64,
            "catchResponse": 64,
            "catchTime": 1678907692184,
            "trialTime": 0
        },
        {
            "exptPart": "trial",
            "trialNumber": 65,
            "roleCurrent": "receiver",
            "marblesSampled": 100,
            "probRed": 0.5,
            "practiceLambda": 5,
            "trialLambda": 8.1,
            "instructedLambda": "dishonest_small",
            "drawnRed": 26,
            "reportedRed": 37,
            "inferredRed": 25,
            "playerTrialScore": -1,
            "oppTrialScore": 0,
            "playerTotalScore": -459,
            "oppTotalScore": 122,
            "waitTime": 6060.890317985048,
            "responseTime": 1678907710001,
            "catchQuestion": "How many <b class=\"r\">red<\/b> marbles did your opponent report drawing? ",
            "catchKey": -1,
            "catchResponse": -1,
            "catchTime": 1678907692184,
            "trialTime": 0
        },
        {
            "exptPart": "trial",
            "trialNumber": 66,
            "roleCurrent": "receiver",
            "marblesSampled": 100,
            "probRed": 0.5,
            "practiceLambda": 5,
            "trialLambda": 8.1,
            "instructedLambda": "dishonest_small",
            "drawnRed": 47,
            "reportedRed": 53,
            "inferredRed": 40,
            "playerTrialScore": -7,
            "oppTrialScore": 0,
            "playerTotalScore": -466,
            "oppTotalScore": 122,
            "waitTime": 6413.233559213521,
            "responseTime": 1678907721397,
            "catchQuestion": "How many <b class=\"r\">red<\/b> marbles did your opponent report drawing? ",
            "catchKey": -1,
            "catchResponse": -1,
            "catchTime": 1678907692184,
            "trialTime": 0
        },
        {
            "exptPart": "trial",
            "trialNumber": 67,
            "roleCurrent": "receiver",
            "marblesSampled": 100,
            "probRed": 0.5,
            "practiceLambda": 5,
            "trialLambda": 8.1,
            "instructedLambda": "dishonest_small",
            "drawnRed": 32,
            "reportedRed": 41,
            "inferredRed": 20,
            "playerTrialScore": -12,
            "oppTrialScore": 0,
            "playerTotalScore": -478,
            "oppTotalScore": 122,
            "waitTime": 5450.824540848051,
            "responseTime": 1678907735806,
            "catchQuestion": "How many <b class=\"r\">red<\/b> marbles did your opponent report drawing? ",
            "catchKey": -1,
            "catchResponse": -1,
            "catchTime": 1678907692184,
            "trialTime": 0
        },
        {
            "exptPart": "trial",
            "trialNumber": 68,
            "roleCurrent": "receiver",
            "marblesSampled": 100,
            "probRed": 0.5,
            "practiceLambda": 5,
            "trialLambda": 8.1,
            "instructedLambda": "dishonest_small",
            "drawnRed": 42,
            "reportedRed": 50,
            "inferredRed": 40,
            "playerTrialScore": -2,
            "oppTrialScore": 0,
            "playerTotalScore": -480,
            "oppTotalScore": 122,
            "waitTime": 6681.051038412314,
            "responseTime": 1678907747389,
            "catchQuestion": "How many <b class=\"r\">red<\/b> marbles did your opponent report drawing? ",
            "catchKey": -1,
            "catchResponse": -1,
            "catchTime": 1678907692184,
            "trialTime": 0
        },
        {
            "exptPart": "trial",
            "trialNumber": 69,
            "roleCurrent": "receiver",
            "marblesSampled": 100,
            "probRed": 0.5,
            "practiceLambda": 5,
            "trialLambda": 8.1,
            "instructedLambda": "dishonest_small",
            "drawnRed": 48,
            "reportedRed": 59,
            "inferredRed": 40,
            "playerTrialScore": -8,
            "oppTrialScore": 0,
            "playerTotalScore": -488,
            "oppTotalScore": 122,
            "waitTime": 6132.440414830455,
            "responseTime": 1678907758980,
            "catchQuestion": "How many <b class=\"r\">red<\/b> marbles did your opponent report drawing? ",
            "catchKey": -1,
            "catchResponse": -1,
            "catchTime": 1678907692184,
            "trialTime": 0
        },
        {
            "exptPart": "trial",
            "trialNumber": 70,
            "roleCurrent": "receiver",
            "marblesSampled": 100,
            "probRed": 0.5,
            "practiceLambda": 5,
            "trialLambda": 8.1,
            "instructedLambda": "dishonest_small",
            "drawnRed": 18,
            "reportedRed": 28,
            "inferredRed": 12,
            "playerTrialScore": -6,
            "oppTrialScore": 0,
            "playerTotalScore": -494,
            "oppTotalScore": 122,
            "waitTime": 6396.110232387498,
            "responseTime": 1678907775084,
            "catchQuestion": "How many <b class=\"r\">red<\/b> marbles did your opponent report drawing? ",
            "catchKey": 28,
            "catchResponse": 45,
            "catchTime": 1678907775084,
            "trialTime": 0
        },
        {
            "exptPart": "trial",
            "trialNumber": 71,
            "roleCurrent": "receiver",
            "marblesSampled": 100,
            "probRed": 0.5,
            "practiceLambda": 5,
            "trialLambda": 8.1,
            "instructedLambda": "dishonest_small",
            "drawnRed": 16,
            "reportedRed": 29,
            "inferredRed": 20,
            "playerTrialScore": -4,
            "oppTrialScore": 4,
            "playerTotalScore": -498,
            "oppTotalScore": 126,
            "waitTime": 5158.22300631514,
            "responseTime": 1678907820768,
            "catchQuestion": "How many <b class=\"r\">red<\/b> marbles did your opponent report drawing? ",
            "catchKey": -1,
            "catchResponse": -1,
            "catchTime": 1678907775084,
            "trialTime": 0
        },
        {
            "exptPart": "trial",
            "trialNumber": 72,
            "roleCurrent": "receiver",
            "marblesSampled": 100,
            "probRed": 0.5,
            "practiceLambda": 5,
            "trialLambda": 8.1,
            "instructedLambda": "dishonest_small",
            "drawnRed": 29,
            "reportedRed": 34,
            "inferredRed": 15,
            "playerTrialScore": -14,
            "oppTrialScore": 0,
            "playerTotalScore": -512,
            "oppTotalScore": 126,
            "waitTime": 5417.970415111091,
            "responseTime": 1678907834438,
            "catchQuestion": "How many <b class=\"r\">red<\/b> marbles did your opponent report drawing? ",
            "catchKey": -1,
            "catchResponse": -1,
            "catchTime": 1678907775084,
            "trialTime": 0
        },
        {
            "exptPart": "trial",
            "trialNumber": 73,
            "roleCurrent": "receiver",
            "marblesSampled": 100,
            "probRed": 0.5,
            "practiceLambda": 5,
            "trialLambda": 8.1,
            "instructedLambda": "dishonest_small",
            "drawnRed": 47,
            "reportedRed": 65,
            "inferredRed": 60,
            "playerTrialScore": -13,
            "oppTrialScore": 13,
            "playerTotalScore": -525,
            "oppTotalScore": 139,
            "waitTime": 6207.179673308066,
            "responseTime": 1678907844304,
            "catchQuestion": "How many <b class=\"r\">red<\/b> marbles did your opponent report drawing? ",
            "catchKey": -1,
            "catchResponse": -1,
            "catchTime": 1678907775084,
            "trialTime": 0
        },
        {
            "exptPart": "trial",
            "trialNumber": 74,
            "roleCurrent": "receiver",
            "marblesSampled": 100,
            "probRed": 0.5,
            "practiceLambda": 5,
            "trialLambda": 8.1,
            "instructedLambda": "dishonest_small",
            "drawnRed": 52,
            "reportedRed": 59,
            "inferredRed": 50,
            "playerTrialScore": -2,
            "oppTrialScore": 0,
            "playerTotalScore": -527,
            "oppTotalScore": 139,
            "waitTime": 5841.479627847552,
            "responseTime": 1678907859604,
            "catchQuestion": "How many <b class=\"r\">red<\/b> marbles did your opponent report drawing? ",
            "catchKey": -1,
            "catchResponse": -1,
            "catchTime": 1678907775084,
            "trialTime": 0
        },
        {
            "exptPart": "trial",
            "trialNumber": 75,
            "roleCurrent": "receiver",
            "marblesSampled": 100,
            "probRed": 0.5,
            "practiceLambda": 5,
            "trialLambda": 8.1,
            "instructedLambda": "dishonest_small",
            "drawnRed": 57,
            "reportedRed": 71,
            "inferredRed": 65,
            "playerTrialScore": -8,
            "oppTrialScore": 8,
            "playerTotalScore": -535,
            "oppTotalScore": 147,
            "waitTime": 5511.781673682501,
            "responseTime": 1678907872049,
            "catchQuestion": "How many <b class=\"r\">red<\/b> marbles did your opponent report drawing? ",
            "catchKey": -1,
            "catchResponse": -1,
            "catchTime": 1678907775084,
            "trialTime": 0
        },
        {
            "exptPart": "trial",
            "trialNumber": 76,
            "roleCurrent": "receiver",
            "marblesSampled": 100,
            "probRed": 0.5,
            "practiceLambda": 5,
            "trialLambda": 8.1,
            "instructedLambda": "dishonest_small",
            "drawnRed": 61,
            "reportedRed": 67,
            "inferredRed": 50,
            "playerTrialScore": -11,
            "oppTrialScore": 0,
            "playerTotalScore": -546,
            "oppTotalScore": 147,
            "waitTime": 6419.671472490103,
            "responseTime": 1678907896527,
            "catchQuestion": "How many <b class=\"r\">red<\/b> marbles did your opponent report drawing? ",
            "catchKey": 67,
            "catchResponse": 64,
            "catchTime": 1678907896527,
            "trialTime": 0
        },
        {
            "exptPart": "trial",
            "trialNumber": 77,
            "roleCurrent": "receiver",
            "marblesSampled": 100,
            "probRed": 0.5,
            "practiceLambda": 5,
            "trialLambda": 8.1,
            "instructedLambda": "dishonest_small",
            "drawnRed": 68,
            "reportedRed": 78,
            "inferredRed": 65,
            "playerTrialScore": -3,
            "oppTrialScore": 0,
            "playerTotalScore": -549,
            "oppTotalScore": 147,
            "waitTime": 7001.131257590245,
            "responseTime": 1678907930257,
            "catchQuestion": "How many <b class=\"r\">red<\/b> marbles did your opponent report drawing? ",
            "catchKey": -1,
            "catchResponse": -1,
            "catchTime": 1678907896527,
            "trialTime": 0
        },
        {
            "exptPart": "trial",
            "trialNumber": 78,
            "roleCurrent": "receiver",
            "marblesSampled": 100,
            "probRed": 0.5,
            "practiceLambda": 5,
            "trialLambda": 8.1,
            "instructedLambda": "dishonest_small",
            "drawnRed": 35,
            "reportedRed": 42,
            "inferredRed": 20,
            "playerTrialScore": -15,
            "oppTrialScore": 0,
            "playerTotalScore": -564,
            "oppTotalScore": 147,
            "waitTime": 6213.815741394346,
            "responseTime": 1678907942229,
            "catchQuestion": "How many <b class=\"r\">red<\/b> marbles did your opponent report drawing? ",
            "catchKey": -1,
            "catchResponse": -1,
            "catchTime": 1678907896527,
            "trialTime": 0
        },
        {
            "exptPart": "trial",
            "trialNumber": 79,
            "roleCurrent": "receiver",
            "marblesSampled": 100,
            "probRed": 0.5,
            "practiceLambda": 5,
            "trialLambda": 8.1,
            "instructedLambda": "dishonest_small",
            "drawnRed": 61,
            "reportedRed": 65,
            "inferredRed": 50,
            "playerTrialScore": -11,
            "oppTrialScore": 0,
            "playerTotalScore": -575,
            "oppTotalScore": 147,
            "waitTime": 5323.562321644578,
            "responseTime": 1678907952041,
            "catchQuestion": "How many <b class=\"r\">red<\/b> marbles did your opponent report drawing? ",
            "catchKey": -1,
            "catchResponse": -1,
            "catchTime": 1678907896527,
            "trialTime": 0
        },
        {
            "exptPart": "trial",
            "trialNumber": 80,
            "roleCurrent": "receiver",
            "marblesSampled": 100,
            "probRed": 0.5,
            "practiceLambda": 5,
            "trialLambda": 8.1,
            "instructedLambda": "dishonest_small",
            "drawnRed": 65,
            "reportedRed": 76,
            "inferredRed": 70,
            "playerTrialScore": -5,
            "oppTrialScore": 5,
            "playerTotalScore": -580,
            "oppTotalScore": 152,
            "waitTime": 6699.748839460703,
            "responseTime": 1678907967109,
            "catchQuestion": "How many <b class=\"r\">red<\/b> marbles did your opponent report drawing? ",
            "catchKey": -1,
            "catchResponse": -1,
            "catchTime": 1678907967110,
            "trialTime": 0
        },
        {
            "exptPart": "trial",
            "trialNumber": 81,
            "roleCurrent": "receiver",
            "marblesSampled": 100,
            "probRed": 0.5,
            "practiceLambda": 5,
            "trialLambda": 8.1,
            "instructedLambda": "dishonest_small",
            "drawnRed": 21,
            "reportedRed": 27,
            "inferredRed": 10,
            "playerTrialScore": -11,
            "oppTrialScore": 0,
            "playerTotalScore": -591,
            "oppTotalScore": 152,
            "waitTime": 6621.509148381038,
            "responseTime": 1678907984528,
            "catchQuestion": "How many <b class=\"r\">red<\/b> marbles did your opponent report drawing? ",
            "catchKey": -1,
            "catchResponse": -1,
            "catchTime": 1678907967110,
            "trialTime": 0
        },
        {
            "exptPart": "trial",
            "trialNumber": 82,
            "roleCurrent": "receiver",
            "marblesSampled": 100,
            "probRed": 0.5,
            "practiceLambda": 5,
            "trialLambda": 8.1,
            "instructedLambda": "dishonest_small",
            "drawnRed": 70,
            "reportedRed": 79,
            "inferredRed": 70,
            "playerTrialScore": 0,
            "oppTrialScore": 0,
            "playerTotalScore": -591,
            "oppTotalScore": 152,
            "waitTime": 5792.262467100898,
            "responseTime": 1678908003311,
            "catchQuestion": "How many <b class=\"r\">red<\/b> marbles did your opponent report drawing? ",
            "catchKey": -1,
            "catchResponse": -1,
            "catchTime": 1678907967110,
            "trialTime": 0
        },
        {
            "exptPart": "trial",
            "trialNumber": 83,
            "roleCurrent": "receiver",
            "marblesSampled": 100,
            "probRed": 0.5,
            "practiceLambda": 5,
            "trialLambda": 8.1,
            "instructedLambda": "dishonest_small",
            "drawnRed": 7,
            "reportedRed": 13,
            "inferredRed": 3,
            "playerTrialScore": -4,
            "oppTrialScore": 0,
            "playerTotalScore": -595,
            "oppTotalScore": 152,
            "waitTime": 5788.423118781768,
            "responseTime": 1678908016798,
            "catchQuestion": "How many <b class=\"r\">red<\/b> marbles did your opponent report drawing? ",
            "catchKey": -1,
            "catchResponse": -1,
            "catchTime": 1678907967110,
            "trialTime": 0
        },
        {
            "exptPart": "trial",
            "trialNumber": 84,
            "roleCurrent": "receiver",
            "marblesSampled": 100,
            "probRed": 0.5,
            "practiceLambda": 5,
            "trialLambda": 8.1,
            "instructedLambda": "dishonest_small",
            "drawnRed": 63,
            "reportedRed": 70,
            "inferredRed": 60,
            "playerTrialScore": -3,
            "oppTrialScore": 0,
            "playerTotalScore": -598,
            "oppTotalScore": 152,
            "waitTime": 6496.751966519474,
            "responseTime": 1678908037163,
            "catchQuestion": "How many <b class=\"r\">red<\/b> marbles did your opponent report drawing? ",
            "catchKey": -1,
            "catchResponse": -1,
            "catchTime": 1678907967110,
            "trialTime": 0
        },
        {
            "exptPart": "trial",
            "trialNumber": 85,
            "roleCurrent": "receiver",
            "marblesSampled": 100,
            "probRed": 0.5,
            "practiceLambda": 5,
            "trialLambda": 8.1,
            "instructedLambda": "dishonest_small",
            "drawnRed": 77,
            "reportedRed": 88,
            "inferredRed": 80,
            "playerTrialScore": -3,
            "oppTrialScore": 3,
            "playerTotalScore": -601,
            "oppTotalScore": 155,
            "waitTime": 7217.519981356487,
            "responseTime": 1678908049840,
            "catchQuestion": "How many <b class=\"r\">red<\/b> marbles did your opponent report drawing? ",
            "catchKey": -1,
            "catchResponse": -1,
            "catchTime": 1678907967110,
            "trialTime": 0
        },
        {
            "exptPart": "trial",
            "trialNumber": 86,
            "roleCurrent": "receiver",
            "marblesSampled": 100,
            "probRed": 0.5,
            "practiceLambda": 5,
            "trialLambda": 8.1,
            "instructedLambda": "dishonest_small",
            "drawnRed": 65,
            "reportedRed": 74,
            "inferredRed": 70,
            "playerTrialScore": -5,
            "oppTrialScore": 5,
            "playerTotalScore": -606,
            "oppTotalScore": 160,
            "waitTime": 6043.51136495162,
            "responseTime": 1678908060900,
            "catchQuestion": "How many <b class=\"r\">red<\/b> marbles did your opponent report drawing? ",
            "catchKey": -1,
            "catchResponse": -1,
            "catchTime": 1678907967110,
            "trialTime": 0
        },
        {
            "exptPart": "trial",
            "trialNumber": 87,
            "roleCurrent": "receiver",
            "marblesSampled": 100,
            "probRed": 0.5,
            "practiceLambda": 5,
            "trialLambda": 8.1,
            "instructedLambda": "dishonest_small",
            "drawnRed": 14,
            "reportedRed": 22,
            "inferredRed": 4,
            "playerTrialScore": -10,
            "oppTrialScore": 0,
            "playerTotalScore": -616,
            "oppTotalScore": 160,
            "waitTime": 7291.456425260738,
            "responseTime": 1678908077273,
            "catchQuestion": "How many <b class=\"r\">red<\/b> marbles did your opponent report drawing? ",
            "catchKey": -1,
            "catchResponse": -1,
            "catchTime": 1678907967110,
            "trialTime": 0
        },
        {
            "exptPart": "trial",
            "trialNumber": 88,
            "roleCurrent": "receiver",
            "marblesSampled": 100,
            "probRed": 0.5,
            "practiceLambda": 5,
            "trialLambda": 8.1,
            "instructedLambda": "dishonest_small",
            "drawnRed": 73,
            "reportedRed": 81,
            "inferredRed": 75,
            "playerTrialScore": -2,
            "oppTrialScore": 2,
            "playerTotalScore": -618,
            "oppTotalScore": 162,
            "waitTime": 5324.546024769431,
            "responseTime": 1678908087658,
            "catchQuestion": "How many <b class=\"r\">red<\/b> marbles did your opponent report drawing? ",
            "catchKey": -1,
            "catchResponse": -1,
            "catchTime": 1678907967110,
            "trialTime": 0
        },
        {
            "exptPart": "trial",
            "trialNumber": 89,
            "roleCurrent": "receiver",
            "marblesSampled": 100,
            "probRed": 0.5,
            "practiceLambda": 5,
            "trialLambda": 8.1,
            "instructedLambda": "dishonest_small",
            "drawnRed": 29,
            "reportedRed": 36,
            "inferredRed": 5,
            "playerTrialScore": -24,
            "oppTrialScore": 0,
            "playerTotalScore": -642,
            "oppTotalScore": 162,
            "waitTime": 5519.623340444949,
            "responseTime": 1678908102973,
            "catchQuestion": "How many <b class=\"r\">red<\/b> marbles did your opponent report drawing? ",
            "catchKey": -1,
            "catchResponse": -1,
            "catchTime": 1678907967110,
            "trialTime": 0
        },
        {
            "exptPart": "trial",
            "trialNumber": 90,
            "roleCurrent": "receiver",
            "marblesSampled": 100,
            "probRed": 0.5,
            "practiceLambda": 5,
            "trialLambda": 8.1,
            "instructedLambda": "dishonest_small",
            "drawnRed": 44,
            "reportedRed": 57,
            "inferredRed": 50,
            "playerTrialScore": -6,
            "oppTrialScore": 6,
            "playerTotalScore": -648,
            "oppTotalScore": 168,
            "waitTime": 5738.736451388832,
            "responseTime": 1678908111998,
            "catchQuestion": "How many <b class=\"r\">red<\/b> marbles did your opponent report drawing? ",
            "catchKey": -1,
            "catchResponse": -1,
            "catchTime": 1678908111998,
            "trialTime": 0
        },
        {
            "exptPart": "trial",
            "trialNumber": 91,
            "roleCurrent": "receiver",
            "marblesSampled": 100,
            "probRed": 0.5,
            "practiceLambda": 5,
            "trialLambda": 8.1,
            "instructedLambda": "dishonest_small",
            "drawnRed": 53,
            "reportedRed": 58,
            "inferredRed": 30,
            "playerTrialScore": -23,
            "oppTrialScore": 0,
            "playerTotalScore": -671,
            "oppTotalScore": 168,
            "waitTime": 6995.489611165688,
            "responseTime": 1678908125550,
            "catchQuestion": "How many <b class=\"r\">red<\/b> marbles did your opponent report drawing? ",
            "catchKey": -1,
            "catchResponse": -1,
            "catchTime": 1678908111998,
            "trialTime": 0
        },
        {
            "exptPart": "trial",
            "trialNumber": 92,
            "roleCurrent": "receiver",
            "marblesSampled": 100,
            "probRed": 0.5,
            "practiceLambda": 5,
            "trialLambda": 8.1,
            "instructedLambda": "dishonest_small",
            "drawnRed": 71,
            "reportedRed": 80,
            "inferredRed": 70,
            "playerTrialScore": -1,
            "oppTrialScore": 0,
            "playerTotalScore": -672,
            "oppTotalScore": 168,
            "waitTime": 6298.627529478248,
            "responseTime": 1678908139931,
            "catchQuestion": "How many <b class=\"r\">red<\/b> marbles did your opponent report drawing? ",
            "catchKey": -1,
            "catchResponse": -1,
            "catchTime": 1678908111998,
            "trialTime": 0
        },
        {
            "exptPart": "trial",
            "trialNumber": 93,
            "roleCurrent": "receiver",
            "marblesSampled": 100,
            "probRed": 0.5,
            "practiceLambda": 5,
            "trialLambda": 8.1,
            "instructedLambda": "dishonest_small",
            "drawnRed": 37,
            "reportedRed": 44,
            "inferredRed": 20,
            "playerTrialScore": -17,
            "oppTrialScore": 0,
            "playerTotalScore": -689,
            "oppTotalScore": 168,
            "waitTime": 6311.813391304188,
            "responseTime": 1678908153032,
            "catchQuestion": "How many <b class=\"r\">red<\/b> marbles did your opponent report drawing? ",
            "catchKey": -1,
            "catchResponse": -1,
            "catchTime": 1678908111998,
            "trialTime": 0
        },
        {
            "exptPart": "trial",
            "trialNumber": 94,
            "roleCurrent": "receiver",
            "marblesSampled": 100,
            "probRed": 0.5,
            "practiceLambda": 5,
            "trialLambda": 8.1,
            "instructedLambda": "dishonest_small",
            "drawnRed": 31,
            "reportedRed": 44,
            "inferredRed": 30,
            "playerTrialScore": -1,
            "oppTrialScore": 0,
            "playerTotalScore": -690,
            "oppTotalScore": 168,
            "waitTime": 5263.600051324719,
            "responseTime": 1678908165152,
            "catchQuestion": "How many <b class=\"r\">red<\/b> marbles did your opponent report drawing? ",
            "catchKey": 44,
            "catchResponse": 60,
            "catchTime": 1678908165152,
            "trialTime": 0
        },
        {
            "exptPart": "trial",
            "trialNumber": 95,
            "roleCurrent": "receiver",
            "marblesSampled": 100,
            "probRed": 0.5,
            "practiceLambda": 5,
            "trialLambda": 8.1,
            "instructedLambda": "dishonest_small",
            "drawnRed": 14,
            "reportedRed": 19,
            "inferredRed": 4,
            "playerTrialScore": -10,
            "oppTrialScore": 0,
            "playerTotalScore": -700,
            "oppTotalScore": 168,
            "waitTime": 5507.802163252643,
            "responseTime": 1678908204388,
            "catchQuestion": "How many <b class=\"r\">red<\/b> marbles did your opponent report drawing? ",
            "catchKey": -1,
            "catchResponse": -1,
            "catchTime": 1678908165152,
            "trialTime": 0
        },
        {
            "exptPart": "trial",
            "trialNumber": 96,
            "roleCurrent": "receiver",
            "marblesSampled": 100,
            "probRed": 0.5,
            "practiceLambda": 5,
            "trialLambda": 8.1,
            "instructedLambda": "dishonest_small",
            "drawnRed": 54,
            "reportedRed": 63,
            "inferredRed": 40,
            "playerTrialScore": -14,
            "oppTrialScore": 0,
            "playerTotalScore": -714,
            "oppTotalScore": 168,
            "waitTime": 5717.787109067225,
            "responseTime": 1678908216990,
            "catchQuestion": "How many <b class=\"r\">red<\/b> marbles did your opponent report drawing? ",
            "catchKey": -1,
            "catchResponse": -1,
            "catchTime": 1678908165152,
            "trialTime": 0
        },
        {
            "exptPart": "trial",
            "trialNumber": 97,
            "roleCurrent": "receiver",
            "marblesSampled": 100,
            "probRed": 0.5,
            "practiceLambda": 5,
            "trialLambda": 8.1,
            "instructedLambda": "dishonest_small",
            "drawnRed": 49,
            "reportedRed": 58,
            "inferredRed": 40,
            "playerTrialScore": -9,
            "oppTrialScore": 0,
            "playerTotalScore": -723,
            "oppTotalScore": 168,
            "waitTime": 5759.900128757705,
            "responseTime": 1678908228430,
            "catchQuestion": "How many <b class=\"r\">red<\/b> marbles did your opponent report drawing? ",
            "catchKey": -1,
            "catchResponse": -1,
            "catchTime": 1678908165152,
            "trialTime": 0
        },
        {
            "exptPart": "trial",
            "trialNumber": 98,
            "roleCurrent": "receiver",
            "marblesSampled": 100,
            "probRed": 0.5,
            "practiceLambda": 5,
            "trialLambda": 8.1,
            "instructedLambda": "dishonest_small",
            "drawnRed": 82,
            "reportedRed": 88,
            "inferredRed": 80,
            "playerTrialScore": -2,
            "oppTrialScore": 0,
            "playerTotalScore": -725,
            "oppTotalScore": 168,
            "waitTime": 6881.077941584945,
            "responseTime": 1678908239072,
            "catchQuestion": "How many <b class=\"r\">red<\/b> marbles did your opponent report drawing? ",
            "catchKey": -1,
            "catchResponse": -1,
            "catchTime": 1678908165152,
            "trialTime": 0
        },
        {
            "exptPart": "trial",
            "trialNumber": 99,
            "roleCurrent": "receiver",
            "marblesSampled": 100,
            "probRed": 0.5,
            "practiceLambda": 5,
            "trialLambda": 8.1,
            "instructedLambda": "dishonest_small",
            "drawnRed": 11,
            "reportedRed": 18,
            "inferredRed": 4,
            "playerTrialScore": -7,
            "oppTrialScore": 0,
            "playerTotalScore": -732,
            "oppTotalScore": 168,
            "waitTime": 5468.90148314771,
            "responseTime": 1678908254549,
            "catchQuestion": "How many <b class=\"r\">red<\/b> marbles did your opponent report drawing? ",
            "catchKey": -1,
            "catchResponse": -1,
            "catchTime": 1678908165152,
            "trialTime": 0
        },
        {
            "exptPart": "trial",
            "trialNumber": 100,
            "roleCurrent": "receiver",
            "marblesSampled": 100,
            "probRed": 0.5,
            "practiceLambda": 5,
            "trialLambda": 8.1,
            "instructedLambda": "dishonest_small",
            "drawnRed": 45,
            "reportedRed": 53,
            "inferredRed": 20,
            "playerTrialScore": -25,
            "oppTrialScore": 0,
            "playerTotalScore": -757,
            "oppTotalScore": 168,
            "waitTime": 7215.213945948748,
            "responseTime": 1678908269328,
            "catchQuestion": "How many <b class=\"r\">red<\/b> marbles did your opponent report drawing? ",
            "catchKey": -1,
            "catchResponse": -1,
            "catchTime": 1678908269328,
            "trialTime": 0
        }
    ]
}