{
    "client": {
        "type": "sona",
        "experiment_id": 2488,
        "credit_token": "79d15902e9034cb6b65a542be205401c",
        "survey_code": "40005",
        "sid": "sona-40005",
        "window": {
            "width": 1114,
            "height": 719
        },
        "screen": {
            "width": 1440,
            "height": 900
        },
        "userAgent": "Mozilla\/5.0 (Macintosh; Intel Mac OS X 10_15_7) AppleWebKit\/537.36 (KHTML, like Gecko) Chrome\/111.0.0.0 Safari\/537.36",
        "score": 0,
        "bonus": 0
    },
    "expt": {
        "saveURL": "submit.simple.php",
        "trials": 100,
        "practiceTrials": 2,
        "marblesSampled": 100,
        "probRed": 0.5,
        "practiceLambdaAI": 5,
        "lambdaAI": 8.1,
        "roles": [
            "sender",
            "receiver"
        ],
        "cost": "unif",
        "goal": "over",
        "oppDishonesty": "dishonest_small",
        "catchTrials": [
            95,
            78,
            96,
            30,
            79,
            46,
            31,
            64,
            72,
            10
        ],
        "scoreTotal": {
            "player": -1796,
            "opp": 1055
        },
        "sona": {
            "experiment_id": 2488,
            "credit_token": "79d15902e9034cb6b65a542be205401c"
        },
        "pilot": false,
        "debug": false
    },
    "trials": [
        {
            "exptPart": "practice",
            "trialNumber": 1,
            "roleCurrent": "sender",
            "marblesSampled": 100,
            "probRed": 0.5,
            "practiceLambda": 5,
            "trialLambda": 8.1,
            "instructedLambda": "dishonest_small",
            "drawnRed": 30,
            "reportedRed": 30,
            "inferredRed": 24,
            "playerTrialScore": 0,
            "oppTrialScore": -6,
            "playerTotalScore": 0,
            "oppTotalScore": -6,
            "waitTime": 2646.4759675467394,
            "responseTime": 1678907763268,
            "catchQuestion": "How many <b class=\"r\">red<\/b> marbles did you actually draw (before any changes)? ",
            "catchKey": 30,
            "catchResponse": 30,
            "catchTime": 1678907763268,
            "trialTime": 0
        },
        {
            "exptPart": "practice",
            "trialNumber": 2,
            "roleCurrent": "receiver",
            "marblesSampled": 100,
            "probRed": 0.5,
            "practiceLambda": 5,
            "trialLambda": 8.1,
            "instructedLambda": "dishonest_small",
            "drawnRed": 34,
            "reportedRed": 39,
            "inferredRed": 5,
            "playerTrialScore": -29,
            "oppTrialScore": 0,
            "playerTotalScore": -29,
            "oppTotalScore": -6,
            "waitTime": 5586.891115364282,
            "responseTime": 1678907785197,
            "catchQuestion": "How many <b class=\"r\">red<\/b> marbles did your opponent report drawing? ",
            "catchKey": 39,
            "catchResponse": 5,
            "catchTime": 1678907785197,
            "trialTime": 0
        },
        {
            "exptPart": "trial",
            "trialNumber": 1,
            "roleCurrent": "receiver",
            "marblesSampled": 100,
            "probRed": 0.5,
            "practiceLambda": 5,
            "trialLambda": 8.1,
            "instructedLambda": "dishonest_small",
            "drawnRed": 57,
            "reportedRed": 63,
            "inferredRed": 3,
            "playerTrialScore": -54,
            "oppTrialScore": 0,
            "playerTotalScore": -54,
            "oppTotalScore": 0,
            "waitTime": 7025.175919827718,
            "responseTime": 1678907805117,
            "catchQuestion": "How many <b class=\"r\">red<\/b> marbles did your opponent report drawing? ",
            "catchKey": -1,
            "catchResponse": -1,
            "catchTime": 1678907785197,
            "trialTime": 0
        },
        {
            "exptPart": "trial",
            "trialNumber": 2,
            "roleCurrent": "receiver",
            "marblesSampled": 100,
            "probRed": 0.5,
            "practiceLambda": 5,
            "trialLambda": 8.1,
            "instructedLambda": "dishonest_small",
            "drawnRed": 67,
            "reportedRed": 75,
            "inferredRed": 5,
            "playerTrialScore": -62,
            "oppTrialScore": 0,
            "playerTotalScore": -116,
            "oppTotalScore": 0,
            "waitTime": 7002.410057520248,
            "responseTime": 1678907827702,
            "catchQuestion": "How many <b class=\"r\">red<\/b> marbles did your opponent report drawing? ",
            "catchKey": -1,
            "catchResponse": -1,
            "catchTime": 1678907785197,
            "trialTime": 0
        },
        {
            "exptPart": "trial",
            "trialNumber": 3,
            "roleCurrent": "receiver",
            "marblesSampled": 100,
            "probRed": 0.5,
            "practiceLambda": 5,
            "trialLambda": 8.1,
            "instructedLambda": "dishonest_small",
            "drawnRed": 51,
            "reportedRed": 62,
            "inferredRed": 5,
            "playerTrialScore": -46,
            "oppTrialScore": 0,
            "playerTotalScore": -162,
            "oppTotalScore": 0,
            "waitTime": 5725.093786404217,
            "responseTime": 1678907837077,
            "catchQuestion": "How many <b class=\"r\">red<\/b> marbles did your opponent report drawing? ",
            "catchKey": -1,
            "catchResponse": -1,
            "catchTime": 1678907785197,
            "trialTime": 0
        },
        {
            "exptPart": "trial",
            "trialNumber": 4,
            "roleCurrent": "receiver",
            "marblesSampled": 100,
            "probRed": 0.5,
            "practiceLambda": 5,
            "trialLambda": 8.1,
            "instructedLambda": "dishonest_small",
            "drawnRed": 35,
            "reportedRed": 47,
            "inferredRed": 5,
            "playerTrialScore": -30,
            "oppTrialScore": 0,
            "playerTotalScore": -192,
            "oppTotalScore": 0,
            "waitTime": 5376.155274716348,
            "responseTime": 1678907846445,
            "catchQuestion": "How many <b class=\"r\">red<\/b> marbles did your opponent report drawing? ",
            "catchKey": -1,
            "catchResponse": -1,
            "catchTime": 1678907785197,
            "trialTime": 0
        },
        {
            "exptPart": "trial",
            "trialNumber": 5,
            "roleCurrent": "receiver",
            "marblesSampled": 100,
            "probRed": 0.5,
            "practiceLambda": 5,
            "trialLambda": 8.1,
            "instructedLambda": "dishonest_small",
            "drawnRed": 21,
            "reportedRed": 31,
            "inferredRed": 5,
            "playerTrialScore": -16,
            "oppTrialScore": 0,
            "playerTotalScore": -208,
            "oppTotalScore": 0,
            "waitTime": 7279.030530590833,
            "responseTime": 1678907856916,
            "catchQuestion": "How many <b class=\"r\">red<\/b> marbles did your opponent report drawing? ",
            "catchKey": -1,
            "catchResponse": -1,
            "catchTime": 1678907785197,
            "trialTime": 0
        },
        {
            "exptPart": "trial",
            "trialNumber": 6,
            "roleCurrent": "receiver",
            "marblesSampled": 100,
            "probRed": 0.5,
            "practiceLambda": 5,
            "trialLambda": 8.1,
            "instructedLambda": "dishonest_small",
            "drawnRed": 62,
            "reportedRed": 69,
            "inferredRed": 5,
            "playerTrialScore": -57,
            "oppTrialScore": 0,
            "playerTotalScore": -265,
            "oppTotalScore": 0,
            "waitTime": 5869.260709349683,
            "responseTime": 1678907864438,
            "catchQuestion": "How many <b class=\"r\">red<\/b> marbles did your opponent report drawing? ",
            "catchKey": -1,
            "catchResponse": -1,
            "catchTime": 1678907785197,
            "trialTime": 0
        },
        {
            "exptPart": "trial",
            "trialNumber": 7,
            "roleCurrent": "receiver",
            "marblesSampled": 100,
            "probRed": 0.5,
            "practiceLambda": 5,
            "trialLambda": 8.1,
            "instructedLambda": "dishonest_small",
            "drawnRed": 45,
            "reportedRed": 54,
            "inferredRed": 5,
            "playerTrialScore": -40,
            "oppTrialScore": 0,
            "playerTotalScore": -305,
            "oppTotalScore": 0,
            "waitTime": 5867.10466639701,
            "responseTime": 1678907878921,
            "catchQuestion": "How many <b class=\"r\">red<\/b> marbles did your opponent report drawing? ",
            "catchKey": -1,
            "catchResponse": -1,
            "catchTime": 1678907785197,
            "trialTime": 0
        },
        {
            "exptPart": "trial",
            "trialNumber": 8,
            "roleCurrent": "receiver",
            "marblesSampled": 100,
            "probRed": 0.5,
            "practiceLambda": 5,
            "trialLambda": 8.1,
            "instructedLambda": "dishonest_small",
            "drawnRed": 59,
            "reportedRed": 66,
            "inferredRed": 5,
            "playerTrialScore": -54,
            "oppTrialScore": 0,
            "playerTotalScore": -359,
            "oppTotalScore": 0,
            "waitTime": 6008.085184969499,
            "responseTime": 1678907886993,
            "catchQuestion": "How many <b class=\"r\">red<\/b> marbles did your opponent report drawing? ",
            "catchKey": -1,
            "catchResponse": -1,
            "catchTime": 1678907785197,
            "trialTime": 0
        },
        {
            "exptPart": "trial",
            "trialNumber": 9,
            "roleCurrent": "receiver",
            "marblesSampled": 100,
            "probRed": 0.5,
            "practiceLambda": 5,
            "trialLambda": 8.1,
            "instructedLambda": "dishonest_small",
            "drawnRed": 23,
            "reportedRed": 31,
            "inferredRed": 5,
            "playerTrialScore": -18,
            "oppTrialScore": 0,
            "playerTotalScore": -377,
            "oppTotalScore": 0,
            "waitTime": 7069.35698395149,
            "responseTime": 1678907896353,
            "catchQuestion": "How many <b class=\"r\">red<\/b> marbles did your opponent report drawing? ",
            "catchKey": -1,
            "catchResponse": -1,
            "catchTime": 1678907785197,
            "trialTime": 0
        },
        {
            "exptPart": "trial",
            "trialNumber": 10,
            "roleCurrent": "receiver",
            "marblesSampled": 100,
            "probRed": 0.5,
            "practiceLambda": 5,
            "trialLambda": 8.1,
            "instructedLambda": "dishonest_small",
            "drawnRed": 44,
            "reportedRed": 51,
            "inferredRed": 5,
            "playerTrialScore": -39,
            "oppTrialScore": 0,
            "playerTotalScore": -416,
            "oppTotalScore": 0,
            "waitTime": 5825.90533068617,
            "responseTime": 1678907905035,
            "catchQuestion": "How many <b class=\"r\">red<\/b> marbles did your opponent report drawing? ",
            "catchKey": -1,
            "catchResponse": -1,
            "catchTime": 1678907905035,
            "trialTime": 0
        },
        {
            "exptPart": "trial",
            "trialNumber": 11,
            "roleCurrent": "receiver",
            "marblesSampled": 100,
            "probRed": 0.5,
            "practiceLambda": 5,
            "trialLambda": 8.1,
            "instructedLambda": "dishonest_small",
            "drawnRed": 76,
            "reportedRed": 82,
            "inferredRed": 20,
            "playerTrialScore": -56,
            "oppTrialScore": 0,
            "playerTotalScore": -472,
            "oppTotalScore": 0,
            "waitTime": 6324.031604406164,
            "responseTime": 1678907916927,
            "catchQuestion": "How many <b class=\"r\">red<\/b> marbles did your opponent report drawing? ",
            "catchKey": 82,
            "catchResponse": 20,
            "catchTime": 1678907916927,
            "trialTime": 0
        },
        {
            "exptPart": "trial",
            "trialNumber": 12,
            "roleCurrent": "receiver",
            "marblesSampled": 100,
            "probRed": 0.5,
            "practiceLambda": 5,
            "trialLambda": 8.1,
            "instructedLambda": "dishonest_small",
            "drawnRed": 66,
            "reportedRed": 74,
            "inferredRed": 80,
            "playerTrialScore": -14,
            "oppTrialScore": 14,
            "playerTotalScore": -486,
            "oppTotalScore": 14,
            "waitTime": 6440.85976804504,
            "responseTime": 1678907939434,
            "catchQuestion": "How many <b class=\"r\">red<\/b> marbles did your opponent report drawing? ",
            "catchKey": -1,
            "catchResponse": -1,
            "catchTime": 1678907916927,
            "trialTime": 0
        },
        {
            "exptPart": "trial",
            "trialNumber": 13,
            "roleCurrent": "receiver",
            "marblesSampled": 100,
            "probRed": 0.5,
            "practiceLambda": 5,
            "trialLambda": 8.1,
            "instructedLambda": "dishonest_small",
            "drawnRed": 59,
            "reportedRed": 65,
            "inferredRed": 70,
            "playerTrialScore": -11,
            "oppTrialScore": 11,
            "playerTotalScore": -497,
            "oppTotalScore": 25,
            "waitTime": 7224.334201723333,
            "responseTime": 1678907950847,
            "catchQuestion": "How many <b class=\"r\">red<\/b> marbles did your opponent report drawing? ",
            "catchKey": -1,
            "catchResponse": -1,
            "catchTime": 1678907916927,
            "trialTime": 0
        },
        {
            "exptPart": "trial",
            "trialNumber": 14,
            "roleCurrent": "receiver",
            "marblesSampled": 100,
            "probRed": 0.5,
            "practiceLambda": 5,
            "trialLambda": 8.1,
            "instructedLambda": "dishonest_small",
            "drawnRed": 36,
            "reportedRed": 40,
            "inferredRed": 38,
            "playerTrialScore": -2,
            "oppTrialScore": 2,
            "playerTotalScore": -499,
            "oppTotalScore": 27,
            "waitTime": 6946.770721618785,
            "responseTime": 1678907976421,
            "catchQuestion": "How many <b class=\"r\">red<\/b> marbles did your opponent report drawing? ",
            "catchKey": -1,
            "catchResponse": -1,
            "catchTime": 1678907916927,
            "trialTime": 0
        },
        {
            "exptPart": "trial",
            "trialNumber": 15,
            "roleCurrent": "receiver",
            "marblesSampled": 100,
            "probRed": 0.5,
            "practiceLambda": 5,
            "trialLambda": 8.1,
            "instructedLambda": "dishonest_small",
            "drawnRed": 50,
            "reportedRed": 59,
            "inferredRed": 60,
            "playerTrialScore": -10,
            "oppTrialScore": 10,
            "playerTotalScore": -509,
            "oppTotalScore": 37,
            "waitTime": 5683.162137324154,
            "responseTime": 1678907986562,
            "catchQuestion": "How many <b class=\"r\">red<\/b> marbles did your opponent report drawing? ",
            "catchKey": -1,
            "catchResponse": -1,
            "catchTime": 1678907916927,
            "trialTime": 0
        },
        {
            "exptPart": "trial",
            "trialNumber": 16,
            "roleCurrent": "receiver",
            "marblesSampled": 100,
            "probRed": 0.5,
            "practiceLambda": 5,
            "trialLambda": 8.1,
            "instructedLambda": "dishonest_small",
            "drawnRed": 75,
            "reportedRed": 83,
            "inferredRed": 83,
            "playerTrialScore": -8,
            "oppTrialScore": 8,
            "playerTotalScore": -517,
            "oppTotalScore": 45,
            "waitTime": 5794.550878001537,
            "responseTime": 1678907996257,
            "catchQuestion": "How many <b class=\"r\">red<\/b> marbles did your opponent report drawing? ",
            "catchKey": -1,
            "catchResponse": -1,
            "catchTime": 1678907916927,
            "trialTime": 0
        },
        {
            "exptPart": "trial",
            "trialNumber": 17,
            "roleCurrent": "receiver",
            "marblesSampled": 100,
            "probRed": 0.5,
            "practiceLambda": 5,
            "trialLambda": 8.1,
            "instructedLambda": "dishonest_small",
            "drawnRed": 70,
            "reportedRed": 77,
            "inferredRed": 77,
            "playerTrialScore": -7,
            "oppTrialScore": 7,
            "playerTotalScore": -524,
            "oppTotalScore": 52,
            "waitTime": 6345.005849009316,
            "responseTime": 1678908006111,
            "catchQuestion": "How many <b class=\"r\">red<\/b> marbles did your opponent report drawing? ",
            "catchKey": -1,
            "catchResponse": -1,
            "catchTime": 1678907916927,
            "trialTime": 0
        },
        {
            "exptPart": "trial",
            "trialNumber": 18,
            "roleCurrent": "receiver",
            "marblesSampled": 100,
            "probRed": 0.5,
            "practiceLambda": 5,
            "trialLambda": 8.1,
            "instructedLambda": "dishonest_small",
            "drawnRed": 46,
            "reportedRed": 58,
            "inferredRed": 55,
            "playerTrialScore": -9,
            "oppTrialScore": 9,
            "playerTotalScore": -533,
            "oppTotalScore": 61,
            "waitTime": 5489.398809587177,
            "responseTime": 1678908015176,
            "catchQuestion": "How many <b class=\"r\">red<\/b> marbles did your opponent report drawing? ",
            "catchKey": -1,
            "catchResponse": -1,
            "catchTime": 1678907916927,
            "trialTime": 0
        },
        {
            "exptPart": "trial",
            "trialNumber": 19,
            "roleCurrent": "receiver",
            "marblesSampled": 100,
            "probRed": 0.5,
            "practiceLambda": 5,
            "trialLambda": 8.1,
            "instructedLambda": "dishonest_small",
            "drawnRed": 53,
            "reportedRed": 60,
            "inferredRed": 60,
            "playerTrialScore": -7,
            "oppTrialScore": 7,
            "playerTotalScore": -540,
            "oppTotalScore": 68,
            "waitTime": 7047.838447186714,
            "responseTime": 1678908026563,
            "catchQuestion": "How many <b class=\"r\">red<\/b> marbles did your opponent report drawing? ",
            "catchKey": -1,
            "catchResponse": -1,
            "catchTime": 1678907916927,
            "trialTime": 0
        },
        {
            "exptPart": "trial",
            "trialNumber": 20,
            "roleCurrent": "receiver",
            "marblesSampled": 100,
            "probRed": 0.5,
            "practiceLambda": 5,
            "trialLambda": 8.1,
            "instructedLambda": "dishonest_small",
            "drawnRed": 73,
            "reportedRed": 86,
            "inferredRed": 90,
            "playerTrialScore": -17,
            "oppTrialScore": 17,
            "playerTotalScore": -557,
            "oppTotalScore": 85,
            "waitTime": 7426.850552853132,
            "responseTime": 1678908042432,
            "catchQuestion": "How many <b class=\"r\">red<\/b> marbles did your opponent report drawing? ",
            "catchKey": -1,
            "catchResponse": -1,
            "catchTime": 1678908042432,
            "trialTime": 0
        },
        {
            "exptPart": "trial",
            "trialNumber": 21,
            "roleCurrent": "receiver",
            "marblesSampled": 100,
            "probRed": 0.5,
            "practiceLambda": 5,
            "trialLambda": 8.1,
            "instructedLambda": "dishonest_small",
            "drawnRed": 53,
            "reportedRed": 61,
            "inferredRed": 60,
            "playerTrialScore": -7,
            "oppTrialScore": 7,
            "playerTotalScore": -564,
            "oppTotalScore": 92,
            "waitTime": 5447.789158445096,
            "responseTime": 1678908058618,
            "catchQuestion": "How many <b class=\"r\">red<\/b> marbles did your opponent report drawing? ",
            "catchKey": -1,
            "catchResponse": -1,
            "catchTime": 1678908042432,
            "trialTime": 0
        },
        {
            "exptPart": "trial",
            "trialNumber": 22,
            "roleCurrent": "receiver",
            "marblesSampled": 100,
            "probRed": 0.5,
            "practiceLambda": 5,
            "trialLambda": 8.1,
            "instructedLambda": "dishonest_small",
            "drawnRed": 77,
            "reportedRed": 84,
            "inferredRed": 90,
            "playerTrialScore": -13,
            "oppTrialScore": 13,
            "playerTotalScore": -577,
            "oppTotalScore": 105,
            "waitTime": 7491.216945541655,
            "responseTime": 1678908068928,
            "catchQuestion": "How many <b class=\"r\">red<\/b> marbles did your opponent report drawing? ",
            "catchKey": -1,
            "catchResponse": -1,
            "catchTime": 1678908042432,
            "trialTime": 0
        },
        {
            "exptPart": "trial",
            "trialNumber": 23,
            "roleCurrent": "receiver",
            "marblesSampled": 100,
            "probRed": 0.5,
            "practiceLambda": 5,
            "trialLambda": 8.1,
            "instructedLambda": "dishonest_small",
            "drawnRed": 38,
            "reportedRed": 45,
            "inferredRed": 40,
            "playerTrialScore": -2,
            "oppTrialScore": 2,
            "playerTotalScore": -579,
            "oppTotalScore": 107,
            "waitTime": 6446.019392747803,
            "responseTime": 1678908078787,
            "catchQuestion": "How many <b class=\"r\">red<\/b> marbles did your opponent report drawing? ",
            "catchKey": -1,
            "catchResponse": -1,
            "catchTime": 1678908042432,
            "trialTime": 0
        },
        {
            "exptPart": "trial",
            "trialNumber": 24,
            "roleCurrent": "receiver",
            "marblesSampled": 100,
            "probRed": 0.5,
            "practiceLambda": 5,
            "trialLambda": 8.1,
            "instructedLambda": "dishonest_small",
            "drawnRed": 35,
            "reportedRed": 43,
            "inferredRed": 50,
            "playerTrialScore": -15,
            "oppTrialScore": 15,
            "playerTotalScore": -594,
            "oppTotalScore": 122,
            "waitTime": 5766.996849265962,
            "responseTime": 1678908088109,
            "catchQuestion": "How many <b class=\"r\">red<\/b> marbles did your opponent report drawing? ",
            "catchKey": -1,
            "catchResponse": -1,
            "catchTime": 1678908042432,
            "trialTime": 0
        },
        {
            "exptPart": "trial",
            "trialNumber": 25,
            "roleCurrent": "receiver",
            "marblesSampled": 100,
            "probRed": 0.5,
            "practiceLambda": 5,
            "trialLambda": 8.1,
            "instructedLambda": "dishonest_small",
            "drawnRed": 39,
            "reportedRed": 50,
            "inferredRed": 50,
            "playerTrialScore": -11,
            "oppTrialScore": 11,
            "playerTotalScore": -605,
            "oppTotalScore": 133,
            "waitTime": 6878.767195006076,
            "responseTime": 1678908103092,
            "catchQuestion": "How many <b class=\"r\">red<\/b> marbles did your opponent report drawing? ",
            "catchKey": -1,
            "catchResponse": -1,
            "catchTime": 1678908042432,
            "trialTime": 0
        },
        {
            "exptPart": "trial",
            "trialNumber": 26,
            "roleCurrent": "receiver",
            "marblesSampled": 100,
            "probRed": 0.5,
            "practiceLambda": 5,
            "trialLambda": 8.1,
            "instructedLambda": "dishonest_small",
            "drawnRed": 65,
            "reportedRed": 76,
            "inferredRed": 76,
            "playerTrialScore": -11,
            "oppTrialScore": 11,
            "playerTotalScore": -616,
            "oppTotalScore": 144,
            "waitTime": 6836.259193845682,
            "responseTime": 1678908112940,
            "catchQuestion": "How many <b class=\"r\">red<\/b> marbles did your opponent report drawing? ",
            "catchKey": -1,
            "catchResponse": -1,
            "catchTime": 1678908042432,
            "trialTime": 0
        },
        {
            "exptPart": "trial",
            "trialNumber": 27,
            "roleCurrent": "receiver",
            "marblesSampled": 100,
            "probRed": 0.5,
            "practiceLambda": 5,
            "trialLambda": 8.1,
            "instructedLambda": "dishonest_small",
            "drawnRed": 47,
            "reportedRed": 58,
            "inferredRed": 58,
            "playerTrialScore": -11,
            "oppTrialScore": 11,
            "playerTotalScore": -627,
            "oppTotalScore": 155,
            "waitTime": 6817.506374749293,
            "responseTime": 1678908122403,
            "catchQuestion": "How many <b class=\"r\">red<\/b> marbles did your opponent report drawing? ",
            "catchKey": -1,
            "catchResponse": -1,
            "catchTime": 1678908042432,
            "trialTime": 0
        },
        {
            "exptPart": "trial",
            "trialNumber": 28,
            "roleCurrent": "receiver",
            "marblesSampled": 100,
            "probRed": 0.5,
            "practiceLambda": 5,
            "trialLambda": 8.1,
            "instructedLambda": "dishonest_small",
            "drawnRed": 82,
            "reportedRed": 91,
            "inferredRed": 100,
            "playerTrialScore": -18,
            "oppTrialScore": 18,
            "playerTotalScore": -645,
            "oppTotalScore": 173,
            "waitTime": 6287.189339977313,
            "responseTime": 1678908131859,
            "catchQuestion": "How many <b class=\"r\">red<\/b> marbles did your opponent report drawing? ",
            "catchKey": -1,
            "catchResponse": -1,
            "catchTime": 1678908042432,
            "trialTime": 0
        },
        {
            "exptPart": "trial",
            "trialNumber": 29,
            "roleCurrent": "receiver",
            "marblesSampled": 100,
            "probRed": 0.5,
            "practiceLambda": 5,
            "trialLambda": 8.1,
            "instructedLambda": "dishonest_small",
            "drawnRed": 32,
            "reportedRed": 45,
            "inferredRed": 45,
            "playerTrialScore": -13,
            "oppTrialScore": 13,
            "playerTotalScore": -658,
            "oppTotalScore": 186,
            "waitTime": 5770.521656700658,
            "responseTime": 1678908150328,
            "catchQuestion": "How many <b class=\"r\">red<\/b> marbles did your opponent report drawing? ",
            "catchKey": -1,
            "catchResponse": -1,
            "catchTime": 1678908042432,
            "trialTime": 0
        },
        {
            "exptPart": "trial",
            "trialNumber": 30,
            "roleCurrent": "receiver",
            "marblesSampled": 100,
            "probRed": 0.5,
            "practiceLambda": 5,
            "trialLambda": 8.1,
            "instructedLambda": "dishonest_small",
            "drawnRed": 42,
            "reportedRed": 49,
            "inferredRed": 49,
            "playerTrialScore": -7,
            "oppTrialScore": 7,
            "playerTotalScore": -665,
            "oppTotalScore": 193,
            "waitTime": 5517.47994629867,
            "responseTime": 1678908173759,
            "catchQuestion": "How many <b class=\"r\">red<\/b> marbles did your opponent report drawing? ",
            "catchKey": -1,
            "catchResponse": -1,
            "catchTime": 1678908173759,
            "trialTime": 0
        },
        {
            "exptPart": "trial",
            "trialNumber": 31,
            "roleCurrent": "receiver",
            "marblesSampled": 100,
            "probRed": 0.5,
            "practiceLambda": 5,
            "trialLambda": 8.1,
            "instructedLambda": "dishonest_small",
            "drawnRed": 29,
            "reportedRed": 39,
            "inferredRed": 35,
            "playerTrialScore": -6,
            "oppTrialScore": 6,
            "playerTotalScore": -671,
            "oppTotalScore": 199,
            "waitTime": 6286.460318985232,
            "responseTime": 1678908187627,
            "catchQuestion": "How many <b class=\"r\">red<\/b> marbles did your opponent report drawing? ",
            "catchKey": 39,
            "catchResponse": 49,
            "catchTime": 1678908187627,
            "trialTime": 0
        },
        {
            "exptPart": "trial",
            "trialNumber": 32,
            "roleCurrent": "receiver",
            "marblesSampled": 100,
            "probRed": 0.5,
            "practiceLambda": 5,
            "trialLambda": 8.1,
            "instructedLambda": "dishonest_small",
            "drawnRed": 87,
            "reportedRed": 95,
            "inferredRed": 95,
            "playerTrialScore": -8,
            "oppTrialScore": 8,
            "playerTotalScore": -679,
            "oppTotalScore": 207,
            "waitTime": 7070.0757630246135,
            "responseTime": 1678908216388,
            "catchQuestion": "How many <b class=\"r\">red<\/b> marbles did your opponent report drawing? ",
            "catchKey": 95,
            "catchResponse": 95,
            "catchTime": 1678908216388,
            "trialTime": 0
        },
        {
            "exptPart": "trial",
            "trialNumber": 33,
            "roleCurrent": "receiver",
            "marblesSampled": 100,
            "probRed": 0.5,
            "practiceLambda": 5,
            "trialLambda": 8.1,
            "instructedLambda": "dishonest_small",
            "drawnRed": 66,
            "reportedRed": 74,
            "inferredRed": 75,
            "playerTrialScore": -9,
            "oppTrialScore": 9,
            "playerTotalScore": -688,
            "oppTotalScore": 216,
            "waitTime": 6340.919113478517,
            "responseTime": 1678908230429,
            "catchQuestion": "How many <b class=\"r\">red<\/b> marbles did your opponent report drawing? ",
            "catchKey": -1,
            "catchResponse": -1,
            "catchTime": 1678908216388,
            "trialTime": 0
        },
        {
            "exptPart": "trial",
            "trialNumber": 34,
            "roleCurrent": "receiver",
            "marblesSampled": 100,
            "probRed": 0.5,
            "practiceLambda": 5,
            "trialLambda": 8.1,
            "instructedLambda": "dishonest_small",
            "drawnRed": 61,
            "reportedRed": 68,
            "inferredRed": 68,
            "playerTrialScore": -7,
            "oppTrialScore": 7,
            "playerTotalScore": -695,
            "oppTotalScore": 223,
            "waitTime": 6578.282350247079,
            "responseTime": 1678908240745,
            "catchQuestion": "How many <b class=\"r\">red<\/b> marbles did your opponent report drawing? ",
            "catchKey": -1,
            "catchResponse": -1,
            "catchTime": 1678908216388,
            "trialTime": 0
        },
        {
            "exptPart": "trial",
            "trialNumber": 35,
            "roleCurrent": "receiver",
            "marblesSampled": 100,
            "probRed": 0.5,
            "practiceLambda": 5,
            "trialLambda": 8.1,
            "instructedLambda": "dishonest_small",
            "drawnRed": 38,
            "reportedRed": 42,
            "inferredRed": 45,
            "playerTrialScore": -7,
            "oppTrialScore": 7,
            "playerTotalScore": -702,
            "oppTotalScore": 230,
            "waitTime": 6192.429311599672,
            "responseTime": 1678908249844,
            "catchQuestion": "How many <b class=\"r\">red<\/b> marbles did your opponent report drawing? ",
            "catchKey": -1,
            "catchResponse": -1,
            "catchTime": 1678908216388,
            "trialTime": 0
        },
        {
            "exptPart": "trial",
            "trialNumber": 36,
            "roleCurrent": "receiver",
            "marblesSampled": 100,
            "probRed": 0.5,
            "practiceLambda": 5,
            "trialLambda": 8.1,
            "instructedLambda": "dishonest_small",
            "drawnRed": 28,
            "reportedRed": 35,
            "inferredRed": 35,
            "playerTrialScore": -7,
            "oppTrialScore": 7,
            "playerTotalScore": -709,
            "oppTotalScore": 237,
            "waitTime": 6592.58581903937,
            "responseTime": 1678908260253,
            "catchQuestion": "How many <b class=\"r\">red<\/b> marbles did your opponent report drawing? ",
            "catchKey": -1,
            "catchResponse": -1,
            "catchTime": 1678908216388,
            "trialTime": 0
        },
        {
            "exptPart": "trial",
            "trialNumber": 37,
            "roleCurrent": "receiver",
            "marblesSampled": 100,
            "probRed": 0.5,
            "practiceLambda": 5,
            "trialLambda": 8.1,
            "instructedLambda": "dishonest_small",
            "drawnRed": 63,
            "reportedRed": 71,
            "inferredRed": 70,
            "playerTrialScore": -7,
            "oppTrialScore": 7,
            "playerTotalScore": -716,
            "oppTotalScore": 244,
            "waitTime": 7345.287984769342,
            "responseTime": 1678908272439,
            "catchQuestion": "How many <b class=\"r\">red<\/b> marbles did your opponent report drawing? ",
            "catchKey": -1,
            "catchResponse": -1,
            "catchTime": 1678908216388,
            "trialTime": 0
        },
        {
            "exptPart": "trial",
            "trialNumber": 38,
            "roleCurrent": "receiver",
            "marblesSampled": 100,
            "probRed": 0.5,
            "practiceLambda": 5,
            "trialLambda": 8.1,
            "instructedLambda": "dishonest_small",
            "drawnRed": 42,
            "reportedRed": 50,
            "inferredRed": 50,
            "playerTrialScore": -8,
            "oppTrialScore": 8,
            "playerTotalScore": -724,
            "oppTotalScore": 252,
            "waitTime": 7373.606803200321,
            "responseTime": 1678908282492,
            "catchQuestion": "How many <b class=\"r\">red<\/b> marbles did your opponent report drawing? ",
            "catchKey": -1,
            "catchResponse": -1,
            "catchTime": 1678908216388,
            "trialTime": 0
        },
        {
            "exptPart": "trial",
            "trialNumber": 39,
            "roleCurrent": "receiver",
            "marblesSampled": 100,
            "probRed": 0.5,
            "practiceLambda": 5,
            "trialLambda": 8.1,
            "instructedLambda": "dishonest_small",
            "drawnRed": 40,
            "reportedRed": 46,
            "inferredRed": 46,
            "playerTrialScore": -6,
            "oppTrialScore": 6,
            "playerTotalScore": -730,
            "oppTotalScore": 258,
            "waitTime": 5799.064510996945,
            "responseTime": 1678908291279,
            "catchQuestion": "How many <b class=\"r\">red<\/b> marbles did your opponent report drawing? ",
            "catchKey": -1,
            "catchResponse": -1,
            "catchTime": 1678908216388,
            "trialTime": 0
        },
        {
            "exptPart": "trial",
            "trialNumber": 40,
            "roleCurrent": "receiver",
            "marblesSampled": 100,
            "probRed": 0.5,
            "practiceLambda": 5,
            "trialLambda": 8.1,
            "instructedLambda": "dishonest_small",
            "drawnRed": 59,
            "reportedRed": 63,
            "inferredRed": 63,
            "playerTrialScore": -4,
            "oppTrialScore": 4,
            "playerTotalScore": -734,
            "oppTotalScore": 262,
            "waitTime": 6917.054914821278,
            "responseTime": 1678908302715,
            "catchQuestion": "How many <b class=\"r\">red<\/b> marbles did your opponent report drawing? ",
            "catchKey": -1,
            "catchResponse": -1,
            "catchTime": 1678908302715,
            "trialTime": 0
        },
        {
            "exptPart": "trial",
            "trialNumber": 41,
            "roleCurrent": "receiver",
            "marblesSampled": 100,
            "probRed": 0.5,
            "practiceLambda": 5,
            "trialLambda": 8.1,
            "instructedLambda": "dishonest_small",
            "drawnRed": 64,
            "reportedRed": 72,
            "inferredRed": 75,
            "playerTrialScore": -11,
            "oppTrialScore": 11,
            "playerTotalScore": -745,
            "oppTotalScore": 273,
            "waitTime": 5799.686658497507,
            "responseTime": 1678908313347,
            "catchQuestion": "How many <b class=\"r\">red<\/b> marbles did your opponent report drawing? ",
            "catchKey": -1,
            "catchResponse": -1,
            "catchTime": 1678908302715,
            "trialTime": 0
        },
        {
            "exptPart": "trial",
            "trialNumber": 42,
            "roleCurrent": "receiver",
            "marblesSampled": 100,
            "probRed": 0.5,
            "practiceLambda": 5,
            "trialLambda": 8.1,
            "instructedLambda": "dishonest_small",
            "drawnRed": 43,
            "reportedRed": 54,
            "inferredRed": 50,
            "playerTrialScore": -7,
            "oppTrialScore": 7,
            "playerTotalScore": -752,
            "oppTotalScore": 280,
            "waitTime": 5162.0149627962055,
            "responseTime": 1678908322536,
            "catchQuestion": "How many <b class=\"r\">red<\/b> marbles did your opponent report drawing? ",
            "catchKey": -1,
            "catchResponse": -1,
            "catchTime": 1678908302715,
            "trialTime": 0
        },
        {
            "exptPart": "trial",
            "trialNumber": 43,
            "roleCurrent": "receiver",
            "marblesSampled": 100,
            "probRed": 0.5,
            "practiceLambda": 5,
            "trialLambda": 8.1,
            "instructedLambda": "dishonest_small",
            "drawnRed": 49,
            "reportedRed": 54,
            "inferredRed": 55,
            "playerTrialScore": -6,
            "oppTrialScore": 6,
            "playerTotalScore": -758,
            "oppTotalScore": 286,
            "waitTime": 7109.324714343281,
            "responseTime": 1678908332303,
            "catchQuestion": "How many <b class=\"r\">red<\/b> marbles did your opponent report drawing? ",
            "catchKey": -1,
            "catchResponse": -1,
            "catchTime": 1678908302715,
            "trialTime": 0
        },
        {
            "exptPart": "trial",
            "trialNumber": 44,
            "roleCurrent": "receiver",
            "marblesSampled": 100,
            "probRed": 0.5,
            "practiceLambda": 5,
            "trialLambda": 8.1,
            "instructedLambda": "dishonest_small",
            "drawnRed": 47,
            "reportedRed": 53,
            "inferredRed": 54,
            "playerTrialScore": -7,
            "oppTrialScore": 7,
            "playerTotalScore": -765,
            "oppTotalScore": 293,
            "waitTime": 6969.839022246228,
            "responseTime": 1678908343910,
            "catchQuestion": "How many <b class=\"r\">red<\/b> marbles did your opponent report drawing? ",
            "catchKey": -1,
            "catchResponse": -1,
            "catchTime": 1678908302715,
            "trialTime": 0
        },
        {
            "exptPart": "trial",
            "trialNumber": 45,
            "roleCurrent": "receiver",
            "marblesSampled": 100,
            "probRed": 0.5,
            "practiceLambda": 5,
            "trialLambda": 8.1,
            "instructedLambda": "dishonest_small",
            "drawnRed": 49,
            "reportedRed": 58,
            "inferredRed": 58,
            "playerTrialScore": -9,
            "oppTrialScore": 9,
            "playerTotalScore": -774,
            "oppTotalScore": 302,
            "waitTime": 6511.469039427324,
            "responseTime": 1678908355054,
            "catchQuestion": "How many <b class=\"r\">red<\/b> marbles did your opponent report drawing? ",
            "catchKey": -1,
            "catchResponse": -1,
            "catchTime": 1678908302715,
            "trialTime": 0
        },
        {
            "exptPart": "trial",
            "trialNumber": 46,
            "roleCurrent": "receiver",
            "marblesSampled": 100,
            "probRed": 0.5,
            "practiceLambda": 5,
            "trialLambda": 8.1,
            "instructedLambda": "dishonest_small",
            "drawnRed": 42,
            "reportedRed": 52,
            "inferredRed": 53,
            "playerTrialScore": -11,
            "oppTrialScore": 11,
            "playerTotalScore": -785,
            "oppTotalScore": 313,
            "waitTime": 5745.245913135108,
            "responseTime": 1678908364009,
            "catchQuestion": "How many <b class=\"r\">red<\/b> marbles did your opponent report drawing? ",
            "catchKey": -1,
            "catchResponse": -1,
            "catchTime": 1678908302715,
            "trialTime": 0
        },
        {
            "exptPart": "trial",
            "trialNumber": 47,
            "roleCurrent": "receiver",
            "marblesSampled": 100,
            "probRed": 0.5,
            "practiceLambda": 5,
            "trialLambda": 8.1,
            "instructedLambda": "dishonest_small",
            "drawnRed": 85,
            "reportedRed": 95,
            "inferredRed": 96,
            "playerTrialScore": -11,
            "oppTrialScore": 11,
            "playerTotalScore": -796,
            "oppTotalScore": 324,
            "waitTime": 5857.893959291285,
            "responseTime": 1678908378808,
            "catchQuestion": "How many <b class=\"r\">red<\/b> marbles did your opponent report drawing? ",
            "catchKey": 95,
            "catchResponse": 95,
            "catchTime": 1678908378808,
            "trialTime": 0
        },
        {
            "exptPart": "trial",
            "trialNumber": 48,
            "roleCurrent": "receiver",
            "marblesSampled": 100,
            "probRed": 0.5,
            "practiceLambda": 5,
            "trialLambda": 8.1,
            "instructedLambda": "dishonest_small",
            "drawnRed": 32,
            "reportedRed": 41,
            "inferredRed": 45,
            "playerTrialScore": -13,
            "oppTrialScore": 13,
            "playerTotalScore": -809,
            "oppTotalScore": 337,
            "waitTime": 7210.504989172719,
            "responseTime": 1678908393191,
            "catchQuestion": "How many <b class=\"r\">red<\/b> marbles did your opponent report drawing? ",
            "catchKey": -1,
            "catchResponse": -1,
            "catchTime": 1678908378808,
            "trialTime": 0
        },
        {
            "exptPart": "trial",
            "trialNumber": 49,
            "roleCurrent": "receiver",
            "marblesSampled": 100,
            "probRed": 0.5,
            "practiceLambda": 5,
            "trialLambda": 8.1,
            "instructedLambda": "dishonest_small",
            "drawnRed": 56,
            "reportedRed": 68,
            "inferredRed": 70,
            "playerTrialScore": -14,
            "oppTrialScore": 14,
            "playerTotalScore": -823,
            "oppTotalScore": 351,
            "waitTime": 7336.211712427827,
            "responseTime": 1678908413242,
            "catchQuestion": "How many <b class=\"r\">red<\/b> marbles did your opponent report drawing? ",
            "catchKey": -1,
            "catchResponse": -1,
            "catchTime": 1678908378808,
            "trialTime": 0
        },
        {
            "exptPart": "trial",
            "trialNumber": 50,
            "roleCurrent": "receiver",
            "marblesSampled": 100,
            "probRed": 0.5,
            "practiceLambda": 5,
            "trialLambda": 8.1,
            "instructedLambda": "dishonest_small",
            "drawnRed": 54,
            "reportedRed": 61,
            "inferredRed": 57,
            "playerTrialScore": -3,
            "oppTrialScore": 3,
            "playerTotalScore": -826,
            "oppTotalScore": 354,
            "waitTime": 5589.028005011993,
            "responseTime": 1678908423169,
            "catchQuestion": "How many <b class=\"r\">red<\/b> marbles did your opponent report drawing? ",
            "catchKey": -1,
            "catchResponse": -1,
            "catchTime": 1678908423170,
            "trialTime": 0
        },
        {
            "exptPart": "trial",
            "trialNumber": 51,
            "roleCurrent": "receiver",
            "marblesSampled": 100,
            "probRed": 0.5,
            "practiceLambda": 5,
            "trialLambda": 8.1,
            "instructedLambda": "dishonest_small",
            "drawnRed": 43,
            "reportedRed": 51,
            "inferredRed": 55,
            "playerTrialScore": -12,
            "oppTrialScore": 12,
            "playerTotalScore": -838,
            "oppTotalScore": 366,
            "waitTime": 6756.61589125243,
            "responseTime": 1678908435020,
            "catchQuestion": "How many <b class=\"r\">red<\/b> marbles did your opponent report drawing? ",
            "catchKey": -1,
            "catchResponse": -1,
            "catchTime": 1678908423170,
            "trialTime": 0
        },
        {
            "exptPart": "trial",
            "trialNumber": 52,
            "roleCurrent": "receiver",
            "marblesSampled": 100,
            "probRed": 0.5,
            "practiceLambda": 5,
            "trialLambda": 8.1,
            "instructedLambda": "dishonest_small",
            "drawnRed": 24,
            "reportedRed": 37,
            "inferredRed": 51,
            "playerTrialScore": -27,
            "oppTrialScore": 27,
            "playerTotalScore": -865,
            "oppTotalScore": 393,
            "waitTime": 5536.3787446619535,
            "responseTime": 1678908444134,
            "catchQuestion": "How many <b class=\"r\">red<\/b> marbles did your opponent report drawing? ",
            "catchKey": -1,
            "catchResponse": -1,
            "catchTime": 1678908423170,
            "trialTime": 0
        },
        {
            "exptPart": "trial",
            "trialNumber": 53,
            "roleCurrent": "receiver",
            "marblesSampled": 100,
            "probRed": 0.5,
            "practiceLambda": 5,
            "trialLambda": 8.1,
            "instructedLambda": "dishonest_small",
            "drawnRed": 43,
            "reportedRed": 54,
            "inferredRed": 37,
            "playerTrialScore": -6,
            "oppTrialScore": 0,
            "playerTotalScore": -871,
            "oppTotalScore": 393,
            "waitTime": 6997.995533204947,
            "responseTime": 1678908455739,
            "catchQuestion": "How many <b class=\"r\">red<\/b> marbles did your opponent report drawing? ",
            "catchKey": -1,
            "catchResponse": -1,
            "catchTime": 1678908423170,
            "trialTime": 0
        },
        {
            "exptPart": "trial",
            "trialNumber": 54,
            "roleCurrent": "receiver",
            "marblesSampled": 100,
            "probRed": 0.5,
            "practiceLambda": 5,
            "trialLambda": 8.1,
            "instructedLambda": "dishonest_small",
            "drawnRed": 19,
            "reportedRed": 30,
            "inferredRed": 54,
            "playerTrialScore": -35,
            "oppTrialScore": 35,
            "playerTotalScore": -906,
            "oppTotalScore": 428,
            "waitTime": 6814.455916369348,
            "responseTime": 1678908464976,
            "catchQuestion": "How many <b class=\"r\">red<\/b> marbles did your opponent report drawing? ",
            "catchKey": -1,
            "catchResponse": -1,
            "catchTime": 1678908423170,
            "trialTime": 0
        },
        {
            "exptPart": "trial",
            "trialNumber": 55,
            "roleCurrent": "receiver",
            "marblesSampled": 100,
            "probRed": 0.5,
            "practiceLambda": 5,
            "trialLambda": 8.1,
            "instructedLambda": "dishonest_small",
            "drawnRed": 45,
            "reportedRed": 55,
            "inferredRed": 30,
            "playerTrialScore": -15,
            "oppTrialScore": 0,
            "playerTotalScore": -921,
            "oppTotalScore": 428,
            "waitTime": 5146.055526813446,
            "responseTime": 1678908473077,
            "catchQuestion": "How many <b class=\"r\">red<\/b> marbles did your opponent report drawing? ",
            "catchKey": -1,
            "catchResponse": -1,
            "catchTime": 1678908423170,
            "trialTime": 0
        },
        {
            "exptPart": "trial",
            "trialNumber": 56,
            "roleCurrent": "receiver",
            "marblesSampled": 100,
            "probRed": 0.5,
            "practiceLambda": 5,
            "trialLambda": 8.1,
            "instructedLambda": "dishonest_small",
            "drawnRed": 65,
            "reportedRed": 70,
            "inferredRed": 55,
            "playerTrialScore": -10,
            "oppTrialScore": 0,
            "playerTotalScore": -931,
            "oppTotalScore": 428,
            "waitTime": 5134.089877604274,
            "responseTime": 1678908480928,
            "catchQuestion": "How many <b class=\"r\">red<\/b> marbles did your opponent report drawing? ",
            "catchKey": -1,
            "catchResponse": -1,
            "catchTime": 1678908423170,
            "trialTime": 0
        },
        {
            "exptPart": "trial",
            "trialNumber": 57,
            "roleCurrent": "receiver",
            "marblesSampled": 100,
            "probRed": 0.5,
            "practiceLambda": 5,
            "trialLambda": 8.1,
            "instructedLambda": "dishonest_small",
            "drawnRed": 55,
            "reportedRed": 61,
            "inferredRed": 70,
            "playerTrialScore": -15,
            "oppTrialScore": 15,
            "playerTotalScore": -946,
            "oppTotalScore": 443,
            "waitTime": 6285.7203908662905,
            "responseTime": 1678908490061,
            "catchQuestion": "How many <b class=\"r\">red<\/b> marbles did your opponent report drawing? ",
            "catchKey": -1,
            "catchResponse": -1,
            "catchTime": 1678908423170,
            "trialTime": 0
        },
        {
            "exptPart": "trial",
            "trialNumber": 58,
            "roleCurrent": "receiver",
            "marblesSampled": 100,
            "probRed": 0.5,
            "practiceLambda": 5,
            "trialLambda": 8.1,
            "instructedLambda": "dishonest_small",
            "drawnRed": 48,
            "reportedRed": 57,
            "inferredRed": 61,
            "playerTrialScore": -13,
            "oppTrialScore": 13,
            "playerTotalScore": -959,
            "oppTotalScore": 456,
            "waitTime": 6014.887608380026,
            "responseTime": 1678908499194,
            "catchQuestion": "How many <b class=\"r\">red<\/b> marbles did your opponent report drawing? ",
            "catchKey": -1,
            "catchResponse": -1,
            "catchTime": 1678908423170,
            "trialTime": 0
        },
        {
            "exptPart": "trial",
            "trialNumber": 59,
            "roleCurrent": "receiver",
            "marblesSampled": 100,
            "probRed": 0.5,
            "practiceLambda": 5,
            "trialLambda": 8.1,
            "instructedLambda": "dishonest_small",
            "drawnRed": 79,
            "reportedRed": 89,
            "inferredRed": 57,
            "playerTrialScore": -22,
            "oppTrialScore": 0,
            "playerTotalScore": -981,
            "oppTotalScore": 456,
            "waitTime": 5744.239638977573,
            "responseTime": 1678908507931,
            "catchQuestion": "How many <b class=\"r\">red<\/b> marbles did your opponent report drawing? ",
            "catchKey": -1,
            "catchResponse": -1,
            "catchTime": 1678908423170,
            "trialTime": 0
        },
        {
            "exptPart": "trial",
            "trialNumber": 60,
            "roleCurrent": "receiver",
            "marblesSampled": 100,
            "probRed": 0.5,
            "practiceLambda": 5,
            "trialLambda": 8.1,
            "instructedLambda": "dishonest_small",
            "drawnRed": 48,
            "reportedRed": 58,
            "inferredRed": 87,
            "playerTrialScore": -39,
            "oppTrialScore": 39,
            "playerTotalScore": -1020,
            "oppTotalScore": 495,
            "waitTime": 6711.3450397499455,
            "responseTime": 1678908524326,
            "catchQuestion": "How many <b class=\"r\">red<\/b> marbles did your opponent report drawing? ",
            "catchKey": -1,
            "catchResponse": -1,
            "catchTime": 1678908524326,
            "trialTime": 0
        },
        {
            "exptPart": "trial",
            "trialNumber": 61,
            "roleCurrent": "receiver",
            "marblesSampled": 100,
            "probRed": 0.5,
            "practiceLambda": 5,
            "trialLambda": 8.1,
            "instructedLambda": "dishonest_small",
            "drawnRed": 41,
            "reportedRed": 49,
            "inferredRed": 58,
            "playerTrialScore": -17,
            "oppTrialScore": 17,
            "playerTotalScore": -1037,
            "oppTotalScore": 512,
            "waitTime": 5343.744453134212,
            "responseTime": 1678908534879,
            "catchQuestion": "How many <b class=\"r\">red<\/b> marbles did your opponent report drawing? ",
            "catchKey": -1,
            "catchResponse": -1,
            "catchTime": 1678908524326,
            "trialTime": 0
        },
        {
            "exptPart": "trial",
            "trialNumber": 62,
            "roleCurrent": "receiver",
            "marblesSampled": 100,
            "probRed": 0.5,
            "practiceLambda": 5,
            "trialLambda": 8.1,
            "instructedLambda": "dishonest_small",
            "drawnRed": 33,
            "reportedRed": 44,
            "inferredRed": 49,
            "playerTrialScore": -16,
            "oppTrialScore": 16,
            "playerTotalScore": -1053,
            "oppTotalScore": 528,
            "waitTime": 6009.579815243146,
            "responseTime": 1678908543803,
            "catchQuestion": "How many <b class=\"r\">red<\/b> marbles did your opponent report drawing? ",
            "catchKey": -1,
            "catchResponse": -1,
            "catchTime": 1678908524326,
            "trialTime": 0
        },
        {
            "exptPart": "trial",
            "trialNumber": 63,
            "roleCurrent": "receiver",
            "marblesSampled": 100,
            "probRed": 0.5,
            "practiceLambda": 5,
            "trialLambda": 8.1,
            "instructedLambda": "dishonest_small",
            "drawnRed": 82,
            "reportedRed": 92,
            "inferredRed": 44,
            "playerTrialScore": -38,
            "oppTrialScore": 0,
            "playerTotalScore": -1091,
            "oppTotalScore": 528,
            "waitTime": 5757.566770112498,
            "responseTime": 1678908552291,
            "catchQuestion": "How many <b class=\"r\">red<\/b> marbles did your opponent report drawing? ",
            "catchKey": -1,
            "catchResponse": -1,
            "catchTime": 1678908524326,
            "trialTime": 0
        },
        {
            "exptPart": "trial",
            "trialNumber": 64,
            "roleCurrent": "receiver",
            "marblesSampled": 100,
            "probRed": 0.5,
            "practiceLambda": 5,
            "trialLambda": 8.1,
            "instructedLambda": "dishonest_small",
            "drawnRed": 46,
            "reportedRed": 48,
            "inferredRed": 92,
            "playerTrialScore": -46,
            "oppTrialScore": 46,
            "playerTotalScore": -1137,
            "oppTotalScore": 574,
            "waitTime": 5137.870818423165,
            "responseTime": 1678908562191,
            "catchQuestion": "How many <b class=\"r\">red<\/b> marbles did your opponent report drawing? ",
            "catchKey": -1,
            "catchResponse": -1,
            "catchTime": 1678908524326,
            "trialTime": 0
        },
        {
            "exptPart": "trial",
            "trialNumber": 65,
            "roleCurrent": "receiver",
            "marblesSampled": 100,
            "probRed": 0.5,
            "practiceLambda": 5,
            "trialLambda": 8.1,
            "instructedLambda": "dishonest_small",
            "drawnRed": 43,
            "reportedRed": 57,
            "inferredRed": 48,
            "playerTrialScore": -5,
            "oppTrialScore": 5,
            "playerTotalScore": -1142,
            "oppTotalScore": 579,
            "waitTime": 5390.228398401972,
            "responseTime": 1678908570848,
            "catchQuestion": "How many <b class=\"r\">red<\/b> marbles did your opponent report drawing? ",
            "catchKey": 57,
            "catchResponse": 57,
            "catchTime": 1678908570848,
            "trialTime": 0
        },
        {
            "exptPart": "trial",
            "trialNumber": 66,
            "roleCurrent": "receiver",
            "marblesSampled": 100,
            "probRed": 0.5,
            "practiceLambda": 5,
            "trialLambda": 8.1,
            "instructedLambda": "dishonest_small",
            "drawnRed": 55,
            "reportedRed": 61,
            "inferredRed": 57,
            "playerTrialScore": -2,
            "oppTrialScore": 2,
            "playerTotalScore": -1144,
            "oppTotalScore": 581,
            "waitTime": 5873.015545102822,
            "responseTime": 1678908585000,
            "catchQuestion": "How many <b class=\"r\">red<\/b> marbles did your opponent report drawing? ",
            "catchKey": -1,
            "catchResponse": -1,
            "catchTime": 1678908570848,
            "trialTime": 0
        },
        {
            "exptPart": "trial",
            "trialNumber": 67,
            "roleCurrent": "receiver",
            "marblesSampled": 100,
            "probRed": 0.5,
            "practiceLambda": 5,
            "trialLambda": 8.1,
            "instructedLambda": "dishonest_small",
            "drawnRed": 58,
            "reportedRed": 68,
            "inferredRed": 57,
            "playerTrialScore": -1,
            "oppTrialScore": 0,
            "playerTotalScore": -1145,
            "oppTotalScore": 581,
            "waitTime": 7123.948511294857,
            "responseTime": 1678908597601,
            "catchQuestion": "How many <b class=\"r\">red<\/b> marbles did your opponent report drawing? ",
            "catchKey": -1,
            "catchResponse": -1,
            "catchTime": 1678908570848,
            "trialTime": 0
        },
        {
            "exptPart": "trial",
            "trialNumber": 68,
            "roleCurrent": "receiver",
            "marblesSampled": 100,
            "probRed": 0.5,
            "practiceLambda": 5,
            "trialLambda": 8.1,
            "instructedLambda": "dishonest_small",
            "drawnRed": 59,
            "reportedRed": 67,
            "inferredRed": 58,
            "playerTrialScore": -1,
            "oppTrialScore": 0,
            "playerTotalScore": -1146,
            "oppTotalScore": 581,
            "waitTime": 5260.372737289638,
            "responseTime": 1678908607567,
            "catchQuestion": "How many <b class=\"r\">red<\/b> marbles did your opponent report drawing? ",
            "catchKey": -1,
            "catchResponse": -1,
            "catchTime": 1678908570848,
            "trialTime": 0
        },
        {
            "exptPart": "trial",
            "trialNumber": 69,
            "roleCurrent": "receiver",
            "marblesSampled": 100,
            "probRed": 0.5,
            "practiceLambda": 5,
            "trialLambda": 8.1,
            "instructedLambda": "dishonest_small",
            "drawnRed": 35,
            "reportedRed": 47,
            "inferredRed": 58,
            "playerTrialScore": -23,
            "oppTrialScore": 23,
            "playerTotalScore": -1169,
            "oppTotalScore": 604,
            "waitTime": 5719.789695333543,
            "responseTime": 1678908620768,
            "catchQuestion": "How many <b class=\"r\">red<\/b> marbles did your opponent report drawing? ",
            "catchKey": -1,
            "catchResponse": -1,
            "catchTime": 1678908570848,
            "trialTime": 0
        },
        {
            "exptPart": "trial",
            "trialNumber": 70,
            "roleCurrent": "receiver",
            "marblesSampled": 100,
            "probRed": 0.5,
            "practiceLambda": 5,
            "trialLambda": 8.1,
            "instructedLambda": "dishonest_small",
            "drawnRed": 54,
            "reportedRed": 61,
            "inferredRed": 47,
            "playerTrialScore": -7,
            "oppTrialScore": 0,
            "playerTotalScore": -1176,
            "oppTotalScore": 604,
            "waitTime": 7038.654269454875,
            "responseTime": 1678908631056,
            "catchQuestion": "How many <b class=\"r\">red<\/b> marbles did your opponent report drawing? ",
            "catchKey": -1,
            "catchResponse": -1,
            "catchTime": 1678908631056,
            "trialTime": 0
        },
        {
            "exptPart": "trial",
            "trialNumber": 71,
            "roleCurrent": "receiver",
            "marblesSampled": 100,
            "probRed": 0.5,
            "practiceLambda": 5,
            "trialLambda": 8.1,
            "instructedLambda": "dishonest_small",
            "drawnRed": 27,
            "reportedRed": 39,
            "inferredRed": 61,
            "playerTrialScore": -34,
            "oppTrialScore": 34,
            "playerTotalScore": -1210,
            "oppTotalScore": 638,
            "waitTime": 6156.177821316314,
            "responseTime": 1678908642090,
            "catchQuestion": "How many <b class=\"r\">red<\/b> marbles did your opponent report drawing? ",
            "catchKey": -1,
            "catchResponse": -1,
            "catchTime": 1678908631056,
            "trialTime": 0
        },
        {
            "exptPart": "trial",
            "trialNumber": 72,
            "roleCurrent": "receiver",
            "marblesSampled": 100,
            "probRed": 0.5,
            "practiceLambda": 5,
            "trialLambda": 8.1,
            "instructedLambda": "dishonest_small",
            "drawnRed": 69,
            "reportedRed": 78,
            "inferredRed": 37,
            "playerTrialScore": -32,
            "oppTrialScore": 0,
            "playerTotalScore": -1242,
            "oppTotalScore": 638,
            "waitTime": 5405.374903384896,
            "responseTime": 1678908650415,
            "catchQuestion": "How many <b class=\"r\">red<\/b> marbles did your opponent report drawing? ",
            "catchKey": -1,
            "catchResponse": -1,
            "catchTime": 1678908631056,
            "trialTime": 0
        },
        {
            "exptPart": "trial",
            "trialNumber": 73,
            "roleCurrent": "receiver",
            "marblesSampled": 100,
            "probRed": 0.5,
            "practiceLambda": 5,
            "trialLambda": 8.1,
            "instructedLambda": "dishonest_small",
            "drawnRed": 28,
            "reportedRed": 34,
            "inferredRed": 78,
            "playerTrialScore": -50,
            "oppTrialScore": 50,
            "playerTotalScore": -1292,
            "oppTotalScore": 688,
            "waitTime": 6225.527238313511,
            "responseTime": 1678908659289,
            "catchQuestion": "How many <b class=\"r\">red<\/b> marbles did your opponent report drawing? ",
            "catchKey": 34,
            "catchResponse": 78,
            "catchTime": 1678908659289,
            "trialTime": 0
        },
        {
            "exptPart": "trial",
            "trialNumber": 74,
            "roleCurrent": "receiver",
            "marblesSampled": 100,
            "probRed": 0.5,
            "practiceLambda": 5,
            "trialLambda": 8.1,
            "instructedLambda": "dishonest_small",
            "drawnRed": 62,
            "reportedRed": 69,
            "inferredRed": 70,
            "playerTrialScore": -8,
            "oppTrialScore": 8,
            "playerTotalScore": -1300,
            "oppTotalScore": 696,
            "waitTime": 5760.298736097213,
            "responseTime": 1678908678885,
            "catchQuestion": "How many <b class=\"r\">red<\/b> marbles did your opponent report drawing? ",
            "catchKey": -1,
            "catchResponse": -1,
            "catchTime": 1678908659289,
            "trialTime": 0
        },
        {
            "exptPart": "trial",
            "trialNumber": 75,
            "roleCurrent": "receiver",
            "marblesSampled": 100,
            "probRed": 0.5,
            "practiceLambda": 5,
            "trialLambda": 8.1,
            "instructedLambda": "dishonest_small",
            "drawnRed": 33,
            "reportedRed": 39,
            "inferredRed": 68,
            "playerTrialScore": -35,
            "oppTrialScore": 35,
            "playerTotalScore": -1335,
            "oppTotalScore": 731,
            "waitTime": 6547.144346523574,
            "responseTime": 1678908688423,
            "catchQuestion": "How many <b class=\"r\">red<\/b> marbles did your opponent report drawing? ",
            "catchKey": -1,
            "catchResponse": -1,
            "catchTime": 1678908659289,
            "trialTime": 0
        },
        {
            "exptPart": "trial",
            "trialNumber": 76,
            "roleCurrent": "receiver",
            "marblesSampled": 100,
            "probRed": 0.5,
            "practiceLambda": 5,
            "trialLambda": 8.1,
            "instructedLambda": "dishonest_small",
            "drawnRed": 56,
            "reportedRed": 66,
            "inferredRed": 39,
            "playerTrialScore": -17,
            "oppTrialScore": 0,
            "playerTotalScore": -1352,
            "oppTotalScore": 731,
            "waitTime": 6192.786787561831,
            "responseTime": 1678908698347,
            "catchQuestion": "How many <b class=\"r\">red<\/b> marbles did your opponent report drawing? ",
            "catchKey": -1,
            "catchResponse": -1,
            "catchTime": 1678908659289,
            "trialTime": 0
        },
        {
            "exptPart": "trial",
            "trialNumber": 77,
            "roleCurrent": "receiver",
            "marblesSampled": 100,
            "probRed": 0.5,
            "practiceLambda": 5,
            "trialLambda": 8.1,
            "instructedLambda": "dishonest_small",
            "drawnRed": 53,
            "reportedRed": 62,
            "inferredRed": 66,
            "playerTrialScore": -13,
            "oppTrialScore": 13,
            "playerTotalScore": -1365,
            "oppTotalScore": 744,
            "waitTime": 5224.070043915633,
            "responseTime": 1678908706194,
            "catchQuestion": "How many <b class=\"r\">red<\/b> marbles did your opponent report drawing? ",
            "catchKey": -1,
            "catchResponse": -1,
            "catchTime": 1678908659289,
            "trialTime": 0
        },
        {
            "exptPart": "trial",
            "trialNumber": 78,
            "roleCurrent": "receiver",
            "marblesSampled": 100,
            "probRed": 0.5,
            "practiceLambda": 5,
            "trialLambda": 8.1,
            "instructedLambda": "dishonest_small",
            "drawnRed": 84,
            "reportedRed": 88,
            "inferredRed": 77,
            "playerTrialScore": -7,
            "oppTrialScore": 0,
            "playerTotalScore": -1372,
            "oppTotalScore": 744,
            "waitTime": 6946.849454786652,
            "responseTime": 1678908723262,
            "catchQuestion": "How many <b class=\"r\">red<\/b> marbles did your opponent report drawing? ",
            "catchKey": -1,
            "catchResponse": -1,
            "catchTime": 1678908659289,
            "trialTime": 0
        },
        {
            "exptPart": "trial",
            "trialNumber": 79,
            "roleCurrent": "receiver",
            "marblesSampled": 100,
            "probRed": 0.5,
            "practiceLambda": 5,
            "trialLambda": 8.1,
            "instructedLambda": "dishonest_small",
            "drawnRed": 58,
            "reportedRed": 61,
            "inferredRed": 88,
            "playerTrialScore": -30,
            "oppTrialScore": 30,
            "playerTotalScore": -1402,
            "oppTotalScore": 774,
            "waitTime": 6080.358392827644,
            "responseTime": 1678908732640,
            "catchQuestion": "How many <b class=\"r\">red<\/b> marbles did your opponent report drawing? ",
            "catchKey": 61,
            "catchResponse": 61,
            "catchTime": 1678908732640,
            "trialTime": 0
        },
        {
            "exptPart": "trial",
            "trialNumber": 80,
            "roleCurrent": "receiver",
            "marblesSampled": 100,
            "probRed": 0.5,
            "practiceLambda": 5,
            "trialLambda": 8.1,
            "instructedLambda": "dishonest_small",
            "drawnRed": 70,
            "reportedRed": 81,
            "inferredRed": 60,
            "playerTrialScore": -10,
            "oppTrialScore": 0,
            "playerTotalScore": -1412,
            "oppTotalScore": 774,
            "waitTime": 6404.153830136868,
            "responseTime": 1678908749153,
            "catchQuestion": "How many <b class=\"r\">red<\/b> marbles did your opponent report drawing? ",
            "catchKey": 81,
            "catchResponse": 81,
            "catchTime": 1678908749153,
            "trialTime": 0
        },
        {
            "exptPart": "trial",
            "trialNumber": 81,
            "roleCurrent": "receiver",
            "marblesSampled": 100,
            "probRed": 0.5,
            "practiceLambda": 5,
            "trialLambda": 8.1,
            "instructedLambda": "dishonest_small",
            "drawnRed": 69,
            "reportedRed": 79,
            "inferredRed": 80,
            "playerTrialScore": -11,
            "oppTrialScore": 11,
            "playerTotalScore": -1423,
            "oppTotalScore": 785,
            "waitTime": 5950.726158091956,
            "responseTime": 1678908763049,
            "catchQuestion": "How many <b class=\"r\">red<\/b> marbles did your opponent report drawing? ",
            "catchKey": -1,
            "catchResponse": -1,
            "catchTime": 1678908749153,
            "trialTime": 0
        },
        {
            "exptPart": "trial",
            "trialNumber": 82,
            "roleCurrent": "receiver",
            "marblesSampled": 100,
            "probRed": 0.5,
            "practiceLambda": 5,
            "trialLambda": 8.1,
            "instructedLambda": "dishonest_small",
            "drawnRed": 37,
            "reportedRed": 42,
            "inferredRed": 79,
            "playerTrialScore": -42,
            "oppTrialScore": 42,
            "playerTotalScore": -1465,
            "oppTotalScore": 827,
            "waitTime": 5460.754998099326,
            "responseTime": 1678908772613,
            "catchQuestion": "How many <b class=\"r\">red<\/b> marbles did your opponent report drawing? ",
            "catchKey": -1,
            "catchResponse": -1,
            "catchTime": 1678908749153,
            "trialTime": 0
        },
        {
            "exptPart": "trial",
            "trialNumber": 83,
            "roleCurrent": "receiver",
            "marblesSampled": 100,
            "probRed": 0.5,
            "practiceLambda": 5,
            "trialLambda": 8.1,
            "instructedLambda": "dishonest_small",
            "drawnRed": 58,
            "reportedRed": 63,
            "inferredRed": 65,
            "playerTrialScore": -7,
            "oppTrialScore": 7,
            "playerTotalScore": -1472,
            "oppTotalScore": 834,
            "waitTime": 5461.280133430495,
            "responseTime": 1678908807891,
            "catchQuestion": "How many <b class=\"r\">red<\/b> marbles did your opponent report drawing? ",
            "catchKey": -1,
            "catchResponse": -1,
            "catchTime": 1678908749153,
            "trialTime": 0
        },
        {
            "exptPart": "trial",
            "trialNumber": 84,
            "roleCurrent": "receiver",
            "marblesSampled": 100,
            "probRed": 0.5,
            "practiceLambda": 5,
            "trialLambda": 8.1,
            "instructedLambda": "dishonest_small",
            "drawnRed": 68,
            "reportedRed": 73,
            "inferredRed": 63,
            "playerTrialScore": -5,
            "oppTrialScore": 0,
            "playerTotalScore": -1477,
            "oppTotalScore": 834,
            "waitTime": 5396.813077278413,
            "responseTime": 1678908816618,
            "catchQuestion": "How many <b class=\"r\">red<\/b> marbles did your opponent report drawing? ",
            "catchKey": -1,
            "catchResponse": -1,
            "catchTime": 1678908749153,
            "trialTime": 0
        },
        {
            "exptPart": "trial",
            "trialNumber": 85,
            "roleCurrent": "receiver",
            "marblesSampled": 100,
            "probRed": 0.5,
            "practiceLambda": 5,
            "trialLambda": 8.1,
            "instructedLambda": "dishonest_small",
            "drawnRed": 47,
            "reportedRed": 54,
            "inferredRed": 73,
            "playerTrialScore": -26,
            "oppTrialScore": 26,
            "playerTotalScore": -1503,
            "oppTotalScore": 860,
            "waitTime": 5334.795701130541,
            "responseTime": 1678908825445,
            "catchQuestion": "How many <b class=\"r\">red<\/b> marbles did your opponent report drawing? ",
            "catchKey": -1,
            "catchResponse": -1,
            "catchTime": 1678908749153,
            "trialTime": 0
        },
        {
            "exptPart": "trial",
            "trialNumber": 86,
            "roleCurrent": "receiver",
            "marblesSampled": 100,
            "probRed": 0.5,
            "practiceLambda": 5,
            "trialLambda": 8.1,
            "instructedLambda": "dishonest_small",
            "drawnRed": 67,
            "reportedRed": 74,
            "inferredRed": 54,
            "playerTrialScore": -13,
            "oppTrialScore": 0,
            "playerTotalScore": -1516,
            "oppTotalScore": 860,
            "waitTime": 7428.279850058024,
            "responseTime": 1678908835902,
            "catchQuestion": "How many <b class=\"r\">red<\/b> marbles did your opponent report drawing? ",
            "catchKey": -1,
            "catchResponse": -1,
            "catchTime": 1678908749153,
            "trialTime": 0
        },
        {
            "exptPart": "trial",
            "trialNumber": 87,
            "roleCurrent": "receiver",
            "marblesSampled": 100,
            "probRed": 0.5,
            "practiceLambda": 5,
            "trialLambda": 8.1,
            "instructedLambda": "dishonest_small",
            "drawnRed": 56,
            "reportedRed": 61,
            "inferredRed": 75,
            "playerTrialScore": -19,
            "oppTrialScore": 19,
            "playerTotalScore": -1535,
            "oppTotalScore": 879,
            "waitTime": 6362.101299652863,
            "responseTime": 1678908845372,
            "catchQuestion": "How many <b class=\"r\">red<\/b> marbles did your opponent report drawing? ",
            "catchKey": -1,
            "catchResponse": -1,
            "catchTime": 1678908749153,
            "trialTime": 0
        },
        {
            "exptPart": "trial",
            "trialNumber": 88,
            "roleCurrent": "receiver",
            "marblesSampled": 100,
            "probRed": 0.5,
            "practiceLambda": 5,
            "trialLambda": 8.1,
            "instructedLambda": "dishonest_small",
            "drawnRed": 76,
            "reportedRed": 85,
            "inferredRed": 65,
            "playerTrialScore": -11,
            "oppTrialScore": 0,
            "playerTotalScore": -1546,
            "oppTotalScore": 879,
            "waitTime": 6806.587574128069,
            "responseTime": 1678908855520,
            "catchQuestion": "How many <b class=\"r\">red<\/b> marbles did your opponent report drawing? ",
            "catchKey": -1,
            "catchResponse": -1,
            "catchTime": 1678908749153,
            "trialTime": 0
        },
        {
            "exptPart": "trial",
            "trialNumber": 89,
            "roleCurrent": "receiver",
            "marblesSampled": 100,
            "probRed": 0.5,
            "practiceLambda": 5,
            "trialLambda": 8.1,
            "instructedLambda": "dishonest_small",
            "drawnRed": 23,
            "reportedRed": 32,
            "inferredRed": 85,
            "playerTrialScore": -62,
            "oppTrialScore": 62,
            "playerTotalScore": -1608,
            "oppTotalScore": 941,
            "waitTime": 7418.849791118397,
            "responseTime": 1678908866608,
            "catchQuestion": "How many <b class=\"r\">red<\/b> marbles did your opponent report drawing? ",
            "catchKey": -1,
            "catchResponse": -1,
            "catchTime": 1678908749153,
            "trialTime": 0
        },
        {
            "exptPart": "trial",
            "trialNumber": 90,
            "roleCurrent": "receiver",
            "marblesSampled": 100,
            "probRed": 0.5,
            "practiceLambda": 5,
            "trialLambda": 8.1,
            "instructedLambda": "dishonest_small",
            "drawnRed": 40,
            "reportedRed": 48,
            "inferredRed": 32,
            "playerTrialScore": -8,
            "oppTrialScore": 0,
            "playerTotalScore": -1616,
            "oppTotalScore": 941,
            "waitTime": 6149.116018128174,
            "responseTime": 1678908875495,
            "catchQuestion": "How many <b class=\"r\">red<\/b> marbles did your opponent report drawing? ",
            "catchKey": -1,
            "catchResponse": -1,
            "catchTime": 1678908875495,
            "trialTime": 0
        },
        {
            "exptPart": "trial",
            "trialNumber": 91,
            "roleCurrent": "receiver",
            "marblesSampled": 100,
            "probRed": 0.5,
            "practiceLambda": 5,
            "trialLambda": 8.1,
            "instructedLambda": "dishonest_small",
            "drawnRed": 76,
            "reportedRed": 89,
            "inferredRed": 48,
            "playerTrialScore": -28,
            "oppTrialScore": 0,
            "playerTotalScore": -1644,
            "oppTotalScore": 941,
            "waitTime": 5715.711217460547,
            "responseTime": 1678908885881,
            "catchQuestion": "How many <b class=\"r\">red<\/b> marbles did your opponent report drawing? ",
            "catchKey": -1,
            "catchResponse": -1,
            "catchTime": 1678908875495,
            "trialTime": 0
        },
        {
            "exptPart": "trial",
            "trialNumber": 92,
            "roleCurrent": "receiver",
            "marblesSampled": 100,
            "probRed": 0.5,
            "practiceLambda": 5,
            "trialLambda": 8.1,
            "instructedLambda": "dishonest_small",
            "drawnRed": 75,
            "reportedRed": 86,
            "inferredRed": 89,
            "playerTrialScore": -14,
            "oppTrialScore": 14,
            "playerTotalScore": -1658,
            "oppTotalScore": 955,
            "waitTime": 5363.774822541763,
            "responseTime": 1678908894180,
            "catchQuestion": "How many <b class=\"r\">red<\/b> marbles did your opponent report drawing? ",
            "catchKey": -1,
            "catchResponse": -1,
            "catchTime": 1678908875495,
            "trialTime": 0
        },
        {
            "exptPart": "trial",
            "trialNumber": 93,
            "roleCurrent": "receiver",
            "marblesSampled": 100,
            "probRed": 0.5,
            "practiceLambda": 5,
            "trialLambda": 8.1,
            "instructedLambda": "dishonest_small",
            "drawnRed": 47,
            "reportedRed": 52,
            "inferredRed": 86,
            "playerTrialScore": -39,
            "oppTrialScore": 39,
            "playerTotalScore": -1697,
            "oppTotalScore": 994,
            "waitTime": 5829.460198036744,
            "responseTime": 1678908903219,
            "catchQuestion": "How many <b class=\"r\">red<\/b> marbles did your opponent report drawing? ",
            "catchKey": -1,
            "catchResponse": -1,
            "catchTime": 1678908875495,
            "trialTime": 0
        },
        {
            "exptPart": "trial",
            "trialNumber": 94,
            "roleCurrent": "receiver",
            "marblesSampled": 100,
            "probRed": 0.5,
            "practiceLambda": 5,
            "trialLambda": 8.1,
            "instructedLambda": "dishonest_small",
            "drawnRed": 54,
            "reportedRed": 57,
            "inferredRed": 52,
            "playerTrialScore": -2,
            "oppTrialScore": 0,
            "playerTotalScore": -1699,
            "oppTotalScore": 994,
            "waitTime": 5580.344835044676,
            "responseTime": 1678908911551,
            "catchQuestion": "How many <b class=\"r\">red<\/b> marbles did your opponent report drawing? ",
            "catchKey": -1,
            "catchResponse": -1,
            "catchTime": 1678908875495,
            "trialTime": 0
        },
        {
            "exptPart": "trial",
            "trialNumber": 95,
            "roleCurrent": "receiver",
            "marblesSampled": 100,
            "probRed": 0.5,
            "practiceLambda": 5,
            "trialLambda": 8.1,
            "instructedLambda": "dishonest_small",
            "drawnRed": 66,
            "reportedRed": 70,
            "inferredRed": 57,
            "playerTrialScore": -9,
            "oppTrialScore": 0,
            "playerTotalScore": -1708,
            "oppTotalScore": 994,
            "waitTime": 5331.89126369075,
            "responseTime": 1678908920181,
            "catchQuestion": "How many <b class=\"r\">red<\/b> marbles did your opponent report drawing? ",
            "catchKey": -1,
            "catchResponse": -1,
            "catchTime": 1678908875495,
            "trialTime": 0
        },
        {
            "exptPart": "trial",
            "trialNumber": 96,
            "roleCurrent": "receiver",
            "marblesSampled": 100,
            "probRed": 0.5,
            "practiceLambda": 5,
            "trialLambda": 8.1,
            "instructedLambda": "dishonest_small",
            "drawnRed": 55,
            "reportedRed": 64,
            "inferredRed": 70,
            "playerTrialScore": -15,
            "oppTrialScore": 15,
            "playerTotalScore": -1723,
            "oppTotalScore": 1009,
            "waitTime": 6162.763726313413,
            "responseTime": 1678908929012,
            "catchQuestion": "How many <b class=\"r\">red<\/b> marbles did your opponent report drawing? ",
            "catchKey": 64,
            "catchResponse": 55,
            "catchTime": 1678908929012,
            "trialTime": 0
        },
        {
            "exptPart": "trial",
            "trialNumber": 97,
            "roleCurrent": "receiver",
            "marblesSampled": 100,
            "probRed": 0.5,
            "practiceLambda": 5,
            "trialLambda": 8.1,
            "instructedLambda": "dishonest_small",
            "drawnRed": 32,
            "reportedRed": 36,
            "inferredRed": 57,
            "playerTrialScore": -25,
            "oppTrialScore": 25,
            "playerTotalScore": -1748,
            "oppTotalScore": 1034,
            "waitTime": 5813.538813234565,
            "responseTime": 1678908948367,
            "catchQuestion": "How many <b class=\"r\">red<\/b> marbles did your opponent report drawing? ",
            "catchKey": 36,
            "catchResponse": 36,
            "catchTime": 1678908948367,
            "trialTime": 0
        },
        {
            "exptPart": "trial",
            "trialNumber": 98,
            "roleCurrent": "receiver",
            "marblesSampled": 100,
            "probRed": 0.5,
            "practiceLambda": 5,
            "trialLambda": 8.1,
            "instructedLambda": "dishonest_small",
            "drawnRed": 43,
            "reportedRed": 47,
            "inferredRed": 50,
            "playerTrialScore": -7,
            "oppTrialScore": 7,
            "playerTotalScore": -1755,
            "oppTotalScore": 1041,
            "waitTime": 6071.763806465461,
            "responseTime": 1678908962351,
            "catchQuestion": "How many <b class=\"r\">red<\/b> marbles did your opponent report drawing? ",
            "catchKey": -1,
            "catchResponse": -1,
            "catchTime": 1678908948367,
            "trialTime": 0
        },
        {
            "exptPart": "trial",
            "trialNumber": 99,
            "roleCurrent": "receiver",
            "marblesSampled": 100,
            "probRed": 0.5,
            "practiceLambda": 5,
            "trialLambda": 8.1,
            "instructedLambda": "dishonest_small",
            "drawnRed": 33,
            "reportedRed": 40,
            "inferredRed": 47,
            "playerTrialScore": -14,
            "oppTrialScore": 14,
            "playerTotalScore": -1769,
            "oppTotalScore": 1055,
            "waitTime": 7251.3212524140645,
            "responseTime": 1678908973160,
            "catchQuestion": "How many <b class=\"r\">red<\/b> marbles did your opponent report drawing? ",
            "catchKey": -1,
            "catchResponse": -1,
            "catchTime": 1678908948367,
            "trialTime": 0
        },
        {
            "exptPart": "trial",
            "trialNumber": 100,
            "roleCurrent": "receiver",
            "marblesSampled": 100,
            "probRed": 0.5,
            "practiceLambda": 5,
            "trialLambda": 8.1,
            "instructedLambda": "dishonest_small",
            "drawnRed": 67,
            "reportedRed": 73,
            "inferredRed": 40,
            "playerTrialScore": -27,
            "oppTrialScore": 0,
            "playerTotalScore": -1796,
            "oppTotalScore": 1055,
            "waitTime": 5765.803421458513,
            "responseTime": 1678908982007,
            "catchQuestion": "How many <b class=\"r\">red<\/b> marbles did your opponent report drawing? ",
            "catchKey": -1,
            "catchResponse": -1,
            "catchTime": 1678908982007,
            "trialTime": 0
        }
    ]
}