{
    "client": {
        "type": "sona",
        "experiment_id": 2228,
        "credit_token": "b315147ae43241ea9c65086cb510cfb7",
        "survey_code": "42206",
        "sid": "sona-42206",
        "window": {
            "width": 1330,
            "height": 708
        },
        "screen": {
            "width": 1440,
            "height": 900
        },
        "userAgent": "Mozilla\/5.0 (Macintosh; Intel Mac OS X 10_15_7) AppleWebKit\/537.36 (KHTML, like Gecko) Chrome\/111.0.0.0 Safari\/537.36",
        "score": 0,
        "bonus": 0
    },
    "expt": {
        "saveURL": "submit.simple.php",
        "trials": 100,
        "practiceTrials": 2,
        "marblesSampled": 100,
        "probRed": 0.5,
        "practiceLambdaAI": 5,
        "lambdaAI": 0.3,
        "roles": [
            "sender",
            "receiver"
        ],
        "cost": "unif",
        "goal": "over",
        "oppDishonesty": "dishonest_big",
        "catchTrials": [
            54,
            18,
            55,
            59,
            47,
            85,
            14,
            36,
            60,
            75
        ],
        "scoreTotal": {
            "player": -815,
            "opp": 2
        },
        "sona": {
            "experiment_id": 2228,
            "credit_token": "b315147ae43241ea9c65086cb510cfb7"
        },
        "pilot": false,
        "debug": false
    },
    "trials": [
        {
            "exptPart": "practice",
            "trialNumber": 1,
            "roleCurrent": "sender",
            "marblesSampled": 100,
            "probRed": 0.5,
            "practiceLambda": 5,
            "trialLambda": 0.3,
            "instructedLambda": "dishonest_big",
            "drawnRed": 64,
            "reportedRed": 69,
            "inferredRed": 66,
            "playerTrialScore": 2,
            "oppTrialScore": -2,
            "playerTotalScore": 2,
            "oppTotalScore": -2,
            "waitTime": 3172.428347037294,
            "responseTime": 1680898570925,
            "catchQuestion": "How many <b class=\"r\">red<\/b> marbles did you actually draw (before any changes)? ",
            "catchKey": 64,
            "catchResponse": 64,
            "catchTime": 1680898570925,
            "trialTime": 0
        },
        {
            "exptPart": "practice",
            "trialNumber": 2,
            "roleCurrent": "receiver",
            "marblesSampled": 100,
            "probRed": 0.5,
            "practiceLambda": 5,
            "trialLambda": 0.3,
            "instructedLambda": "dishonest_big",
            "drawnRed": 58,
            "reportedRed": 63,
            "inferredRed": 60,
            "playerTrialScore": -2,
            "oppTrialScore": 2,
            "playerTotalScore": 0,
            "oppTotalScore": 0,
            "waitTime": 5419.4620419940165,
            "responseTime": 1680898615527,
            "catchQuestion": "How many <b class=\"r\">red<\/b> marbles did your opponent report drawing? ",
            "catchKey": 63,
            "catchResponse": 63,
            "catchTime": 1680898615527,
            "trialTime": 0
        },
        {
            "exptPart": "trial",
            "trialNumber": 1,
            "roleCurrent": "receiver",
            "marblesSampled": 100,
            "probRed": 0.5,
            "practiceLambda": 5,
            "trialLambda": 0.3,
            "instructedLambda": "dishonest_big",
            "drawnRed": 39,
            "reportedRed": 39,
            "inferredRed": 40,
            "playerTrialScore": -1,
            "oppTrialScore": 1,
            "playerTotalScore": -1,
            "oppTotalScore": 1,
            "waitTime": 5935.504806762761,
            "responseTime": 1680898675449,
            "catchQuestion": "How many <b class=\"r\">red<\/b> marbles did your opponent report drawing? ",
            "catchKey": -1,
            "catchResponse": -1,
            "catchTime": 1680898615527,
            "trialTime": 0
        },
        {
            "exptPart": "trial",
            "trialNumber": 2,
            "roleCurrent": "receiver",
            "marblesSampled": 100,
            "probRed": 0.5,
            "practiceLambda": 5,
            "trialLambda": 0.3,
            "instructedLambda": "dishonest_big",
            "drawnRed": 78,
            "reportedRed": 78,
            "inferredRed": 50,
            "playerTrialScore": -28,
            "oppTrialScore": 0,
            "playerTotalScore": -29,
            "oppTotalScore": 1,
            "waitTime": 5507.865952989821,
            "responseTime": 1680898691853,
            "catchQuestion": "How many <b class=\"r\">red<\/b> marbles did your opponent report drawing? ",
            "catchKey": -1,
            "catchResponse": -1,
            "catchTime": 1680898615527,
            "trialTime": 0
        },
        {
            "exptPart": "trial",
            "trialNumber": 3,
            "roleCurrent": "receiver",
            "marblesSampled": 100,
            "probRed": 0.5,
            "practiceLambda": 5,
            "trialLambda": 0.3,
            "instructedLambda": "dishonest_big",
            "drawnRed": 35,
            "reportedRed": 36,
            "inferredRed": 30,
            "playerTrialScore": -5,
            "oppTrialScore": 0,
            "playerTotalScore": -34,
            "oppTotalScore": 1,
            "waitTime": 5690.566302846772,
            "responseTime": 1680898710773,
            "catchQuestion": "How many <b class=\"r\">red<\/b> marbles did your opponent report drawing? ",
            "catchKey": -1,
            "catchResponse": -1,
            "catchTime": 1680898615527,
            "trialTime": 0
        },
        {
            "exptPart": "trial",
            "trialNumber": 4,
            "roleCurrent": "receiver",
            "marblesSampled": 100,
            "probRed": 0.5,
            "practiceLambda": 5,
            "trialLambda": 0.3,
            "instructedLambda": "dishonest_big",
            "drawnRed": 35,
            "reportedRed": 36,
            "inferredRed": 30,
            "playerTrialScore": -5,
            "oppTrialScore": 0,
            "playerTotalScore": -39,
            "oppTotalScore": 1,
            "waitTime": 6078.601905590825,
            "responseTime": 1680898726824,
            "catchQuestion": "How many <b class=\"r\">red<\/b> marbles did your opponent report drawing? ",
            "catchKey": -1,
            "catchResponse": -1,
            "catchTime": 1680898615527,
            "trialTime": 0
        },
        {
            "exptPart": "trial",
            "trialNumber": 5,
            "roleCurrent": "receiver",
            "marblesSampled": 100,
            "probRed": 0.5,
            "practiceLambda": 5,
            "trialLambda": 0.3,
            "instructedLambda": "dishonest_big",
            "drawnRed": 52,
            "reportedRed": 53,
            "inferredRed": 48,
            "playerTrialScore": -4,
            "oppTrialScore": 0,
            "playerTotalScore": -43,
            "oppTotalScore": 1,
            "waitTime": 5614.215798365389,
            "responseTime": 1680898740238,
            "catchQuestion": "How many <b class=\"r\">red<\/b> marbles did your opponent report drawing? ",
            "catchKey": -1,
            "catchResponse": -1,
            "catchTime": 1680898615527,
            "trialTime": 0
        },
        {
            "exptPart": "trial",
            "trialNumber": 6,
            "roleCurrent": "receiver",
            "marblesSampled": 100,
            "probRed": 0.5,
            "practiceLambda": 5,
            "trialLambda": 0.3,
            "instructedLambda": "dishonest_big",
            "drawnRed": 31,
            "reportedRed": 31,
            "inferredRed": 30,
            "playerTrialScore": -1,
            "oppTrialScore": 0,
            "playerTotalScore": -44,
            "oppTotalScore": 1,
            "waitTime": 6664.457646844205,
            "responseTime": 1680898754102,
            "catchQuestion": "How many <b class=\"r\">red<\/b> marbles did your opponent report drawing? ",
            "catchKey": -1,
            "catchResponse": -1,
            "catchTime": 1680898615527,
            "trialTime": 0
        },
        {
            "exptPart": "trial",
            "trialNumber": 7,
            "roleCurrent": "receiver",
            "marblesSampled": 100,
            "probRed": 0.5,
            "practiceLambda": 5,
            "trialLambda": 0.3,
            "instructedLambda": "dishonest_big",
            "drawnRed": 72,
            "reportedRed": 72,
            "inferredRed": 50,
            "playerTrialScore": -22,
            "oppTrialScore": 0,
            "playerTotalScore": -66,
            "oppTotalScore": 1,
            "waitTime": 6060.093277181511,
            "responseTime": 1680898765183,
            "catchQuestion": "How many <b class=\"r\">red<\/b> marbles did your opponent report drawing? ",
            "catchKey": -1,
            "catchResponse": -1,
            "catchTime": 1680898615527,
            "trialTime": 0
        },
        {
            "exptPart": "trial",
            "trialNumber": 8,
            "roleCurrent": "receiver",
            "marblesSampled": 100,
            "probRed": 0.5,
            "practiceLambda": 5,
            "trialLambda": 0.3,
            "instructedLambda": "dishonest_big",
            "drawnRed": 22,
            "reportedRed": 24,
            "inferredRed": 20,
            "playerTrialScore": -2,
            "oppTrialScore": 0,
            "playerTotalScore": -68,
            "oppTotalScore": 1,
            "waitTime": 6532.000152863614,
            "responseTime": 1680898777981,
            "catchQuestion": "How many <b class=\"r\">red<\/b> marbles did your opponent report drawing? ",
            "catchKey": -1,
            "catchResponse": -1,
            "catchTime": 1680898615527,
            "trialTime": 0
        },
        {
            "exptPart": "trial",
            "trialNumber": 9,
            "roleCurrent": "receiver",
            "marblesSampled": 100,
            "probRed": 0.5,
            "practiceLambda": 5,
            "trialLambda": 0.3,
            "instructedLambda": "dishonest_big",
            "drawnRed": 51,
            "reportedRed": 51,
            "inferredRed": 30,
            "playerTrialScore": -21,
            "oppTrialScore": 0,
            "playerTotalScore": -89,
            "oppTotalScore": 1,
            "waitTime": 5285.678215012125,
            "responseTime": 1680898794690,
            "catchQuestion": "How many <b class=\"r\">red<\/b> marbles did your opponent report drawing? ",
            "catchKey": -1,
            "catchResponse": -1,
            "catchTime": 1680898615527,
            "trialTime": 0
        },
        {
            "exptPart": "trial",
            "trialNumber": 10,
            "roleCurrent": "receiver",
            "marblesSampled": 100,
            "probRed": 0.5,
            "practiceLambda": 5,
            "trialLambda": 0.3,
            "instructedLambda": "dishonest_big",
            "drawnRed": 78,
            "reportedRed": 78,
            "inferredRed": 50,
            "playerTrialScore": -28,
            "oppTrialScore": 0,
            "playerTotalScore": -117,
            "oppTotalScore": 1,
            "waitTime": 6202.763268416697,
            "responseTime": 1680898805817,
            "catchQuestion": "How many <b class=\"r\">red<\/b> marbles did your opponent report drawing? ",
            "catchKey": -1,
            "catchResponse": -1,
            "catchTime": 1680898805817,
            "trialTime": 0
        },
        {
            "exptPart": "trial",
            "trialNumber": 11,
            "roleCurrent": "receiver",
            "marblesSampled": 100,
            "probRed": 0.5,
            "practiceLambda": 5,
            "trialLambda": 0.3,
            "instructedLambda": "dishonest_big",
            "drawnRed": 44,
            "reportedRed": 44,
            "inferredRed": 10,
            "playerTrialScore": -34,
            "oppTrialScore": 0,
            "playerTotalScore": -151,
            "oppTotalScore": 1,
            "waitTime": 5490.200068319167,
            "responseTime": 1680898829780,
            "catchQuestion": "How many <b class=\"r\">red<\/b> marbles did your opponent report drawing? ",
            "catchKey": -1,
            "catchResponse": -1,
            "catchTime": 1680898805817,
            "trialTime": 0
        },
        {
            "exptPart": "trial",
            "trialNumber": 12,
            "roleCurrent": "receiver",
            "marblesSampled": 100,
            "probRed": 0.5,
            "practiceLambda": 5,
            "trialLambda": 0.3,
            "instructedLambda": "dishonest_big",
            "drawnRed": 42,
            "reportedRed": 42,
            "inferredRed": 10,
            "playerTrialScore": -32,
            "oppTrialScore": 0,
            "playerTotalScore": -183,
            "oppTotalScore": 1,
            "waitTime": 5894.461519397907,
            "responseTime": 1680898838300,
            "catchQuestion": "How many <b class=\"r\">red<\/b> marbles did your opponent report drawing? ",
            "catchKey": -1,
            "catchResponse": -1,
            "catchTime": 1680898805817,
            "trialTime": 0
        },
        {
            "exptPart": "trial",
            "trialNumber": 13,
            "roleCurrent": "receiver",
            "marblesSampled": 100,
            "probRed": 0.5,
            "practiceLambda": 5,
            "trialLambda": 0.3,
            "instructedLambda": "dishonest_big",
            "drawnRed": 79,
            "reportedRed": 79,
            "inferredRed": 10,
            "playerTrialScore": -69,
            "oppTrialScore": 0,
            "playerTotalScore": -252,
            "oppTotalScore": 1,
            "waitTime": 6041.851103883255,
            "responseTime": 1680898852447,
            "catchQuestion": "How many <b class=\"r\">red<\/b> marbles did your opponent report drawing? ",
            "catchKey": -1,
            "catchResponse": -1,
            "catchTime": 1680898805817,
            "trialTime": 0
        },
        {
            "exptPart": "trial",
            "trialNumber": 14,
            "roleCurrent": "receiver",
            "marblesSampled": 100,
            "probRed": 0.5,
            "practiceLambda": 5,
            "trialLambda": 0.3,
            "instructedLambda": "dishonest_big",
            "drawnRed": 35,
            "reportedRed": 35,
            "inferredRed": 10,
            "playerTrialScore": -25,
            "oppTrialScore": 0,
            "playerTotalScore": -277,
            "oppTotalScore": 1,
            "waitTime": 5945.546013040198,
            "responseTime": 1680898861438,
            "catchQuestion": "How many <b class=\"r\">red<\/b> marbles did your opponent report drawing? ",
            "catchKey": -1,
            "catchResponse": -1,
            "catchTime": 1680898805817,
            "trialTime": 0
        },
        {
            "exptPart": "trial",
            "trialNumber": 15,
            "roleCurrent": "receiver",
            "marblesSampled": 100,
            "probRed": 0.5,
            "practiceLambda": 5,
            "trialLambda": 0.3,
            "instructedLambda": "dishonest_big",
            "drawnRed": 40,
            "reportedRed": 40,
            "inferredRed": 10,
            "playerTrialScore": -30,
            "oppTrialScore": 0,
            "playerTotalScore": -307,
            "oppTotalScore": 1,
            "waitTime": 5328.4009149422745,
            "responseTime": 1680898870374,
            "catchQuestion": "How many <b class=\"r\">red<\/b> marbles did your opponent report drawing? ",
            "catchKey": 40,
            "catchResponse": 40,
            "catchTime": 1680898870374,
            "trialTime": 0
        },
        {
            "exptPart": "trial",
            "trialNumber": 16,
            "roleCurrent": "receiver",
            "marblesSampled": 100,
            "probRed": 0.5,
            "practiceLambda": 5,
            "trialLambda": 0.3,
            "instructedLambda": "dishonest_big",
            "drawnRed": 63,
            "reportedRed": 64,
            "inferredRed": 58,
            "playerTrialScore": -5,
            "oppTrialScore": 0,
            "playerTotalScore": -312,
            "oppTotalScore": 1,
            "waitTime": 6331.075897970741,
            "responseTime": 1680898902930,
            "catchQuestion": "How many <b class=\"r\">red<\/b> marbles did your opponent report drawing? ",
            "catchKey": -1,
            "catchResponse": -1,
            "catchTime": 1680898870374,
            "trialTime": 0
        },
        {
            "exptPart": "trial",
            "trialNumber": 17,
            "roleCurrent": "receiver",
            "marblesSampled": 100,
            "probRed": 0.5,
            "practiceLambda": 5,
            "trialLambda": 0.3,
            "instructedLambda": "dishonest_big",
            "drawnRed": 47,
            "reportedRed": 48,
            "inferredRed": 48,
            "playerTrialScore": -1,
            "oppTrialScore": 1,
            "playerTotalScore": -313,
            "oppTotalScore": 2,
            "waitTime": 5587.619793043047,
            "responseTime": 1680898913841,
            "catchQuestion": "How many <b class=\"r\">red<\/b> marbles did your opponent report drawing? ",
            "catchKey": -1,
            "catchResponse": -1,
            "catchTime": 1680898870374,
            "trialTime": 0
        },
        {
            "exptPart": "trial",
            "trialNumber": 18,
            "roleCurrent": "receiver",
            "marblesSampled": 100,
            "probRed": 0.5,
            "practiceLambda": 5,
            "trialLambda": 0.3,
            "instructedLambda": "dishonest_big",
            "drawnRed": 78,
            "reportedRed": 78,
            "inferredRed": 58,
            "playerTrialScore": -20,
            "oppTrialScore": 0,
            "playerTotalScore": -333,
            "oppTotalScore": 2,
            "waitTime": 7185.969233429624,
            "responseTime": 1680898932438,
            "catchQuestion": "How many <b class=\"r\">red<\/b> marbles did your opponent report drawing? ",
            "catchKey": -1,
            "catchResponse": -1,
            "catchTime": 1680898870374,
            "trialTime": 0
        },
        {
            "exptPart": "trial",
            "trialNumber": 19,
            "roleCurrent": "receiver",
            "marblesSampled": 100,
            "probRed": 0.5,
            "practiceLambda": 5,
            "trialLambda": 0.3,
            "instructedLambda": "dishonest_big",
            "drawnRed": 23,
            "reportedRed": 23,
            "inferredRed": 23,
            "playerTrialScore": 0,
            "oppTrialScore": 0,
            "playerTotalScore": -333,
            "oppTotalScore": 2,
            "waitTime": 6326.536871569496,
            "responseTime": 1680898949035,
            "catchQuestion": "How many <b class=\"r\">red<\/b> marbles did your opponent report drawing? ",
            "catchKey": 23,
            "catchResponse": 23,
            "catchTime": 1680898949035,
            "trialTime": 0
        },
        {
            "exptPart": "trial",
            "trialNumber": 20,
            "roleCurrent": "receiver",
            "marblesSampled": 100,
            "probRed": 0.5,
            "practiceLambda": 5,
            "trialLambda": 0.3,
            "instructedLambda": "dishonest_big",
            "drawnRed": 17,
            "reportedRed": 17,
            "inferredRed": 17,
            "playerTrialScore": 0,
            "oppTrialScore": 0,
            "playerTotalScore": -333,
            "oppTotalScore": 2,
            "waitTime": 5163.98201294552,
            "responseTime": 1680898963780,
            "catchQuestion": "How many <b class=\"r\">red<\/b> marbles did your opponent report drawing? ",
            "catchKey": -1,
            "catchResponse": -1,
            "catchTime": 1680898963780,
            "trialTime": 0
        },
        {
            "exptPart": "trial",
            "trialNumber": 21,
            "roleCurrent": "receiver",
            "marblesSampled": 100,
            "probRed": 0.5,
            "practiceLambda": 5,
            "trialLambda": 0.3,
            "instructedLambda": "dishonest_big",
            "drawnRed": 45,
            "reportedRed": 46,
            "inferredRed": 43,
            "playerTrialScore": -2,
            "oppTrialScore": 0,
            "playerTotalScore": -335,
            "oppTotalScore": 2,
            "waitTime": 6829.029901925778,
            "responseTime": 1680898981498,
            "catchQuestion": "How many <b class=\"r\">red<\/b> marbles did your opponent report drawing? ",
            "catchKey": -1,
            "catchResponse": -1,
            "catchTime": 1680898963780,
            "trialTime": 0
        },
        {
            "exptPart": "trial",
            "trialNumber": 22,
            "roleCurrent": "receiver",
            "marblesSampled": 100,
            "probRed": 0.5,
            "practiceLambda": 5,
            "trialLambda": 0.3,
            "instructedLambda": "dishonest_big",
            "drawnRed": 18,
            "reportedRed": 19,
            "inferredRed": 15,
            "playerTrialScore": -3,
            "oppTrialScore": 0,
            "playerTotalScore": -338,
            "oppTotalScore": 2,
            "waitTime": 5177.672718546828,
            "responseTime": 1680898992132,
            "catchQuestion": "How many <b class=\"r\">red<\/b> marbles did your opponent report drawing? ",
            "catchKey": -1,
            "catchResponse": -1,
            "catchTime": 1680898963780,
            "trialTime": 0
        },
        {
            "exptPart": "trial",
            "trialNumber": 23,
            "roleCurrent": "receiver",
            "marblesSampled": 100,
            "probRed": 0.5,
            "practiceLambda": 5,
            "trialLambda": 0.3,
            "instructedLambda": "dishonest_big",
            "drawnRed": 82,
            "reportedRed": 82,
            "inferredRed": 70,
            "playerTrialScore": -12,
            "oppTrialScore": 0,
            "playerTotalScore": -350,
            "oppTotalScore": 2,
            "waitTime": 5162.141093849107,
            "responseTime": 1680899009843,
            "catchQuestion": "How many <b class=\"r\">red<\/b> marbles did your opponent report drawing? ",
            "catchKey": -1,
            "catchResponse": -1,
            "catchTime": 1680898963780,
            "trialTime": 0
        },
        {
            "exptPart": "trial",
            "trialNumber": 24,
            "roleCurrent": "receiver",
            "marblesSampled": 100,
            "probRed": 0.5,
            "practiceLambda": 5,
            "trialLambda": 0.3,
            "instructedLambda": "dishonest_big",
            "drawnRed": 56,
            "reportedRed": 58,
            "inferredRed": 48,
            "playerTrialScore": -8,
            "oppTrialScore": 0,
            "playerTotalScore": -358,
            "oppTotalScore": 2,
            "waitTime": 6498.159871158382,
            "responseTime": 1680899029245,
            "catchQuestion": "How many <b class=\"r\">red<\/b> marbles did your opponent report drawing? ",
            "catchKey": -1,
            "catchResponse": -1,
            "catchTime": 1680898963780,
            "trialTime": 0
        },
        {
            "exptPart": "trial",
            "trialNumber": 25,
            "roleCurrent": "receiver",
            "marblesSampled": 100,
            "probRed": 0.5,
            "practiceLambda": 5,
            "trialLambda": 0.3,
            "instructedLambda": "dishonest_big",
            "drawnRed": 74,
            "reportedRed": 74,
            "inferredRed": 68,
            "playerTrialScore": -6,
            "oppTrialScore": 0,
            "playerTotalScore": -364,
            "oppTotalScore": 2,
            "waitTime": 5522.340458853054,
            "responseTime": 1680899039053,
            "catchQuestion": "How many <b class=\"r\">red<\/b> marbles did your opponent report drawing? ",
            "catchKey": -1,
            "catchResponse": -1,
            "catchTime": 1680898963780,
            "trialTime": 0
        },
        {
            "exptPart": "trial",
            "trialNumber": 26,
            "roleCurrent": "receiver",
            "marblesSampled": 100,
            "probRed": 0.5,
            "practiceLambda": 5,
            "trialLambda": 0.3,
            "instructedLambda": "dishonest_big",
            "drawnRed": 25,
            "reportedRed": 25,
            "inferredRed": 25,
            "playerTrialScore": 0,
            "oppTrialScore": 0,
            "playerTotalScore": -364,
            "oppTotalScore": 2,
            "waitTime": 6326.0285955978625,
            "responseTime": 1680899052491,
            "catchQuestion": "How many <b class=\"r\">red<\/b> marbles did your opponent report drawing? ",
            "catchKey": -1,
            "catchResponse": -1,
            "catchTime": 1680898963780,
            "trialTime": 0
        },
        {
            "exptPart": "trial",
            "trialNumber": 27,
            "roleCurrent": "receiver",
            "marblesSampled": 100,
            "probRed": 0.5,
            "practiceLambda": 5,
            "trialLambda": 0.3,
            "instructedLambda": "dishonest_big",
            "drawnRed": 56,
            "reportedRed": 56,
            "inferredRed": 50,
            "playerTrialScore": -6,
            "oppTrialScore": 0,
            "playerTotalScore": -370,
            "oppTotalScore": 2,
            "waitTime": 6762.558580419134,
            "responseTime": 1680899068128,
            "catchQuestion": "How many <b class=\"r\">red<\/b> marbles did your opponent report drawing? ",
            "catchKey": -1,
            "catchResponse": -1,
            "catchTime": 1680898963780,
            "trialTime": 0
        },
        {
            "exptPart": "trial",
            "trialNumber": 28,
            "roleCurrent": "receiver",
            "marblesSampled": 100,
            "probRed": 0.5,
            "practiceLambda": 5,
            "trialLambda": 0.3,
            "instructedLambda": "dishonest_big",
            "drawnRed": 41,
            "reportedRed": 41,
            "inferredRed": 34,
            "playerTrialScore": -7,
            "oppTrialScore": 0,
            "playerTotalScore": -377,
            "oppTotalScore": 2,
            "waitTime": 5731.549925922451,
            "responseTime": 1680899083728,
            "catchQuestion": "How many <b class=\"r\">red<\/b> marbles did your opponent report drawing? ",
            "catchKey": -1,
            "catchResponse": -1,
            "catchTime": 1680898963780,
            "trialTime": 0
        },
        {
            "exptPart": "trial",
            "trialNumber": 29,
            "roleCurrent": "receiver",
            "marblesSampled": 100,
            "probRed": 0.5,
            "practiceLambda": 5,
            "trialLambda": 0.3,
            "instructedLambda": "dishonest_big",
            "drawnRed": 62,
            "reportedRed": 62,
            "inferredRed": 55,
            "playerTrialScore": -7,
            "oppTrialScore": 0,
            "playerTotalScore": -384,
            "oppTotalScore": 2,
            "waitTime": 5877.631183246268,
            "responseTime": 1680899102300,
            "catchQuestion": "How many <b class=\"r\">red<\/b> marbles did your opponent report drawing? ",
            "catchKey": -1,
            "catchResponse": -1,
            "catchTime": 1680898963780,
            "trialTime": 0
        },
        {
            "exptPart": "trial",
            "trialNumber": 30,
            "roleCurrent": "receiver",
            "marblesSampled": 100,
            "probRed": 0.5,
            "practiceLambda": 5,
            "trialLambda": 0.3,
            "instructedLambda": "dishonest_big",
            "drawnRed": 22,
            "reportedRed": 22,
            "inferredRed": 22,
            "playerTrialScore": 0,
            "oppTrialScore": 0,
            "playerTotalScore": -384,
            "oppTotalScore": 2,
            "waitTime": 5324.619222807201,
            "responseTime": 1680899113631,
            "catchQuestion": "How many <b class=\"r\">red<\/b> marbles did your opponent report drawing? ",
            "catchKey": -1,
            "catchResponse": -1,
            "catchTime": 1680899113631,
            "trialTime": 0
        },
        {
            "exptPart": "trial",
            "trialNumber": 31,
            "roleCurrent": "receiver",
            "marblesSampled": 100,
            "probRed": 0.5,
            "practiceLambda": 5,
            "trialLambda": 0.3,
            "instructedLambda": "dishonest_big",
            "drawnRed": 85,
            "reportedRed": 86,
            "inferredRed": 68,
            "playerTrialScore": -17,
            "oppTrialScore": 0,
            "playerTotalScore": -401,
            "oppTotalScore": 2,
            "waitTime": 6920.896974961623,
            "responseTime": 1680899161282,
            "catchQuestion": "How many <b class=\"r\">red<\/b> marbles did your opponent report drawing? ",
            "catchKey": -1,
            "catchResponse": -1,
            "catchTime": 1680899113631,
            "trialTime": 0
        },
        {
            "exptPart": "trial",
            "trialNumber": 32,
            "roleCurrent": "receiver",
            "marblesSampled": 100,
            "probRed": 0.5,
            "practiceLambda": 5,
            "trialLambda": 0.3,
            "instructedLambda": "dishonest_big",
            "drawnRed": 17,
            "reportedRed": 17,
            "inferredRed": 17,
            "playerTrialScore": 0,
            "oppTrialScore": 0,
            "playerTotalScore": -401,
            "oppTotalScore": 2,
            "waitTime": 5422.756566709691,
            "responseTime": 1680899180151,
            "catchQuestion": "How many <b class=\"r\">red<\/b> marbles did your opponent report drawing? ",
            "catchKey": -1,
            "catchResponse": -1,
            "catchTime": 1680899113631,
            "trialTime": 0
        },
        {
            "exptPart": "trial",
            "trialNumber": 33,
            "roleCurrent": "receiver",
            "marblesSampled": 100,
            "probRed": 0.5,
            "practiceLambda": 5,
            "trialLambda": 0.3,
            "instructedLambda": "dishonest_big",
            "drawnRed": 49,
            "reportedRed": 50,
            "inferredRed": 40,
            "playerTrialScore": -9,
            "oppTrialScore": 0,
            "playerTotalScore": -410,
            "oppTotalScore": 2,
            "waitTime": 6072.008034937179,
            "responseTime": 1680899196951,
            "catchQuestion": "How many <b class=\"r\">red<\/b> marbles did your opponent report drawing? ",
            "catchKey": -1,
            "catchResponse": -1,
            "catchTime": 1680899113631,
            "trialTime": 0
        },
        {
            "exptPart": "trial",
            "trialNumber": 34,
            "roleCurrent": "receiver",
            "marblesSampled": 100,
            "probRed": 0.5,
            "practiceLambda": 5,
            "trialLambda": 0.3,
            "instructedLambda": "dishonest_big",
            "drawnRed": 58,
            "reportedRed": 60,
            "inferredRed": 50,
            "playerTrialScore": -8,
            "oppTrialScore": 0,
            "playerTotalScore": -418,
            "oppTotalScore": 2,
            "waitTime": 5151.441150013129,
            "responseTime": 1680899208486,
            "catchQuestion": "How many <b class=\"r\">red<\/b> marbles did your opponent report drawing? ",
            "catchKey": -1,
            "catchResponse": -1,
            "catchTime": 1680899113631,
            "trialTime": 0
        },
        {
            "exptPart": "trial",
            "trialNumber": 35,
            "roleCurrent": "receiver",
            "marblesSampled": 100,
            "probRed": 0.5,
            "practiceLambda": 5,
            "trialLambda": 0.3,
            "instructedLambda": "dishonest_big",
            "drawnRed": 58,
            "reportedRed": 58,
            "inferredRed": 48,
            "playerTrialScore": -10,
            "oppTrialScore": 0,
            "playerTotalScore": -428,
            "oppTotalScore": 2,
            "waitTime": 6218.147275784493,
            "responseTime": 1680899257913,
            "catchQuestion": "How many <b class=\"r\">red<\/b> marbles did your opponent report drawing? ",
            "catchKey": -1,
            "catchResponse": -1,
            "catchTime": 1680899113631,
            "trialTime": 0
        },
        {
            "exptPart": "trial",
            "trialNumber": 36,
            "roleCurrent": "receiver",
            "marblesSampled": 100,
            "probRed": 0.5,
            "practiceLambda": 5,
            "trialLambda": 0.3,
            "instructedLambda": "dishonest_big",
            "drawnRed": 81,
            "reportedRed": 81,
            "inferredRed": 70,
            "playerTrialScore": -11,
            "oppTrialScore": 0,
            "playerTotalScore": -439,
            "oppTotalScore": 2,
            "waitTime": 7045.9615735259995,
            "responseTime": 1680899271484,
            "catchQuestion": "How many <b class=\"r\">red<\/b> marbles did your opponent report drawing? ",
            "catchKey": -1,
            "catchResponse": -1,
            "catchTime": 1680899113631,
            "trialTime": 0
        },
        {
            "exptPart": "trial",
            "trialNumber": 37,
            "roleCurrent": "receiver",
            "marblesSampled": 100,
            "probRed": 0.5,
            "practiceLambda": 5,
            "trialLambda": 0.3,
            "instructedLambda": "dishonest_big",
            "drawnRed": 45,
            "reportedRed": 45,
            "inferredRed": 35,
            "playerTrialScore": -10,
            "oppTrialScore": 0,
            "playerTotalScore": -449,
            "oppTotalScore": 2,
            "waitTime": 5336.058513006497,
            "responseTime": 1680899290669,
            "catchQuestion": "How many <b class=\"r\">red<\/b> marbles did your opponent report drawing? ",
            "catchKey": 45,
            "catchResponse": 45,
            "catchTime": 1680899290669,
            "trialTime": 0
        },
        {
            "exptPart": "trial",
            "trialNumber": 38,
            "roleCurrent": "receiver",
            "marblesSampled": 100,
            "probRed": 0.5,
            "practiceLambda": 5,
            "trialLambda": 0.3,
            "instructedLambda": "dishonest_big",
            "drawnRed": 54,
            "reportedRed": 55,
            "inferredRed": 45,
            "playerTrialScore": -9,
            "oppTrialScore": 0,
            "playerTotalScore": -458,
            "oppTotalScore": 2,
            "waitTime": 5632.429191477628,
            "responseTime": 1680899309679,
            "catchQuestion": "How many <b class=\"r\">red<\/b> marbles did your opponent report drawing? ",
            "catchKey": -1,
            "catchResponse": -1,
            "catchTime": 1680899290669,
            "trialTime": 0
        },
        {
            "exptPart": "trial",
            "trialNumber": 39,
            "roleCurrent": "receiver",
            "marblesSampled": 100,
            "probRed": 0.5,
            "practiceLambda": 5,
            "trialLambda": 0.3,
            "instructedLambda": "dishonest_big",
            "drawnRed": 30,
            "reportedRed": 30,
            "inferredRed": 20,
            "playerTrialScore": -10,
            "oppTrialScore": 0,
            "playerTotalScore": -468,
            "oppTotalScore": 2,
            "waitTime": 6063.773953547035,
            "responseTime": 1680899337770,
            "catchQuestion": "How many <b class=\"r\">red<\/b> marbles did your opponent report drawing? ",
            "catchKey": -1,
            "catchResponse": -1,
            "catchTime": 1680899290669,
            "trialTime": 0
        },
        {
            "exptPart": "trial",
            "trialNumber": 40,
            "roleCurrent": "receiver",
            "marblesSampled": 100,
            "probRed": 0.5,
            "practiceLambda": 5,
            "trialLambda": 0.3,
            "instructedLambda": "dishonest_big",
            "drawnRed": 43,
            "reportedRed": 43,
            "inferredRed": 33,
            "playerTrialScore": -10,
            "oppTrialScore": 0,
            "playerTotalScore": -478,
            "oppTotalScore": 2,
            "waitTime": 6552.811487273195,
            "responseTime": 1680899355888,
            "catchQuestion": "How many <b class=\"r\">red<\/b> marbles did your opponent report drawing? ",
            "catchKey": -1,
            "catchResponse": -1,
            "catchTime": 1680899355888,
            "trialTime": 0
        },
        {
            "exptPart": "trial",
            "trialNumber": 41,
            "roleCurrent": "receiver",
            "marblesSampled": 100,
            "probRed": 0.5,
            "practiceLambda": 5,
            "trialLambda": 0.3,
            "instructedLambda": "dishonest_big",
            "drawnRed": 37,
            "reportedRed": 37,
            "inferredRed": 27,
            "playerTrialScore": -10,
            "oppTrialScore": 0,
            "playerTotalScore": -488,
            "oppTotalScore": 2,
            "waitTime": 7058.766746693379,
            "responseTime": 1680899370749,
            "catchQuestion": "How many <b class=\"r\">red<\/b> marbles did your opponent report drawing? ",
            "catchKey": -1,
            "catchResponse": -1,
            "catchTime": 1680899355888,
            "trialTime": 0
        },
        {
            "exptPart": "trial",
            "trialNumber": 42,
            "roleCurrent": "receiver",
            "marblesSampled": 100,
            "probRed": 0.5,
            "practiceLambda": 5,
            "trialLambda": 0.3,
            "instructedLambda": "dishonest_big",
            "drawnRed": 47,
            "reportedRed": 48,
            "inferredRed": 38,
            "playerTrialScore": -9,
            "oppTrialScore": 0,
            "playerTotalScore": -497,
            "oppTotalScore": 2,
            "waitTime": 6196.415477791041,
            "responseTime": 1680899381427,
            "catchQuestion": "How many <b class=\"r\">red<\/b> marbles did your opponent report drawing? ",
            "catchKey": -1,
            "catchResponse": -1,
            "catchTime": 1680899355888,
            "trialTime": 0
        },
        {
            "exptPart": "trial",
            "trialNumber": 43,
            "roleCurrent": "receiver",
            "marblesSampled": 100,
            "probRed": 0.5,
            "practiceLambda": 5,
            "trialLambda": 0.3,
            "instructedLambda": "dishonest_big",
            "drawnRed": 56,
            "reportedRed": 56,
            "inferredRed": 46,
            "playerTrialScore": -10,
            "oppTrialScore": 0,
            "playerTotalScore": -507,
            "oppTotalScore": 2,
            "waitTime": 6260.878306585326,
            "responseTime": 1680899391334,
            "catchQuestion": "How many <b class=\"r\">red<\/b> marbles did your opponent report drawing? ",
            "catchKey": -1,
            "catchResponse": -1,
            "catchTime": 1680899355888,
            "trialTime": 0
        },
        {
            "exptPart": "trial",
            "trialNumber": 44,
            "roleCurrent": "receiver",
            "marblesSampled": 100,
            "probRed": 0.5,
            "practiceLambda": 5,
            "trialLambda": 0.3,
            "instructedLambda": "dishonest_big",
            "drawnRed": 31,
            "reportedRed": 31,
            "inferredRed": 30,
            "playerTrialScore": -1,
            "oppTrialScore": 0,
            "playerTotalScore": -508,
            "oppTotalScore": 2,
            "waitTime": 5232.14393514221,
            "responseTime": 1680899401235,
            "catchQuestion": "How many <b class=\"r\">red<\/b> marbles did your opponent report drawing? ",
            "catchKey": -1,
            "catchResponse": -1,
            "catchTime": 1680899355888,
            "trialTime": 0
        },
        {
            "exptPart": "trial",
            "trialNumber": 45,
            "roleCurrent": "receiver",
            "marblesSampled": 100,
            "probRed": 0.5,
            "practiceLambda": 5,
            "trialLambda": 0.3,
            "instructedLambda": "dishonest_big",
            "drawnRed": 42,
            "reportedRed": 43,
            "inferredRed": 40,
            "playerTrialScore": -2,
            "oppTrialScore": 0,
            "playerTotalScore": -510,
            "oppTotalScore": 2,
            "waitTime": 6244.672714080536,
            "responseTime": 1680899414402,
            "catchQuestion": "How many <b class=\"r\">red<\/b> marbles did your opponent report drawing? ",
            "catchKey": -1,
            "catchResponse": -1,
            "catchTime": 1680899355888,
            "trialTime": 0
        },
        {
            "exptPart": "trial",
            "trialNumber": 46,
            "roleCurrent": "receiver",
            "marblesSampled": 100,
            "probRed": 0.5,
            "practiceLambda": 5,
            "trialLambda": 0.3,
            "instructedLambda": "dishonest_big",
            "drawnRed": 67,
            "reportedRed": 69,
            "inferredRed": 50,
            "playerTrialScore": -17,
            "oppTrialScore": 0,
            "playerTotalScore": -527,
            "oppTotalScore": 2,
            "waitTime": 6061.1973974017765,
            "responseTime": 1680899430502,
            "catchQuestion": "How many <b class=\"r\">red<\/b> marbles did your opponent report drawing? ",
            "catchKey": -1,
            "catchResponse": -1,
            "catchTime": 1680899355888,
            "trialTime": 0
        },
        {
            "exptPart": "trial",
            "trialNumber": 47,
            "roleCurrent": "receiver",
            "marblesSampled": 100,
            "probRed": 0.5,
            "practiceLambda": 5,
            "trialLambda": 0.3,
            "instructedLambda": "dishonest_big",
            "drawnRed": 84,
            "reportedRed": 84,
            "inferredRed": 64,
            "playerTrialScore": -20,
            "oppTrialScore": 0,
            "playerTotalScore": -547,
            "oppTotalScore": 2,
            "waitTime": 5431.478692395645,
            "responseTime": 1680899450967,
            "catchQuestion": "How many <b class=\"r\">red<\/b> marbles did your opponent report drawing? ",
            "catchKey": -1,
            "catchResponse": -1,
            "catchTime": 1680899355888,
            "trialTime": 0
        },
        {
            "exptPart": "trial",
            "trialNumber": 48,
            "roleCurrent": "receiver",
            "marblesSampled": 100,
            "probRed": 0.5,
            "practiceLambda": 5,
            "trialLambda": 0.3,
            "instructedLambda": "dishonest_big",
            "drawnRed": 40,
            "reportedRed": 41,
            "inferredRed": 31,
            "playerTrialScore": -9,
            "oppTrialScore": 0,
            "playerTotalScore": -556,
            "oppTotalScore": 2,
            "waitTime": 5954.347766108945,
            "responseTime": 1680899465566,
            "catchQuestion": "How many <b class=\"r\">red<\/b> marbles did your opponent report drawing? ",
            "catchKey": 41,
            "catchResponse": 41,
            "catchTime": 1680899465566,
            "trialTime": 0
        },
        {
            "exptPart": "trial",
            "trialNumber": 49,
            "roleCurrent": "receiver",
            "marblesSampled": 100,
            "probRed": 0.5,
            "practiceLambda": 5,
            "trialLambda": 0.3,
            "instructedLambda": "dishonest_big",
            "drawnRed": 33,
            "reportedRed": 33,
            "inferredRed": 30,
            "playerTrialScore": -3,
            "oppTrialScore": 0,
            "playerTotalScore": -559,
            "oppTotalScore": 2,
            "waitTime": 6226.822533155177,
            "responseTime": 1680899484066,
            "catchQuestion": "How many <b class=\"r\">red<\/b> marbles did your opponent report drawing? ",
            "catchKey": -1,
            "catchResponse": -1,
            "catchTime": 1680899465566,
            "trialTime": 0
        },
        {
            "exptPart": "trial",
            "trialNumber": 50,
            "roleCurrent": "receiver",
            "marblesSampled": 100,
            "probRed": 0.5,
            "practiceLambda": 5,
            "trialLambda": 0.3,
            "instructedLambda": "dishonest_big",
            "drawnRed": 69,
            "reportedRed": 69,
            "inferredRed": 59,
            "playerTrialScore": -10,
            "oppTrialScore": 0,
            "playerTotalScore": -569,
            "oppTotalScore": 2,
            "waitTime": 5250.999964263251,
            "responseTime": 1680899494367,
            "catchQuestion": "How many <b class=\"r\">red<\/b> marbles did your opponent report drawing? ",
            "catchKey": -1,
            "catchResponse": -1,
            "catchTime": 1680899494367,
            "trialTime": 0
        },
        {
            "exptPart": "trial",
            "trialNumber": 51,
            "roleCurrent": "receiver",
            "marblesSampled": 100,
            "probRed": 0.5,
            "practiceLambda": 5,
            "trialLambda": 0.3,
            "instructedLambda": "dishonest_big",
            "drawnRed": 44,
            "reportedRed": 45,
            "inferredRed": 40,
            "playerTrialScore": -4,
            "oppTrialScore": 0,
            "playerTotalScore": -573,
            "oppTotalScore": 2,
            "waitTime": 7459.699776873183,
            "responseTime": 1680899516131,
            "catchQuestion": "How many <b class=\"r\">red<\/b> marbles did your opponent report drawing? ",
            "catchKey": -1,
            "catchResponse": -1,
            "catchTime": 1680899494367,
            "trialTime": 0
        },
        {
            "exptPart": "trial",
            "trialNumber": 52,
            "roleCurrent": "receiver",
            "marblesSampled": 100,
            "probRed": 0.5,
            "practiceLambda": 5,
            "trialLambda": 0.3,
            "instructedLambda": "dishonest_big",
            "drawnRed": 44,
            "reportedRed": 44,
            "inferredRed": 34,
            "playerTrialScore": -10,
            "oppTrialScore": 0,
            "playerTotalScore": -583,
            "oppTotalScore": 2,
            "waitTime": 6161.863186120065,
            "responseTime": 1680899534981,
            "catchQuestion": "How many <b class=\"r\">red<\/b> marbles did your opponent report drawing? ",
            "catchKey": -1,
            "catchResponse": -1,
            "catchTime": 1680899494367,
            "trialTime": 0
        },
        {
            "exptPart": "trial",
            "trialNumber": 53,
            "roleCurrent": "receiver",
            "marblesSampled": 100,
            "probRed": 0.5,
            "practiceLambda": 5,
            "trialLambda": 0.3,
            "instructedLambda": "dishonest_big",
            "drawnRed": 18,
            "reportedRed": 18,
            "inferredRed": 18,
            "playerTrialScore": 0,
            "oppTrialScore": 0,
            "playerTotalScore": -583,
            "oppTotalScore": 2,
            "waitTime": 5643.797578943429,
            "responseTime": 1680899544498,
            "catchQuestion": "How many <b class=\"r\">red<\/b> marbles did your opponent report drawing? ",
            "catchKey": -1,
            "catchResponse": -1,
            "catchTime": 1680899494367,
            "trialTime": 0
        },
        {
            "exptPart": "trial",
            "trialNumber": 54,
            "roleCurrent": "receiver",
            "marblesSampled": 100,
            "probRed": 0.5,
            "practiceLambda": 5,
            "trialLambda": 0.3,
            "instructedLambda": "dishonest_big",
            "drawnRed": 44,
            "reportedRed": 44,
            "inferredRed": 34,
            "playerTrialScore": -10,
            "oppTrialScore": 0,
            "playerTotalScore": -593,
            "oppTotalScore": 2,
            "waitTime": 5501.335569303645,
            "responseTime": 1680899555063,
            "catchQuestion": "How many <b class=\"r\">red<\/b> marbles did your opponent report drawing? ",
            "catchKey": -1,
            "catchResponse": -1,
            "catchTime": 1680899494367,
            "trialTime": 0
        },
        {
            "exptPart": "trial",
            "trialNumber": 55,
            "roleCurrent": "receiver",
            "marblesSampled": 100,
            "probRed": 0.5,
            "practiceLambda": 5,
            "trialLambda": 0.3,
            "instructedLambda": "dishonest_big",
            "drawnRed": 39,
            "reportedRed": 39,
            "inferredRed": 30,
            "playerTrialScore": -9,
            "oppTrialScore": 0,
            "playerTotalScore": -602,
            "oppTotalScore": 2,
            "waitTime": 5400.12299076618,
            "responseTime": 1680899565413,
            "catchQuestion": "How many <b class=\"r\">red<\/b> marbles did your opponent report drawing? ",
            "catchKey": 39,
            "catchResponse": 39,
            "catchTime": 1680899565413,
            "trialTime": 0
        },
        {
            "exptPart": "trial",
            "trialNumber": 56,
            "roleCurrent": "receiver",
            "marblesSampled": 100,
            "probRed": 0.5,
            "practiceLambda": 5,
            "trialLambda": 0.3,
            "instructedLambda": "dishonest_big",
            "drawnRed": 33,
            "reportedRed": 33,
            "inferredRed": 30,
            "playerTrialScore": -3,
            "oppTrialScore": 0,
            "playerTotalScore": -605,
            "oppTotalScore": 2,
            "waitTime": 5732.198337725359,
            "responseTime": 1680899585650,
            "catchQuestion": "How many <b class=\"r\">red<\/b> marbles did your opponent report drawing? ",
            "catchKey": 33,
            "catchResponse": 33,
            "catchTime": 1680899585650,
            "trialTime": 0
        },
        {
            "exptPart": "trial",
            "trialNumber": 57,
            "roleCurrent": "receiver",
            "marblesSampled": 100,
            "probRed": 0.5,
            "practiceLambda": 5,
            "trialLambda": 0.3,
            "instructedLambda": "dishonest_big",
            "drawnRed": 18,
            "reportedRed": 18,
            "inferredRed": 18,
            "playerTrialScore": 0,
            "oppTrialScore": 0,
            "playerTotalScore": -605,
            "oppTotalScore": 2,
            "waitTime": 5988.483120463742,
            "responseTime": 1680899603145,
            "catchQuestion": "How many <b class=\"r\">red<\/b> marbles did your opponent report drawing? ",
            "catchKey": -1,
            "catchResponse": -1,
            "catchTime": 1680899585650,
            "trialTime": 0
        },
        {
            "exptPart": "trial",
            "trialNumber": 58,
            "roleCurrent": "receiver",
            "marblesSampled": 100,
            "probRed": 0.5,
            "practiceLambda": 5,
            "trialLambda": 0.3,
            "instructedLambda": "dishonest_big",
            "drawnRed": 69,
            "reportedRed": 69,
            "inferredRed": 60,
            "playerTrialScore": -9,
            "oppTrialScore": 0,
            "playerTotalScore": -614,
            "oppTotalScore": 2,
            "waitTime": 5623.466928250525,
            "responseTime": 1680899617778,
            "catchQuestion": "How many <b class=\"r\">red<\/b> marbles did your opponent report drawing? ",
            "catchKey": -1,
            "catchResponse": -1,
            "catchTime": 1680899585650,
            "trialTime": 0
        },
        {
            "exptPart": "trial",
            "trialNumber": 59,
            "roleCurrent": "receiver",
            "marblesSampled": 100,
            "probRed": 0.5,
            "practiceLambda": 5,
            "trialLambda": 0.3,
            "instructedLambda": "dishonest_big",
            "drawnRed": 36,
            "reportedRed": 37,
            "inferredRed": 30,
            "playerTrialScore": -6,
            "oppTrialScore": 0,
            "playerTotalScore": -620,
            "oppTotalScore": 2,
            "waitTime": 5718.3225891272705,
            "responseTime": 1680899631177,
            "catchQuestion": "How many <b class=\"r\">red<\/b> marbles did your opponent report drawing? ",
            "catchKey": -1,
            "catchResponse": -1,
            "catchTime": 1680899585650,
            "trialTime": 0
        },
        {
            "exptPart": "trial",
            "trialNumber": 60,
            "roleCurrent": "receiver",
            "marblesSampled": 100,
            "probRed": 0.5,
            "practiceLambda": 5,
            "trialLambda": 0.3,
            "instructedLambda": "dishonest_big",
            "drawnRed": 66,
            "reportedRed": 66,
            "inferredRed": 60,
            "playerTrialScore": -6,
            "oppTrialScore": 0,
            "playerTotalScore": -626,
            "oppTotalScore": 2,
            "waitTime": 5220.638054704117,
            "responseTime": 1680899646577,
            "catchQuestion": "How many <b class=\"r\">red<\/b> marbles did your opponent report drawing? ",
            "catchKey": 66,
            "catchResponse": 36,
            "catchTime": 1680899646577,
            "trialTime": 0
        },
        {
            "exptPart": "trial",
            "trialNumber": 61,
            "roleCurrent": "receiver",
            "marblesSampled": 100,
            "probRed": 0.5,
            "practiceLambda": 5,
            "trialLambda": 0.3,
            "instructedLambda": "dishonest_big",
            "drawnRed": 35,
            "reportedRed": 35,
            "inferredRed": 30,
            "playerTrialScore": -5,
            "oppTrialScore": 0,
            "playerTotalScore": -631,
            "oppTotalScore": 2,
            "waitTime": 6081.074175139043,
            "responseTime": 1680899676126,
            "catchQuestion": "How many <b class=\"r\">red<\/b> marbles did your opponent report drawing? ",
            "catchKey": 35,
            "catchResponse": 35,
            "catchTime": 1680899676126,
            "trialTime": 0
        },
        {
            "exptPart": "trial",
            "trialNumber": 62,
            "roleCurrent": "receiver",
            "marblesSampled": 100,
            "probRed": 0.5,
            "practiceLambda": 5,
            "trialLambda": 0.3,
            "instructedLambda": "dishonest_big",
            "drawnRed": 27,
            "reportedRed": 27,
            "inferredRed": 27,
            "playerTrialScore": 0,
            "oppTrialScore": 0,
            "playerTotalScore": -631,
            "oppTotalScore": 2,
            "waitTime": 7178.845819233902,
            "responseTime": 1680899694658,
            "catchQuestion": "How many <b class=\"r\">red<\/b> marbles did your opponent report drawing? ",
            "catchKey": -1,
            "catchResponse": -1,
            "catchTime": 1680899676126,
            "trialTime": 0
        },
        {
            "exptPart": "trial",
            "trialNumber": 63,
            "roleCurrent": "receiver",
            "marblesSampled": 100,
            "probRed": 0.5,
            "practiceLambda": 5,
            "trialLambda": 0.3,
            "instructedLambda": "dishonest_big",
            "drawnRed": 43,
            "reportedRed": 43,
            "inferredRed": 40,
            "playerTrialScore": -3,
            "oppTrialScore": 0,
            "playerTotalScore": -634,
            "oppTotalScore": 2,
            "waitTime": 6752.673175888529,
            "responseTime": 1680899719341,
            "catchQuestion": "How many <b class=\"r\">red<\/b> marbles did your opponent report drawing? ",
            "catchKey": -1,
            "catchResponse": -1,
            "catchTime": 1680899676126,
            "trialTime": 0
        },
        {
            "exptPart": "trial",
            "trialNumber": 64,
            "roleCurrent": "receiver",
            "marblesSampled": 100,
            "probRed": 0.5,
            "practiceLambda": 5,
            "trialLambda": 0.3,
            "instructedLambda": "dishonest_big",
            "drawnRed": 50,
            "reportedRed": 50,
            "inferredRed": 45,
            "playerTrialScore": -5,
            "oppTrialScore": 0,
            "playerTotalScore": -639,
            "oppTotalScore": 2,
            "waitTime": 5995.233397103174,
            "responseTime": 1680899737275,
            "catchQuestion": "How many <b class=\"r\">red<\/b> marbles did your opponent report drawing? ",
            "catchKey": -1,
            "catchResponse": -1,
            "catchTime": 1680899676126,
            "trialTime": 0
        },
        {
            "exptPart": "trial",
            "trialNumber": 65,
            "roleCurrent": "receiver",
            "marblesSampled": 100,
            "probRed": 0.5,
            "practiceLambda": 5,
            "trialLambda": 0.3,
            "instructedLambda": "dishonest_big",
            "drawnRed": 57,
            "reportedRed": 58,
            "inferredRed": 50,
            "playerTrialScore": -7,
            "oppTrialScore": 0,
            "playerTotalScore": -646,
            "oppTotalScore": 2,
            "waitTime": 5591.930172241624,
            "responseTime": 1680899747556,
            "catchQuestion": "How many <b class=\"r\">red<\/b> marbles did your opponent report drawing? ",
            "catchKey": -1,
            "catchResponse": -1,
            "catchTime": 1680899676126,
            "trialTime": 0
        },
        {
            "exptPart": "trial",
            "trialNumber": 66,
            "roleCurrent": "receiver",
            "marblesSampled": 100,
            "probRed": 0.5,
            "practiceLambda": 5,
            "trialLambda": 0.3,
            "instructedLambda": "dishonest_big",
            "drawnRed": 14,
            "reportedRed": 14,
            "inferredRed": 14,
            "playerTrialScore": 0,
            "oppTrialScore": 0,
            "playerTotalScore": -646,
            "oppTotalScore": 2,
            "waitTime": 6273.488430785659,
            "responseTime": 1680899758324,
            "catchQuestion": "How many <b class=\"r\">red<\/b> marbles did your opponent report drawing? ",
            "catchKey": -1,
            "catchResponse": -1,
            "catchTime": 1680899676126,
            "trialTime": 0
        },
        {
            "exptPart": "trial",
            "trialNumber": 67,
            "roleCurrent": "receiver",
            "marblesSampled": 100,
            "probRed": 0.5,
            "practiceLambda": 5,
            "trialLambda": 0.3,
            "instructedLambda": "dishonest_big",
            "drawnRed": 36,
            "reportedRed": 36,
            "inferredRed": 30,
            "playerTrialScore": -6,
            "oppTrialScore": 0,
            "playerTotalScore": -652,
            "oppTotalScore": 2,
            "waitTime": 5845.35988899215,
            "responseTime": 1680899769857,
            "catchQuestion": "How many <b class=\"r\">red<\/b> marbles did your opponent report drawing? ",
            "catchKey": -1,
            "catchResponse": -1,
            "catchTime": 1680899676126,
            "trialTime": 0
        },
        {
            "exptPart": "trial",
            "trialNumber": 68,
            "roleCurrent": "receiver",
            "marblesSampled": 100,
            "probRed": 0.5,
            "practiceLambda": 5,
            "trialLambda": 0.3,
            "instructedLambda": "dishonest_big",
            "drawnRed": 34,
            "reportedRed": 34,
            "inferredRed": 30,
            "playerTrialScore": -4,
            "oppTrialScore": 0,
            "playerTotalScore": -656,
            "oppTotalScore": 2,
            "waitTime": 6121.331437453695,
            "responseTime": 1680899780323,
            "catchQuestion": "How many <b class=\"r\">red<\/b> marbles did your opponent report drawing? ",
            "catchKey": -1,
            "catchResponse": -1,
            "catchTime": 1680899676126,
            "trialTime": 0
        },
        {
            "exptPart": "trial",
            "trialNumber": 69,
            "roleCurrent": "receiver",
            "marblesSampled": 100,
            "probRed": 0.5,
            "practiceLambda": 5,
            "trialLambda": 0.3,
            "instructedLambda": "dishonest_big",
            "drawnRed": 60,
            "reportedRed": 60,
            "inferredRed": 50,
            "playerTrialScore": -10,
            "oppTrialScore": 0,
            "playerTotalScore": -666,
            "oppTotalScore": 2,
            "waitTime": 5340.957910132933,
            "responseTime": 1680899789839,
            "catchQuestion": "How many <b class=\"r\">red<\/b> marbles did your opponent report drawing? ",
            "catchKey": -1,
            "catchResponse": -1,
            "catchTime": 1680899676126,
            "trialTime": 0
        },
        {
            "exptPart": "trial",
            "trialNumber": 70,
            "roleCurrent": "receiver",
            "marblesSampled": 100,
            "probRed": 0.5,
            "practiceLambda": 5,
            "trialLambda": 0.3,
            "instructedLambda": "dishonest_big",
            "drawnRed": 46,
            "reportedRed": 46,
            "inferredRed": 40,
            "playerTrialScore": -6,
            "oppTrialScore": 0,
            "playerTotalScore": -672,
            "oppTotalScore": 2,
            "waitTime": 5517.177905765113,
            "responseTime": 1680899799571,
            "catchQuestion": "How many <b class=\"r\">red<\/b> marbles did your opponent report drawing? ",
            "catchKey": -1,
            "catchResponse": -1,
            "catchTime": 1680899799571,
            "trialTime": 0
        },
        {
            "exptPart": "trial",
            "trialNumber": 71,
            "roleCurrent": "receiver",
            "marblesSampled": 100,
            "probRed": 0.5,
            "practiceLambda": 5,
            "trialLambda": 0.3,
            "instructedLambda": "dishonest_big",
            "drawnRed": 43,
            "reportedRed": 43,
            "inferredRed": 40,
            "playerTrialScore": -3,
            "oppTrialScore": 0,
            "playerTotalScore": -675,
            "oppTotalScore": 2,
            "waitTime": 5341.603089691557,
            "responseTime": 1680899812122,
            "catchQuestion": "How many <b class=\"r\">red<\/b> marbles did your opponent report drawing? ",
            "catchKey": -1,
            "catchResponse": -1,
            "catchTime": 1680899799571,
            "trialTime": 0
        },
        {
            "exptPart": "trial",
            "trialNumber": 72,
            "roleCurrent": "receiver",
            "marblesSampled": 100,
            "probRed": 0.5,
            "practiceLambda": 5,
            "trialLambda": 0.3,
            "instructedLambda": "dishonest_big",
            "drawnRed": 36,
            "reportedRed": 37,
            "inferredRed": 30,
            "playerTrialScore": -6,
            "oppTrialScore": 0,
            "playerTotalScore": -681,
            "oppTotalScore": 2,
            "waitTime": 6072.125925404129,
            "responseTime": 1680899824172,
            "catchQuestion": "How many <b class=\"r\">red<\/b> marbles did your opponent report drawing? ",
            "catchKey": -1,
            "catchResponse": -1,
            "catchTime": 1680899799571,
            "trialTime": 0
        },
        {
            "exptPart": "trial",
            "trialNumber": 73,
            "roleCurrent": "receiver",
            "marblesSampled": 100,
            "probRed": 0.5,
            "practiceLambda": 5,
            "trialLambda": 0.3,
            "instructedLambda": "dishonest_big",
            "drawnRed": 40,
            "reportedRed": 40,
            "inferredRed": 35,
            "playerTrialScore": -5,
            "oppTrialScore": 0,
            "playerTotalScore": -686,
            "oppTotalScore": 2,
            "waitTime": 6712.141562265554,
            "responseTime": 1680899835554,
            "catchQuestion": "How many <b class=\"r\">red<\/b> marbles did your opponent report drawing? ",
            "catchKey": -1,
            "catchResponse": -1,
            "catchTime": 1680899799571,
            "trialTime": 0
        },
        {
            "exptPart": "trial",
            "trialNumber": 74,
            "roleCurrent": "receiver",
            "marblesSampled": 100,
            "probRed": 0.5,
            "practiceLambda": 5,
            "trialLambda": 0.3,
            "instructedLambda": "dishonest_big",
            "drawnRed": 39,
            "reportedRed": 39,
            "inferredRed": 30,
            "playerTrialScore": -9,
            "oppTrialScore": 0,
            "playerTotalScore": -695,
            "oppTotalScore": 2,
            "waitTime": 5768.923784913439,
            "responseTime": 1680899844870,
            "catchQuestion": "How many <b class=\"r\">red<\/b> marbles did your opponent report drawing? ",
            "catchKey": -1,
            "catchResponse": -1,
            "catchTime": 1680899799571,
            "trialTime": 0
        },
        {
            "exptPart": "trial",
            "trialNumber": 75,
            "roleCurrent": "receiver",
            "marblesSampled": 100,
            "probRed": 0.5,
            "practiceLambda": 5,
            "trialLambda": 0.3,
            "instructedLambda": "dishonest_big",
            "drawnRed": 18,
            "reportedRed": 18,
            "inferredRed": 18,
            "playerTrialScore": 0,
            "oppTrialScore": 0,
            "playerTotalScore": -695,
            "oppTotalScore": 2,
            "waitTime": 5145.490482006477,
            "responseTime": 1680899853854,
            "catchQuestion": "How many <b class=\"r\">red<\/b> marbles did your opponent report drawing? ",
            "catchKey": -1,
            "catchResponse": -1,
            "catchTime": 1680899799571,
            "trialTime": 0
        },
        {
            "exptPart": "trial",
            "trialNumber": 76,
            "roleCurrent": "receiver",
            "marblesSampled": 100,
            "probRed": 0.5,
            "practiceLambda": 5,
            "trialLambda": 0.3,
            "instructedLambda": "dishonest_big",
            "drawnRed": 65,
            "reportedRed": 66,
            "inferredRed": 60,
            "playerTrialScore": -5,
            "oppTrialScore": 0,
            "playerTotalScore": -700,
            "oppTotalScore": 2,
            "waitTime": 5307.50048952742,
            "responseTime": 1680899866219,
            "catchQuestion": "How many <b class=\"r\">red<\/b> marbles did your opponent report drawing? ",
            "catchKey": 66,
            "catchResponse": 66,
            "catchTime": 1680899866219,
            "trialTime": 0
        },
        {
            "exptPart": "trial",
            "trialNumber": 77,
            "roleCurrent": "receiver",
            "marblesSampled": 100,
            "probRed": 0.5,
            "practiceLambda": 5,
            "trialLambda": 0.3,
            "instructedLambda": "dishonest_big",
            "drawnRed": 77,
            "reportedRed": 77,
            "inferredRed": 60,
            "playerTrialScore": -17,
            "oppTrialScore": 0,
            "playerTotalScore": -717,
            "oppTotalScore": 2,
            "waitTime": 7085.833573019905,
            "responseTime": 1680899886186,
            "catchQuestion": "How many <b class=\"r\">red<\/b> marbles did your opponent report drawing? ",
            "catchKey": -1,
            "catchResponse": -1,
            "catchTime": 1680899866219,
            "trialTime": 0
        },
        {
            "exptPart": "trial",
            "trialNumber": 78,
            "roleCurrent": "receiver",
            "marblesSampled": 100,
            "probRed": 0.5,
            "practiceLambda": 5,
            "trialLambda": 0.3,
            "instructedLambda": "dishonest_big",
            "drawnRed": 75,
            "reportedRed": 75,
            "inferredRed": 65,
            "playerTrialScore": -10,
            "oppTrialScore": 0,
            "playerTotalScore": -727,
            "oppTotalScore": 2,
            "waitTime": 5994.787666938839,
            "responseTime": 1680899898251,
            "catchQuestion": "How many <b class=\"r\">red<\/b> marbles did your opponent report drawing? ",
            "catchKey": -1,
            "catchResponse": -1,
            "catchTime": 1680899866219,
            "trialTime": 0
        },
        {
            "exptPart": "trial",
            "trialNumber": 79,
            "roleCurrent": "receiver",
            "marblesSampled": 100,
            "probRed": 0.5,
            "practiceLambda": 5,
            "trialLambda": 0.3,
            "instructedLambda": "dishonest_big",
            "drawnRed": 63,
            "reportedRed": 63,
            "inferredRed": 55,
            "playerTrialScore": -8,
            "oppTrialScore": 0,
            "playerTotalScore": -735,
            "oppTotalScore": 2,
            "waitTime": 5809.540147721507,
            "responseTime": 1680899908202,
            "catchQuestion": "How many <b class=\"r\">red<\/b> marbles did your opponent report drawing? ",
            "catchKey": -1,
            "catchResponse": -1,
            "catchTime": 1680899866219,
            "trialTime": 0
        },
        {
            "exptPart": "trial",
            "trialNumber": 80,
            "roleCurrent": "receiver",
            "marblesSampled": 100,
            "probRed": 0.5,
            "practiceLambda": 5,
            "trialLambda": 0.3,
            "instructedLambda": "dishonest_big",
            "drawnRed": 52,
            "reportedRed": 52,
            "inferredRed": 49,
            "playerTrialScore": -3,
            "oppTrialScore": 0,
            "playerTotalScore": -738,
            "oppTotalScore": 2,
            "waitTime": 6550.907645432997,
            "responseTime": 1680899922917,
            "catchQuestion": "How many <b class=\"r\">red<\/b> marbles did your opponent report drawing? ",
            "catchKey": -1,
            "catchResponse": -1,
            "catchTime": 1680899922917,
            "trialTime": 0
        },
        {
            "exptPart": "trial",
            "trialNumber": 81,
            "roleCurrent": "receiver",
            "marblesSampled": 100,
            "probRed": 0.5,
            "practiceLambda": 5,
            "trialLambda": 0.3,
            "instructedLambda": "dishonest_big",
            "drawnRed": 64,
            "reportedRed": 64,
            "inferredRed": 60,
            "playerTrialScore": -4,
            "oppTrialScore": 0,
            "playerTotalScore": -742,
            "oppTotalScore": 2,
            "waitTime": 5358.005011292986,
            "responseTime": 1680899937317,
            "catchQuestion": "How many <b class=\"r\">red<\/b> marbles did your opponent report drawing? ",
            "catchKey": -1,
            "catchResponse": -1,
            "catchTime": 1680899922917,
            "trialTime": 0
        },
        {
            "exptPart": "trial",
            "trialNumber": 82,
            "roleCurrent": "receiver",
            "marblesSampled": 100,
            "probRed": 0.5,
            "practiceLambda": 5,
            "trialLambda": 0.3,
            "instructedLambda": "dishonest_big",
            "drawnRed": 29,
            "reportedRed": 29,
            "inferredRed": 29,
            "playerTrialScore": 0,
            "oppTrialScore": 0,
            "playerTotalScore": -742,
            "oppTotalScore": 2,
            "waitTime": 5849.1007355860875,
            "responseTime": 1680899958000,
            "catchQuestion": "How many <b class=\"r\">red<\/b> marbles did your opponent report drawing? ",
            "catchKey": -1,
            "catchResponse": -1,
            "catchTime": 1680899922917,
            "trialTime": 0
        },
        {
            "exptPart": "trial",
            "trialNumber": 83,
            "roleCurrent": "receiver",
            "marblesSampled": 100,
            "probRed": 0.5,
            "practiceLambda": 5,
            "trialLambda": 0.3,
            "instructedLambda": "dishonest_big",
            "drawnRed": 34,
            "reportedRed": 34,
            "inferredRed": 30,
            "playerTrialScore": -4,
            "oppTrialScore": 0,
            "playerTotalScore": -746,
            "oppTotalScore": 2,
            "waitTime": 5229.075285767378,
            "responseTime": 1680899967399,
            "catchQuestion": "How many <b class=\"r\">red<\/b> marbles did your opponent report drawing? ",
            "catchKey": -1,
            "catchResponse": -1,
            "catchTime": 1680899922917,
            "trialTime": 0
        },
        {
            "exptPart": "trial",
            "trialNumber": 84,
            "roleCurrent": "receiver",
            "marblesSampled": 100,
            "probRed": 0.5,
            "practiceLambda": 5,
            "trialLambda": 0.3,
            "instructedLambda": "dishonest_big",
            "drawnRed": 30,
            "reportedRed": 30,
            "inferredRed": 30,
            "playerTrialScore": 0,
            "oppTrialScore": 0,
            "playerTotalScore": -746,
            "oppTotalScore": 2,
            "waitTime": 6555.5746759985395,
            "responseTime": 1680899978132,
            "catchQuestion": "How many <b class=\"r\">red<\/b> marbles did your opponent report drawing? ",
            "catchKey": -1,
            "catchResponse": -1,
            "catchTime": 1680899922917,
            "trialTime": 0
        },
        {
            "exptPart": "trial",
            "trialNumber": 85,
            "roleCurrent": "receiver",
            "marblesSampled": 100,
            "probRed": 0.5,
            "practiceLambda": 5,
            "trialLambda": 0.3,
            "instructedLambda": "dishonest_big",
            "drawnRed": 66,
            "reportedRed": 66,
            "inferredRed": 60,
            "playerTrialScore": -6,
            "oppTrialScore": 0,
            "playerTotalScore": -752,
            "oppTotalScore": 2,
            "waitTime": 5315.426259988863,
            "responseTime": 1680899988899,
            "catchQuestion": "How many <b class=\"r\">red<\/b> marbles did your opponent report drawing? ",
            "catchKey": -1,
            "catchResponse": -1,
            "catchTime": 1680899922917,
            "trialTime": 0
        },
        {
            "exptPart": "trial",
            "trialNumber": 86,
            "roleCurrent": "receiver",
            "marblesSampled": 100,
            "probRed": 0.5,
            "practiceLambda": 5,
            "trialLambda": 0.3,
            "instructedLambda": "dishonest_big",
            "drawnRed": 43,
            "reportedRed": 45,
            "inferredRed": 40,
            "playerTrialScore": -3,
            "oppTrialScore": 0,
            "playerTotalScore": -755,
            "oppTotalScore": 2,
            "waitTime": 5839.983507659508,
            "responseTime": 1680900012765,
            "catchQuestion": "How many <b class=\"r\">red<\/b> marbles did your opponent report drawing? ",
            "catchKey": 45,
            "catchResponse": 66,
            "catchTime": 1680900012765,
            "trialTime": 0
        },
        {
            "exptPart": "trial",
            "trialNumber": 87,
            "roleCurrent": "receiver",
            "marblesSampled": 100,
            "probRed": 0.5,
            "practiceLambda": 5,
            "trialLambda": 0.3,
            "instructedLambda": "dishonest_big",
            "drawnRed": 33,
            "reportedRed": 33,
            "inferredRed": 30,
            "playerTrialScore": -3,
            "oppTrialScore": 0,
            "playerTotalScore": -758,
            "oppTotalScore": 2,
            "waitTime": 5331.220146757481,
            "responseTime": 1680900053996,
            "catchQuestion": "How many <b class=\"r\">red<\/b> marbles did your opponent report drawing? ",
            "catchKey": -1,
            "catchResponse": -1,
            "catchTime": 1680900012765,
            "trialTime": 0
        },
        {
            "exptPart": "trial",
            "trialNumber": 88,
            "roleCurrent": "receiver",
            "marblesSampled": 100,
            "probRed": 0.5,
            "practiceLambda": 5,
            "trialLambda": 0.3,
            "instructedLambda": "dishonest_big",
            "drawnRed": 63,
            "reportedRed": 64,
            "inferredRed": 60,
            "playerTrialScore": -3,
            "oppTrialScore": 0,
            "playerTotalScore": -761,
            "oppTotalScore": 2,
            "waitTime": 7139.154151252932,
            "responseTime": 1680900065445,
            "catchQuestion": "How many <b class=\"r\">red<\/b> marbles did your opponent report drawing? ",
            "catchKey": -1,
            "catchResponse": -1,
            "catchTime": 1680900012765,
            "trialTime": 0
        },
        {
            "exptPart": "trial",
            "trialNumber": 89,
            "roleCurrent": "receiver",
            "marblesSampled": 100,
            "probRed": 0.5,
            "practiceLambda": 5,
            "trialLambda": 0.3,
            "instructedLambda": "dishonest_big",
            "drawnRed": 39,
            "reportedRed": 39,
            "inferredRed": 35,
            "playerTrialScore": -4,
            "oppTrialScore": 0,
            "playerTotalScore": -765,
            "oppTotalScore": 2,
            "waitTime": 6299.1225898859975,
            "responseTime": 1680900076862,
            "catchQuestion": "How many <b class=\"r\">red<\/b> marbles did your opponent report drawing? ",
            "catchKey": -1,
            "catchResponse": -1,
            "catchTime": 1680900012765,
            "trialTime": 0
        },
        {
            "exptPart": "trial",
            "trialNumber": 90,
            "roleCurrent": "receiver",
            "marblesSampled": 100,
            "probRed": 0.5,
            "practiceLambda": 5,
            "trialLambda": 0.3,
            "instructedLambda": "dishonest_big",
            "drawnRed": 37,
            "reportedRed": 37,
            "inferredRed": 30,
            "playerTrialScore": -7,
            "oppTrialScore": 0,
            "playerTotalScore": -772,
            "oppTotalScore": 2,
            "waitTime": 7464.591877749916,
            "responseTime": 1680900088845,
            "catchQuestion": "How many <b class=\"r\">red<\/b> marbles did your opponent report drawing? ",
            "catchKey": -1,
            "catchResponse": -1,
            "catchTime": 1680900088845,
            "trialTime": 0
        },
        {
            "exptPart": "trial",
            "trialNumber": 91,
            "roleCurrent": "receiver",
            "marblesSampled": 100,
            "probRed": 0.5,
            "practiceLambda": 5,
            "trialLambda": 0.3,
            "instructedLambda": "dishonest_big",
            "drawnRed": 72,
            "reportedRed": 73,
            "inferredRed": 65,
            "playerTrialScore": -7,
            "oppTrialScore": 0,
            "playerTotalScore": -779,
            "oppTotalScore": 2,
            "waitTime": 6810.143607035241,
            "responseTime": 1680900105979,
            "catchQuestion": "How many <b class=\"r\">red<\/b> marbles did your opponent report drawing? ",
            "catchKey": -1,
            "catchResponse": -1,
            "catchTime": 1680900088845,
            "trialTime": 0
        },
        {
            "exptPart": "trial",
            "trialNumber": 92,
            "roleCurrent": "receiver",
            "marblesSampled": 100,
            "probRed": 0.5,
            "practiceLambda": 5,
            "trialLambda": 0.3,
            "instructedLambda": "dishonest_big",
            "drawnRed": 35,
            "reportedRed": 35,
            "inferredRed": 30,
            "playerTrialScore": -5,
            "oppTrialScore": 0,
            "playerTotalScore": -784,
            "oppTotalScore": 2,
            "waitTime": 5808.320444311249,
            "responseTime": 1680900116562,
            "catchQuestion": "How many <b class=\"r\">red<\/b> marbles did your opponent report drawing? ",
            "catchKey": -1,
            "catchResponse": -1,
            "catchTime": 1680900088845,
            "trialTime": 0
        },
        {
            "exptPart": "trial",
            "trialNumber": 93,
            "roleCurrent": "receiver",
            "marblesSampled": 100,
            "probRed": 0.5,
            "practiceLambda": 5,
            "trialLambda": 0.3,
            "instructedLambda": "dishonest_big",
            "drawnRed": 25,
            "reportedRed": 25,
            "inferredRed": 25,
            "playerTrialScore": 0,
            "oppTrialScore": 0,
            "playerTotalScore": -784,
            "oppTotalScore": 2,
            "waitTime": 5506.630590282846,
            "responseTime": 1680900129478,
            "catchQuestion": "How many <b class=\"r\">red<\/b> marbles did your opponent report drawing? ",
            "catchKey": -1,
            "catchResponse": -1,
            "catchTime": 1680900088845,
            "trialTime": 0
        },
        {
            "exptPart": "trial",
            "trialNumber": 94,
            "roleCurrent": "receiver",
            "marblesSampled": 100,
            "probRed": 0.5,
            "practiceLambda": 5,
            "trialLambda": 0.3,
            "instructedLambda": "dishonest_big",
            "drawnRed": 54,
            "reportedRed": 55,
            "inferredRed": 50,
            "playerTrialScore": -4,
            "oppTrialScore": 0,
            "playerTotalScore": -788,
            "oppTotalScore": 2,
            "waitTime": 5508.298485221896,
            "responseTime": 1680900142594,
            "catchQuestion": "How many <b class=\"r\">red<\/b> marbles did your opponent report drawing? ",
            "catchKey": -1,
            "catchResponse": -1,
            "catchTime": 1680900088845,
            "trialTime": 0
        },
        {
            "exptPart": "trial",
            "trialNumber": 95,
            "roleCurrent": "receiver",
            "marblesSampled": 100,
            "probRed": 0.5,
            "practiceLambda": 5,
            "trialLambda": 0.3,
            "instructedLambda": "dishonest_big",
            "drawnRed": 45,
            "reportedRed": 45,
            "inferredRed": 40,
            "playerTrialScore": -5,
            "oppTrialScore": 0,
            "playerTotalScore": -793,
            "oppTotalScore": 2,
            "waitTime": 5764.024854299991,
            "responseTime": 1680900152028,
            "catchQuestion": "How many <b class=\"r\">red<\/b> marbles did your opponent report drawing? ",
            "catchKey": -1,
            "catchResponse": -1,
            "catchTime": 1680900088845,
            "trialTime": 0
        },
        {
            "exptPart": "trial",
            "trialNumber": 96,
            "roleCurrent": "receiver",
            "marblesSampled": 100,
            "probRed": 0.5,
            "practiceLambda": 5,
            "trialLambda": 0.3,
            "instructedLambda": "dishonest_big",
            "drawnRed": 35,
            "reportedRed": 36,
            "inferredRed": 30,
            "playerTrialScore": -5,
            "oppTrialScore": 0,
            "playerTotalScore": -798,
            "oppTotalScore": 2,
            "waitTime": 5880.904913261016,
            "responseTime": 1680900167109,
            "catchQuestion": "How many <b class=\"r\">red<\/b> marbles did your opponent report drawing? ",
            "catchKey": -1,
            "catchResponse": -1,
            "catchTime": 1680900088845,
            "trialTime": 0
        },
        {
            "exptPart": "trial",
            "trialNumber": 97,
            "roleCurrent": "receiver",
            "marblesSampled": 100,
            "probRed": 0.5,
            "practiceLambda": 5,
            "trialLambda": 0.3,
            "instructedLambda": "dishonest_big",
            "drawnRed": 30,
            "reportedRed": 30,
            "inferredRed": 30,
            "playerTrialScore": 0,
            "oppTrialScore": 0,
            "playerTotalScore": -798,
            "oppTotalScore": 2,
            "waitTime": 7128.074352027424,
            "responseTime": 1680900187753,
            "catchQuestion": "How many <b class=\"r\">red<\/b> marbles did your opponent report drawing? ",
            "catchKey": -1,
            "catchResponse": -1,
            "catchTime": 1680900088845,
            "trialTime": 0
        },
        {
            "exptPart": "trial",
            "trialNumber": 98,
            "roleCurrent": "receiver",
            "marblesSampled": 100,
            "probRed": 0.5,
            "practiceLambda": 5,
            "trialLambda": 0.3,
            "instructedLambda": "dishonest_big",
            "drawnRed": 48,
            "reportedRed": 48,
            "inferredRed": 40,
            "playerTrialScore": -8,
            "oppTrialScore": 0,
            "playerTotalScore": -806,
            "oppTotalScore": 2,
            "waitTime": 7044.406681436026,
            "responseTime": 1680900202809,
            "catchQuestion": "How many <b class=\"r\">red<\/b> marbles did your opponent report drawing? ",
            "catchKey": -1,
            "catchResponse": -1,
            "catchTime": 1680900088845,
            "trialTime": 0
        },
        {
            "exptPart": "trial",
            "trialNumber": 99,
            "roleCurrent": "receiver",
            "marblesSampled": 100,
            "probRed": 0.5,
            "practiceLambda": 5,
            "trialLambda": 0.3,
            "instructedLambda": "dishonest_big",
            "drawnRed": 40,
            "reportedRed": 41,
            "inferredRed": 36,
            "playerTrialScore": -4,
            "oppTrialScore": 0,
            "playerTotalScore": -810,
            "oppTotalScore": 2,
            "waitTime": 5999.991687573758,
            "responseTime": 1680900213705,
            "catchQuestion": "How many <b class=\"r\">red<\/b> marbles did your opponent report drawing? ",
            "catchKey": -1,
            "catchResponse": -1,
            "catchTime": 1680900088845,
            "trialTime": 0
        },
        {
            "exptPart": "trial",
            "trialNumber": 100,
            "roleCurrent": "receiver",
            "marblesSampled": 100,
            "probRed": 0.5,
            "practiceLambda": 5,
            "trialLambda": 0.3,
            "instructedLambda": "dishonest_big",
            "drawnRed": 55,
            "reportedRed": 55,
            "inferredRed": 50,
            "playerTrialScore": -5,
            "oppTrialScore": 0,
            "playerTotalScore": -815,
            "oppTotalScore": 2,
            "waitTime": 5669.098236582467,
            "responseTime": 1680900223795,
            "catchQuestion": "How many <b class=\"r\">red<\/b> marbles did your opponent report drawing? ",
            "catchKey": -1,
            "catchResponse": -1,
            "catchTime": 1680900223795,
            "trialTime": 0
        }
    ]
}