{
    "client": {
        "type": "sona",
        "experiment_id": 2488,
        "credit_token": "79d15902e9034cb6b65a542be205401c",
        "survey_code": "48058",
        "sid": "sona-48058",
        "window": {
            "width": 1368,
            "height": 758
        },
        "screen": {
            "width": 1368,
            "height": 912
        },
        "userAgent": "Mozilla\/5.0 (Windows NT 10.0; Win64; x64) AppleWebKit\/537.36 (KHTML, like Gecko) Chrome\/111.0.0.0 Safari\/537.36",
        "score": 0,
        "bonus": 0
    },
    "expt": {
        "saveURL": "submit.simple.php",
        "trials": 100,
        "practiceTrials": 2,
        "marblesSampled": 100,
        "probRed": 0.5,
        "practiceLambdaAI": 5,
        "lambdaAI": 21.9,
        "roles": [
            "sender",
            "receiver"
        ],
        "cost": "unif",
        "goal": "over",
        "oppDishonesty": "dishonest_small",
        "catchTrials": [
            23,
            75,
            56,
            40,
            9,
            99,
            51,
            83,
            15,
            4
        ],
        "scoreTotal": {
            "player": -2468,
            "opp": 2260
        },
        "sona": {
            "experiment_id": 2488,
            "credit_token": "79d15902e9034cb6b65a542be205401c"
        },
        "pilot": false,
        "debug": false
    },
    "trials": [
        {
            "exptPart": "practice",
            "trialNumber": 1,
            "roleCurrent": "sender",
            "marblesSampled": 100,
            "probRed": 0.5,
            "practiceLambda": 5,
            "trialLambda": 21.9,
            "instructedLambda": "dishonest_small",
            "drawnRed": 37,
            "reportedRed": 60,
            "inferredRed": 55,
            "playerTrialScore": 18,
            "oppTrialScore": -18,
            "playerTotalScore": 18,
            "oppTotalScore": -18,
            "waitTime": 2637.52541247127,
            "responseTime": 1678905103684,
            "catchQuestion": "How many <b class=\"r\">red<\/b> marbles did you actually draw (before any changes)? ",
            "catchKey": 37,
            "catchResponse": 39,
            "catchTime": 1678905103684,
            "trialTime": 0
        },
        {
            "exptPart": "practice",
            "trialNumber": 2,
            "roleCurrent": "receiver",
            "marblesSampled": 100,
            "probRed": 0.5,
            "practiceLambda": 5,
            "trialLambda": 21.9,
            "instructedLambda": "dishonest_small",
            "drawnRed": 62,
            "reportedRed": 66,
            "inferredRed": 43,
            "playerTrialScore": -19,
            "oppTrialScore": 0,
            "playerTotalScore": -1,
            "oppTotalScore": -18,
            "waitTime": 6527.074070735616,
            "responseTime": 1678905165449,
            "catchQuestion": "How many <b class=\"r\">red<\/b> marbles did your opponent report drawing? ",
            "catchKey": 66,
            "catchResponse": 69,
            "catchTime": 1678905165449,
            "trialTime": 0
        },
        {
            "exptPart": "trial",
            "trialNumber": 1,
            "roleCurrent": "receiver",
            "marblesSampled": 100,
            "probRed": 0.5,
            "practiceLambda": 5,
            "trialLambda": 21.9,
            "instructedLambda": "dishonest_small",
            "drawnRed": 43,
            "reportedRed": 69,
            "inferredRed": 30,
            "playerTrialScore": -13,
            "oppTrialScore": 0,
            "playerTotalScore": -13,
            "oppTotalScore": 0,
            "waitTime": 6875.7714435051475,
            "responseTime": 1678905218560,
            "catchQuestion": "How many <b class=\"r\">red<\/b> marbles did your opponent report drawing? ",
            "catchKey": -1,
            "catchResponse": -1,
            "catchTime": 1678905165449,
            "trialTime": 0
        },
        {
            "exptPart": "trial",
            "trialNumber": 2,
            "roleCurrent": "receiver",
            "marblesSampled": 100,
            "probRed": 0.5,
            "practiceLambda": 5,
            "trialLambda": 21.9,
            "instructedLambda": "dishonest_small",
            "drawnRed": 36,
            "reportedRed": 55,
            "inferredRed": 50,
            "playerTrialScore": -14,
            "oppTrialScore": 14,
            "playerTotalScore": -27,
            "oppTotalScore": 14,
            "waitTime": 5235.454980786755,
            "responseTime": 1678905235139,
            "catchQuestion": "How many <b class=\"r\">red<\/b> marbles did your opponent report drawing? ",
            "catchKey": -1,
            "catchResponse": -1,
            "catchTime": 1678905165449,
            "trialTime": 0
        },
        {
            "exptPart": "trial",
            "trialNumber": 3,
            "roleCurrent": "receiver",
            "marblesSampled": 100,
            "probRed": 0.5,
            "practiceLambda": 5,
            "trialLambda": 21.9,
            "instructedLambda": "dishonest_small",
            "drawnRed": 27,
            "reportedRed": 43,
            "inferredRed": 78,
            "playerTrialScore": -51,
            "oppTrialScore": 51,
            "playerTotalScore": -78,
            "oppTotalScore": 65,
            "waitTime": 5510.0112062930875,
            "responseTime": 1678905247681,
            "catchQuestion": "How many <b class=\"r\">red<\/b> marbles did your opponent report drawing? ",
            "catchKey": -1,
            "catchResponse": -1,
            "catchTime": 1678905165449,
            "trialTime": 0
        },
        {
            "exptPart": "trial",
            "trialNumber": 4,
            "roleCurrent": "receiver",
            "marblesSampled": 100,
            "probRed": 0.5,
            "practiceLambda": 5,
            "trialLambda": 21.9,
            "instructedLambda": "dishonest_small",
            "drawnRed": 47,
            "reportedRed": 74,
            "inferredRed": 62,
            "playerTrialScore": -15,
            "oppTrialScore": 15,
            "playerTotalScore": -93,
            "oppTotalScore": 80,
            "waitTime": 5405.988755516257,
            "responseTime": 1678905272163,
            "catchQuestion": "How many <b class=\"r\">red<\/b> marbles did your opponent report drawing? ",
            "catchKey": -1,
            "catchResponse": -1,
            "catchTime": 1678905165449,
            "trialTime": 0
        },
        {
            "exptPart": "trial",
            "trialNumber": 5,
            "roleCurrent": "receiver",
            "marblesSampled": 100,
            "probRed": 0.5,
            "practiceLambda": 5,
            "trialLambda": 21.9,
            "instructedLambda": "dishonest_small",
            "drawnRed": 67,
            "reportedRed": 94,
            "inferredRed": 72,
            "playerTrialScore": -5,
            "oppTrialScore": 5,
            "playerTotalScore": -98,
            "oppTotalScore": 85,
            "waitTime": 6137.171894901961,
            "responseTime": 1678905305777,
            "catchQuestion": "How many <b class=\"r\">red<\/b> marbles did your opponent report drawing? ",
            "catchKey": 94,
            "catchResponse": 94,
            "catchTime": 1678905305777,
            "trialTime": 0
        },
        {
            "exptPart": "trial",
            "trialNumber": 6,
            "roleCurrent": "receiver",
            "marblesSampled": 100,
            "probRed": 0.5,
            "practiceLambda": 5,
            "trialLambda": 21.9,
            "instructedLambda": "dishonest_small",
            "drawnRed": 63,
            "reportedRed": 86,
            "inferredRed": 65,
            "playerTrialScore": -2,
            "oppTrialScore": 2,
            "playerTotalScore": -100,
            "oppTotalScore": 87,
            "waitTime": 6457.587659051238,
            "responseTime": 1678905375067,
            "catchQuestion": "How many <b class=\"r\">red<\/b> marbles did your opponent report drawing? ",
            "catchKey": -1,
            "catchResponse": -1,
            "catchTime": 1678905305777,
            "trialTime": 0
        },
        {
            "exptPart": "trial",
            "trialNumber": 7,
            "roleCurrent": "receiver",
            "marblesSampled": 100,
            "probRed": 0.5,
            "practiceLambda": 5,
            "trialLambda": 21.9,
            "instructedLambda": "dishonest_small",
            "drawnRed": 61,
            "reportedRed": 84,
            "inferredRed": 90,
            "playerTrialScore": -29,
            "oppTrialScore": 29,
            "playerTotalScore": -129,
            "oppTotalScore": 116,
            "waitTime": 5499.067753457695,
            "responseTime": 1678905423740,
            "catchQuestion": "How many <b class=\"r\">red<\/b> marbles did your opponent report drawing? ",
            "catchKey": -1,
            "catchResponse": -1,
            "catchTime": 1678905305777,
            "trialTime": 0
        },
        {
            "exptPart": "trial",
            "trialNumber": 8,
            "roleCurrent": "receiver",
            "marblesSampled": 100,
            "probRed": 0.5,
            "practiceLambda": 5,
            "trialLambda": 21.9,
            "instructedLambda": "dishonest_small",
            "drawnRed": 55,
            "reportedRed": 70,
            "inferredRed": 45,
            "playerTrialScore": -10,
            "oppTrialScore": 0,
            "playerTotalScore": -139,
            "oppTotalScore": 116,
            "waitTime": 5507.699034380306,
            "responseTime": 1678905440541,
            "catchQuestion": "How many <b class=\"r\">red<\/b> marbles did your opponent report drawing? ",
            "catchKey": -1,
            "catchResponse": -1,
            "catchTime": 1678905305777,
            "trialTime": 0
        },
        {
            "exptPart": "trial",
            "trialNumber": 9,
            "roleCurrent": "receiver",
            "marblesSampled": 100,
            "probRed": 0.5,
            "practiceLambda": 5,
            "trialLambda": 21.9,
            "instructedLambda": "dishonest_small",
            "drawnRed": 46,
            "reportedRed": 67,
            "inferredRed": 52,
            "playerTrialScore": -6,
            "oppTrialScore": 6,
            "playerTotalScore": -145,
            "oppTotalScore": 122,
            "waitTime": 6139.5526761609,
            "responseTime": 1678905460893,
            "catchQuestion": "How many <b class=\"r\">red<\/b> marbles did your opponent report drawing? ",
            "catchKey": -1,
            "catchResponse": -1,
            "catchTime": 1678905305777,
            "trialTime": 0
        },
        {
            "exptPart": "trial",
            "trialNumber": 10,
            "roleCurrent": "receiver",
            "marblesSampled": 100,
            "probRed": 0.5,
            "practiceLambda": 5,
            "trialLambda": 21.9,
            "instructedLambda": "dishonest_small",
            "drawnRed": 42,
            "reportedRed": 63,
            "inferredRed": 89,
            "playerTrialScore": -47,
            "oppTrialScore": 47,
            "playerTotalScore": -192,
            "oppTotalScore": 169,
            "waitTime": 6703.236780384126,
            "responseTime": 1678905473417,
            "catchQuestion": "How many <b class=\"r\">red<\/b> marbles did your opponent report drawing? ",
            "catchKey": 63,
            "catchResponse": 64,
            "catchTime": 1678905473417,
            "trialTime": 0
        },
        {
            "exptPart": "trial",
            "trialNumber": 11,
            "roleCurrent": "receiver",
            "marblesSampled": 100,
            "probRed": 0.5,
            "practiceLambda": 5,
            "trialLambda": 21.9,
            "instructedLambda": "dishonest_small",
            "drawnRed": 54,
            "reportedRed": 78,
            "inferredRed": 78,
            "playerTrialScore": -24,
            "oppTrialScore": 24,
            "playerTotalScore": -216,
            "oppTotalScore": 193,
            "waitTime": 5627.444287602237,
            "responseTime": 1678905515560,
            "catchQuestion": "How many <b class=\"r\">red<\/b> marbles did your opponent report drawing? ",
            "catchKey": -1,
            "catchResponse": -1,
            "catchTime": 1678905473417,
            "trialTime": 0
        },
        {
            "exptPart": "trial",
            "trialNumber": 12,
            "roleCurrent": "receiver",
            "marblesSampled": 100,
            "probRed": 0.5,
            "practiceLambda": 5,
            "trialLambda": 21.9,
            "instructedLambda": "dishonest_small",
            "drawnRed": 31,
            "reportedRed": 43,
            "inferredRed": 58,
            "playerTrialScore": -27,
            "oppTrialScore": 27,
            "playerTotalScore": -243,
            "oppTotalScore": 220,
            "waitTime": 6372.32292313136,
            "responseTime": 1678905542207,
            "catchQuestion": "How many <b class=\"r\">red<\/b> marbles did your opponent report drawing? ",
            "catchKey": -1,
            "catchResponse": -1,
            "catchTime": 1678905473417,
            "trialTime": 0
        },
        {
            "exptPart": "trial",
            "trialNumber": 13,
            "roleCurrent": "receiver",
            "marblesSampled": 100,
            "probRed": 0.5,
            "practiceLambda": 5,
            "trialLambda": 21.9,
            "instructedLambda": "dishonest_small",
            "drawnRed": 19,
            "reportedRed": 39,
            "inferredRed": 63,
            "playerTrialScore": -44,
            "oppTrialScore": 44,
            "playerTotalScore": -287,
            "oppTotalScore": 264,
            "waitTime": 5547.388380468066,
            "responseTime": 1678905557886,
            "catchQuestion": "How many <b class=\"r\">red<\/b> marbles did your opponent report drawing? ",
            "catchKey": -1,
            "catchResponse": -1,
            "catchTime": 1678905473417,
            "trialTime": 0
        },
        {
            "exptPart": "trial",
            "trialNumber": 14,
            "roleCurrent": "receiver",
            "marblesSampled": 100,
            "probRed": 0.5,
            "practiceLambda": 5,
            "trialLambda": 21.9,
            "instructedLambda": "dishonest_small",
            "drawnRed": 89,
            "reportedRed": 100,
            "inferredRed": 100,
            "playerTrialScore": -11,
            "oppTrialScore": 11,
            "playerTotalScore": -298,
            "oppTotalScore": 275,
            "waitTime": 6391.3575296349045,
            "responseTime": 1678905571565,
            "catchQuestion": "How many <b class=\"r\">red<\/b> marbles did your opponent report drawing? ",
            "catchKey": -1,
            "catchResponse": -1,
            "catchTime": 1678905473417,
            "trialTime": 0
        },
        {
            "exptPart": "trial",
            "trialNumber": 15,
            "roleCurrent": "receiver",
            "marblesSampled": 100,
            "probRed": 0.5,
            "practiceLambda": 5,
            "trialLambda": 21.9,
            "instructedLambda": "dishonest_small",
            "drawnRed": 45,
            "reportedRed": 59,
            "inferredRed": 89,
            "playerTrialScore": -44,
            "oppTrialScore": 44,
            "playerTotalScore": -342,
            "oppTotalScore": 319,
            "waitTime": 6475.280486751557,
            "responseTime": 1678905581822,
            "catchQuestion": "How many <b class=\"r\">red<\/b> marbles did your opponent report drawing? ",
            "catchKey": -1,
            "catchResponse": -1,
            "catchTime": 1678905473417,
            "trialTime": 0
        },
        {
            "exptPart": "trial",
            "trialNumber": 16,
            "roleCurrent": "receiver",
            "marblesSampled": 100,
            "probRed": 0.5,
            "practiceLambda": 5,
            "trialLambda": 21.9,
            "instructedLambda": "dishonest_small",
            "drawnRed": 36,
            "reportedRed": 52,
            "inferredRed": 21,
            "playerTrialScore": -15,
            "oppTrialScore": 0,
            "playerTotalScore": -357,
            "oppTotalScore": 319,
            "waitTime": 7351.007458036853,
            "responseTime": 1678905592800,
            "catchQuestion": "How many <b class=\"r\">red<\/b> marbles did your opponent report drawing? ",
            "catchKey": 52,
            "catchResponse": 34,
            "catchTime": 1678905592800,
            "trialTime": 0
        },
        {
            "exptPart": "trial",
            "trialNumber": 17,
            "roleCurrent": "receiver",
            "marblesSampled": 100,
            "probRed": 0.5,
            "practiceLambda": 5,
            "trialLambda": 21.9,
            "instructedLambda": "dishonest_small",
            "drawnRed": 16,
            "reportedRed": 36,
            "inferredRed": 36,
            "playerTrialScore": -20,
            "oppTrialScore": 20,
            "playerTotalScore": -377,
            "oppTotalScore": 339,
            "waitTime": 5760.04242855259,
            "responseTime": 1678905614049,
            "catchQuestion": "How many <b class=\"r\">red<\/b> marbles did your opponent report drawing? ",
            "catchKey": -1,
            "catchResponse": -1,
            "catchTime": 1678905592800,
            "trialTime": 0
        },
        {
            "exptPart": "trial",
            "trialNumber": 18,
            "roleCurrent": "receiver",
            "marblesSampled": 100,
            "probRed": 0.5,
            "practiceLambda": 5,
            "trialLambda": 21.9,
            "instructedLambda": "dishonest_small",
            "drawnRed": 69,
            "reportedRed": 90,
            "inferredRed": 76,
            "playerTrialScore": -7,
            "oppTrialScore": 7,
            "playerTotalScore": -384,
            "oppTotalScore": 346,
            "waitTime": 7275.836611868776,
            "responseTime": 1678905629650,
            "catchQuestion": "How many <b class=\"r\">red<\/b> marbles did your opponent report drawing? ",
            "catchKey": -1,
            "catchResponse": -1,
            "catchTime": 1678905592800,
            "trialTime": 0
        },
        {
            "exptPart": "trial",
            "trialNumber": 19,
            "roleCurrent": "receiver",
            "marblesSampled": 100,
            "probRed": 0.5,
            "practiceLambda": 5,
            "trialLambda": 21.9,
            "instructedLambda": "dishonest_small",
            "drawnRed": 56,
            "reportedRed": 81,
            "inferredRed": 95,
            "playerTrialScore": -39,
            "oppTrialScore": 39,
            "playerTotalScore": -423,
            "oppTotalScore": 385,
            "waitTime": 5844.466368196451,
            "responseTime": 1678905640774,
            "catchQuestion": "How many <b class=\"r\">red<\/b> marbles did your opponent report drawing? ",
            "catchKey": -1,
            "catchResponse": -1,
            "catchTime": 1678905592800,
            "trialTime": 0
        },
        {
            "exptPart": "trial",
            "trialNumber": 20,
            "roleCurrent": "receiver",
            "marblesSampled": 100,
            "probRed": 0.5,
            "practiceLambda": 5,
            "trialLambda": 21.9,
            "instructedLambda": "dishonest_small",
            "drawnRed": 65,
            "reportedRed": 91,
            "inferredRed": 91,
            "playerTrialScore": -26,
            "oppTrialScore": 26,
            "playerTotalScore": -449,
            "oppTotalScore": 411,
            "waitTime": 5344.93530692316,
            "responseTime": 1678905656218,
            "catchQuestion": "How many <b class=\"r\">red<\/b> marbles did your opponent report drawing? ",
            "catchKey": -1,
            "catchResponse": -1,
            "catchTime": 1678905656218,
            "trialTime": 0
        },
        {
            "exptPart": "trial",
            "trialNumber": 21,
            "roleCurrent": "receiver",
            "marblesSampled": 100,
            "probRed": 0.5,
            "practiceLambda": 5,
            "trialLambda": 21.9,
            "instructedLambda": "dishonest_small",
            "drawnRed": 56,
            "reportedRed": 80,
            "inferredRed": 80,
            "playerTrialScore": -24,
            "oppTrialScore": 24,
            "playerTotalScore": -473,
            "oppTotalScore": 435,
            "waitTime": 6765.698434832874,
            "responseTime": 1678905675544,
            "catchQuestion": "How many <b class=\"r\">red<\/b> marbles did your opponent report drawing? ",
            "catchKey": -1,
            "catchResponse": -1,
            "catchTime": 1678905656218,
            "trialTime": 0
        },
        {
            "exptPart": "trial",
            "trialNumber": 22,
            "roleCurrent": "receiver",
            "marblesSampled": 100,
            "probRed": 0.5,
            "practiceLambda": 5,
            "trialLambda": 21.9,
            "instructedLambda": "dishonest_small",
            "drawnRed": 60,
            "reportedRed": 86,
            "inferredRed": 87,
            "playerTrialScore": -27,
            "oppTrialScore": 27,
            "playerTotalScore": -500,
            "oppTotalScore": 462,
            "waitTime": 5963.746277703797,
            "responseTime": 1678905687031,
            "catchQuestion": "How many <b class=\"r\">red<\/b> marbles did your opponent report drawing? ",
            "catchKey": -1,
            "catchResponse": -1,
            "catchTime": 1678905656218,
            "trialTime": 0
        },
        {
            "exptPart": "trial",
            "trialNumber": 23,
            "roleCurrent": "receiver",
            "marblesSampled": 100,
            "probRed": 0.5,
            "practiceLambda": 5,
            "trialLambda": 21.9,
            "instructedLambda": "dishonest_small",
            "drawnRed": 44,
            "reportedRed": 64,
            "inferredRed": 67,
            "playerTrialScore": -23,
            "oppTrialScore": 23,
            "playerTotalScore": -523,
            "oppTotalScore": 485,
            "waitTime": 5253.191580386367,
            "responseTime": 1678905696296,
            "catchQuestion": "How many <b class=\"r\">red<\/b> marbles did your opponent report drawing? ",
            "catchKey": -1,
            "catchResponse": -1,
            "catchTime": 1678905656218,
            "trialTime": 0
        },
        {
            "exptPart": "trial",
            "trialNumber": 24,
            "roleCurrent": "receiver",
            "marblesSampled": 100,
            "probRed": 0.5,
            "practiceLambda": 5,
            "trialLambda": 21.9,
            "instructedLambda": "dishonest_small",
            "drawnRed": 59,
            "reportedRed": 81,
            "inferredRed": 78,
            "playerTrialScore": -19,
            "oppTrialScore": 19,
            "playerTotalScore": -542,
            "oppTotalScore": 504,
            "waitTime": 7032.5990556235265,
            "responseTime": 1678905710135,
            "catchQuestion": "How many <b class=\"r\">red<\/b> marbles did your opponent report drawing? ",
            "catchKey": 81,
            "catchResponse": 81,
            "catchTime": 1678905710135,
            "trialTime": 0
        },
        {
            "exptPart": "trial",
            "trialNumber": 25,
            "roleCurrent": "receiver",
            "marblesSampled": 100,
            "probRed": 0.5,
            "practiceLambda": 5,
            "trialLambda": 21.9,
            "instructedLambda": "dishonest_small",
            "drawnRed": 60,
            "reportedRed": 89,
            "inferredRed": 86,
            "playerTrialScore": -26,
            "oppTrialScore": 26,
            "playerTotalScore": -568,
            "oppTotalScore": 530,
            "waitTime": 5694.962219643145,
            "responseTime": 1678905726982,
            "catchQuestion": "How many <b class=\"r\">red<\/b> marbles did your opponent report drawing? ",
            "catchKey": -1,
            "catchResponse": -1,
            "catchTime": 1678905710135,
            "trialTime": 0
        },
        {
            "exptPart": "trial",
            "trialNumber": 26,
            "roleCurrent": "receiver",
            "marblesSampled": 100,
            "probRed": 0.5,
            "practiceLambda": 5,
            "trialLambda": 21.9,
            "instructedLambda": "dishonest_small",
            "drawnRed": 39,
            "reportedRed": 59,
            "inferredRed": 65,
            "playerTrialScore": -26,
            "oppTrialScore": 26,
            "playerTotalScore": -594,
            "oppTotalScore": 556,
            "waitTime": 6832.770935271449,
            "responseTime": 1678905737564,
            "catchQuestion": "How many <b class=\"r\">red<\/b> marbles did your opponent report drawing? ",
            "catchKey": -1,
            "catchResponse": -1,
            "catchTime": 1678905710135,
            "trialTime": 0
        },
        {
            "exptPart": "trial",
            "trialNumber": 27,
            "roleCurrent": "receiver",
            "marblesSampled": 100,
            "probRed": 0.5,
            "practiceLambda": 5,
            "trialLambda": 21.9,
            "instructedLambda": "dishonest_small",
            "drawnRed": 42,
            "reportedRed": 63,
            "inferredRed": 54,
            "playerTrialScore": -12,
            "oppTrialScore": 12,
            "playerTotalScore": -606,
            "oppTotalScore": 568,
            "waitTime": 6459.187594457257,
            "responseTime": 1678905747581,
            "catchQuestion": "How many <b class=\"r\">red<\/b> marbles did your opponent report drawing? ",
            "catchKey": -1,
            "catchResponse": -1,
            "catchTime": 1678905710135,
            "trialTime": 0
        },
        {
            "exptPart": "trial",
            "trialNumber": 28,
            "roleCurrent": "receiver",
            "marblesSampled": 100,
            "probRed": 0.5,
            "practiceLambda": 5,
            "trialLambda": 21.9,
            "instructedLambda": "dishonest_small",
            "drawnRed": 56,
            "reportedRed": 75,
            "inferredRed": 80,
            "playerTrialScore": -24,
            "oppTrialScore": 24,
            "playerTotalScore": -630,
            "oppTotalScore": 592,
            "waitTime": 5977.371896831804,
            "responseTime": 1678905760260,
            "catchQuestion": "How many <b class=\"r\">red<\/b> marbles did your opponent report drawing? ",
            "catchKey": -1,
            "catchResponse": -1,
            "catchTime": 1678905710135,
            "trialTime": 0
        },
        {
            "exptPart": "trial",
            "trialNumber": 29,
            "roleCurrent": "receiver",
            "marblesSampled": 100,
            "probRed": 0.5,
            "practiceLambda": 5,
            "trialLambda": 21.9,
            "instructedLambda": "dishonest_small",
            "drawnRed": 42,
            "reportedRed": 58,
            "inferredRed": 54,
            "playerTrialScore": -12,
            "oppTrialScore": 12,
            "playerTotalScore": -642,
            "oppTotalScore": 604,
            "waitTime": 7018.841468904564,
            "responseTime": 1678905771553,
            "catchQuestion": "How many <b class=\"r\">red<\/b> marbles did your opponent report drawing? ",
            "catchKey": -1,
            "catchResponse": -1,
            "catchTime": 1678905710135,
            "trialTime": 0
        },
        {
            "exptPart": "trial",
            "trialNumber": 30,
            "roleCurrent": "receiver",
            "marblesSampled": 100,
            "probRed": 0.5,
            "practiceLambda": 5,
            "trialLambda": 21.9,
            "instructedLambda": "dishonest_small",
            "drawnRed": 45,
            "reportedRed": 75,
            "inferredRed": 79,
            "playerTrialScore": -34,
            "oppTrialScore": 34,
            "playerTotalScore": -676,
            "oppTotalScore": 638,
            "waitTime": 5971.695125926587,
            "responseTime": 1678905783562,
            "catchQuestion": "How many <b class=\"r\">red<\/b> marbles did your opponent report drawing? ",
            "catchKey": -1,
            "catchResponse": -1,
            "catchTime": 1678905783563,
            "trialTime": 0
        },
        {
            "exptPart": "trial",
            "trialNumber": 31,
            "roleCurrent": "receiver",
            "marblesSampled": 100,
            "probRed": 0.5,
            "practiceLambda": 5,
            "trialLambda": 21.9,
            "instructedLambda": "dishonest_small",
            "drawnRed": 58,
            "reportedRed": 83,
            "inferredRed": 74,
            "playerTrialScore": -16,
            "oppTrialScore": 16,
            "playerTotalScore": -692,
            "oppTotalScore": 654,
            "waitTime": 5254.314411347408,
            "responseTime": 1678905799400,
            "catchQuestion": "How many <b class=\"r\">red<\/b> marbles did your opponent report drawing? ",
            "catchKey": -1,
            "catchResponse": -1,
            "catchTime": 1678905783563,
            "trialTime": 0
        },
        {
            "exptPart": "trial",
            "trialNumber": 32,
            "roleCurrent": "receiver",
            "marblesSampled": 100,
            "probRed": 0.5,
            "practiceLambda": 5,
            "trialLambda": 21.9,
            "instructedLambda": "dishonest_small",
            "drawnRed": 21,
            "reportedRed": 41,
            "inferredRed": 68,
            "playerTrialScore": -47,
            "oppTrialScore": 47,
            "playerTotalScore": -739,
            "oppTotalScore": 701,
            "waitTime": 7099.850731781037,
            "responseTime": 1678905845708,
            "catchQuestion": "How many <b class=\"r\">red<\/b> marbles did your opponent report drawing? ",
            "catchKey": -1,
            "catchResponse": -1,
            "catchTime": 1678905783563,
            "trialTime": 0
        },
        {
            "exptPart": "trial",
            "trialNumber": 33,
            "roleCurrent": "receiver",
            "marblesSampled": 100,
            "probRed": 0.5,
            "practiceLambda": 5,
            "trialLambda": 21.9,
            "instructedLambda": "dishonest_small",
            "drawnRed": 85,
            "reportedRed": 100,
            "inferredRed": 78,
            "playerTrialScore": -7,
            "oppTrialScore": 0,
            "playerTotalScore": -746,
            "oppTotalScore": 701,
            "waitTime": 6276.175773586501,
            "responseTime": 1678905863174,
            "catchQuestion": "How many <b class=\"r\">red<\/b> marbles did your opponent report drawing? ",
            "catchKey": -1,
            "catchResponse": -1,
            "catchTime": 1678905783563,
            "trialTime": 0
        },
        {
            "exptPart": "trial",
            "trialNumber": 34,
            "roleCurrent": "receiver",
            "marblesSampled": 100,
            "probRed": 0.5,
            "practiceLambda": 5,
            "trialLambda": 21.9,
            "instructedLambda": "dishonest_small",
            "drawnRed": 17,
            "reportedRed": 32,
            "inferredRed": 65,
            "playerTrialScore": -48,
            "oppTrialScore": 48,
            "playerTotalScore": -794,
            "oppTotalScore": 749,
            "waitTime": 5826.167542998579,
            "responseTime": 1678905874109,
            "catchQuestion": "How many <b class=\"r\">red<\/b> marbles did your opponent report drawing? ",
            "catchKey": -1,
            "catchResponse": -1,
            "catchTime": 1678905783563,
            "trialTime": 0
        },
        {
            "exptPart": "trial",
            "trialNumber": 35,
            "roleCurrent": "receiver",
            "marblesSampled": 100,
            "probRed": 0.5,
            "practiceLambda": 5,
            "trialLambda": 21.9,
            "instructedLambda": "dishonest_small",
            "drawnRed": 40,
            "reportedRed": 58,
            "inferredRed": 76,
            "playerTrialScore": -36,
            "oppTrialScore": 36,
            "playerTotalScore": -830,
            "oppTotalScore": 785,
            "waitTime": 6589.707726133773,
            "responseTime": 1678905886472,
            "catchQuestion": "How many <b class=\"r\">red<\/b> marbles did your opponent report drawing? ",
            "catchKey": -1,
            "catchResponse": -1,
            "catchTime": 1678905783563,
            "trialTime": 0
        },
        {
            "exptPart": "trial",
            "trialNumber": 36,
            "roleCurrent": "receiver",
            "marblesSampled": 100,
            "probRed": 0.5,
            "practiceLambda": 5,
            "trialLambda": 21.9,
            "instructedLambda": "dishonest_small",
            "drawnRed": 58,
            "reportedRed": 87,
            "inferredRed": 87,
            "playerTrialScore": -29,
            "oppTrialScore": 29,
            "playerTotalScore": -859,
            "oppTotalScore": 814,
            "waitTime": 6015.3728947230975,
            "responseTime": 1678905897322,
            "catchQuestion": "How many <b class=\"r\">red<\/b> marbles did your opponent report drawing? ",
            "catchKey": -1,
            "catchResponse": -1,
            "catchTime": 1678905783563,
            "trialTime": 0
        },
        {
            "exptPart": "trial",
            "trialNumber": 37,
            "roleCurrent": "receiver",
            "marblesSampled": 100,
            "probRed": 0.5,
            "practiceLambda": 5,
            "trialLambda": 21.9,
            "instructedLambda": "dishonest_small",
            "drawnRed": 45,
            "reportedRed": 73,
            "inferredRed": 64,
            "playerTrialScore": -19,
            "oppTrialScore": 19,
            "playerTotalScore": -878,
            "oppTotalScore": 833,
            "waitTime": 5198.033771054682,
            "responseTime": 1678905906767,
            "catchQuestion": "How many <b class=\"r\">red<\/b> marbles did your opponent report drawing? ",
            "catchKey": -1,
            "catchResponse": -1,
            "catchTime": 1678905783563,
            "trialTime": 0
        },
        {
            "exptPart": "trial",
            "trialNumber": 38,
            "roleCurrent": "receiver",
            "marblesSampled": 100,
            "probRed": 0.5,
            "practiceLambda": 5,
            "trialLambda": 21.9,
            "instructedLambda": "dishonest_small",
            "drawnRed": 66,
            "reportedRed": 87,
            "inferredRed": 68,
            "playerTrialScore": -2,
            "oppTrialScore": 2,
            "playerTotalScore": -880,
            "oppTotalScore": 835,
            "waitTime": 5305.064835777906,
            "responseTime": 1678905917259,
            "catchQuestion": "How many <b class=\"r\">red<\/b> marbles did your opponent report drawing? ",
            "catchKey": -1,
            "catchResponse": -1,
            "catchTime": 1678905783563,
            "trialTime": 0
        },
        {
            "exptPart": "trial",
            "trialNumber": 39,
            "roleCurrent": "receiver",
            "marblesSampled": 100,
            "probRed": 0.5,
            "practiceLambda": 5,
            "trialLambda": 21.9,
            "instructedLambda": "dishonest_small",
            "drawnRed": 41,
            "reportedRed": 65,
            "inferredRed": 47,
            "playerTrialScore": -6,
            "oppTrialScore": 6,
            "playerTotalScore": -886,
            "oppTotalScore": 841,
            "waitTime": 5171.4351888941455,
            "responseTime": 1678905928725,
            "catchQuestion": "How many <b class=\"r\">red<\/b> marbles did your opponent report drawing? ",
            "catchKey": -1,
            "catchResponse": -1,
            "catchTime": 1678905783563,
            "trialTime": 0
        },
        {
            "exptPart": "trial",
            "trialNumber": 40,
            "roleCurrent": "receiver",
            "marblesSampled": 100,
            "probRed": 0.5,
            "practiceLambda": 5,
            "trialLambda": 21.9,
            "instructedLambda": "dishonest_small",
            "drawnRed": 25,
            "reportedRed": 53,
            "inferredRed": 76,
            "playerTrialScore": -51,
            "oppTrialScore": 51,
            "playerTotalScore": -937,
            "oppTotalScore": 892,
            "waitTime": 5231.429631199682,
            "responseTime": 1678905939577,
            "catchQuestion": "How many <b class=\"r\">red<\/b> marbles did your opponent report drawing? ",
            "catchKey": -1,
            "catchResponse": -1,
            "catchTime": 1678905939578,
            "trialTime": 0
        },
        {
            "exptPart": "trial",
            "trialNumber": 41,
            "roleCurrent": "receiver",
            "marblesSampled": 100,
            "probRed": 0.5,
            "practiceLambda": 5,
            "trialLambda": 21.9,
            "instructedLambda": "dishonest_small",
            "drawnRed": 7,
            "reportedRed": 27,
            "inferredRed": 27,
            "playerTrialScore": -20,
            "oppTrialScore": 20,
            "playerTotalScore": -957,
            "oppTotalScore": 912,
            "waitTime": 7328.8479352017475,
            "responseTime": 1678905966119,
            "catchQuestion": "How many <b class=\"r\">red<\/b> marbles did your opponent report drawing? ",
            "catchKey": 27,
            "catchResponse": 43,
            "catchTime": 1678905966119,
            "trialTime": 0
        },
        {
            "exptPart": "trial",
            "trialNumber": 42,
            "roleCurrent": "receiver",
            "marblesSampled": 100,
            "probRed": 0.5,
            "practiceLambda": 5,
            "trialLambda": 21.9,
            "instructedLambda": "dishonest_small",
            "drawnRed": 23,
            "reportedRed": 48,
            "inferredRed": 75,
            "playerTrialScore": -52,
            "oppTrialScore": 52,
            "playerTotalScore": -1009,
            "oppTotalScore": 964,
            "waitTime": 5132.443425595906,
            "responseTime": 1678905989434,
            "catchQuestion": "How many <b class=\"r\">red<\/b> marbles did your opponent report drawing? ",
            "catchKey": -1,
            "catchResponse": -1,
            "catchTime": 1678905966119,
            "trialTime": 0
        },
        {
            "exptPart": "trial",
            "trialNumber": 43,
            "roleCurrent": "receiver",
            "marblesSampled": 100,
            "probRed": 0.5,
            "practiceLambda": 5,
            "trialLambda": 21.9,
            "instructedLambda": "dishonest_small",
            "drawnRed": 71,
            "reportedRed": 89,
            "inferredRed": 45,
            "playerTrialScore": -26,
            "oppTrialScore": 0,
            "playerTotalScore": -1035,
            "oppTotalScore": 964,
            "waitTime": 6056.8640401482035,
            "responseTime": 1678905999462,
            "catchQuestion": "How many <b class=\"r\">red<\/b> marbles did your opponent report drawing? ",
            "catchKey": -1,
            "catchResponse": -1,
            "catchTime": 1678905966119,
            "trialTime": 0
        },
        {
            "exptPart": "trial",
            "trialNumber": 44,
            "roleCurrent": "receiver",
            "marblesSampled": 100,
            "probRed": 0.5,
            "practiceLambda": 5,
            "trialLambda": 21.9,
            "instructedLambda": "dishonest_small",
            "drawnRed": 69,
            "reportedRed": 85,
            "inferredRed": 93,
            "playerTrialScore": -24,
            "oppTrialScore": 24,
            "playerTotalScore": -1059,
            "oppTotalScore": 988,
            "waitTime": 5635.270096846388,
            "responseTime": 1678906010539,
            "catchQuestion": "How many <b class=\"r\">red<\/b> marbles did your opponent report drawing? ",
            "catchKey": -1,
            "catchResponse": -1,
            "catchTime": 1678905966119,
            "trialTime": 0
        },
        {
            "exptPart": "trial",
            "trialNumber": 45,
            "roleCurrent": "receiver",
            "marblesSampled": 100,
            "probRed": 0.5,
            "practiceLambda": 5,
            "trialLambda": 21.9,
            "instructedLambda": "dishonest_small",
            "drawnRed": 35,
            "reportedRed": 58,
            "inferredRed": 87,
            "playerTrialScore": -52,
            "oppTrialScore": 52,
            "playerTotalScore": -1111,
            "oppTotalScore": 1040,
            "waitTime": 6925.604943020308,
            "responseTime": 1678906020679,
            "catchQuestion": "How many <b class=\"r\">red<\/b> marbles did your opponent report drawing? ",
            "catchKey": -1,
            "catchResponse": -1,
            "catchTime": 1678905966119,
            "trialTime": 0
        },
        {
            "exptPart": "trial",
            "trialNumber": 46,
            "roleCurrent": "receiver",
            "marblesSampled": 100,
            "probRed": 0.5,
            "practiceLambda": 5,
            "trialLambda": 21.9,
            "instructedLambda": "dishonest_small",
            "drawnRed": 10,
            "reportedRed": 23,
            "inferredRed": 35,
            "playerTrialScore": -25,
            "oppTrialScore": 25,
            "playerTotalScore": -1136,
            "oppTotalScore": 1065,
            "waitTime": 6083.421269047067,
            "responseTime": 1678906030700,
            "catchQuestion": "How many <b class=\"r\">red<\/b> marbles did your opponent report drawing? ",
            "catchKey": -1,
            "catchResponse": -1,
            "catchTime": 1678905966119,
            "trialTime": 0
        },
        {
            "exptPart": "trial",
            "trialNumber": 47,
            "roleCurrent": "receiver",
            "marblesSampled": 100,
            "probRed": 0.5,
            "practiceLambda": 5,
            "trialLambda": 21.9,
            "instructedLambda": "dishonest_small",
            "drawnRed": 58,
            "reportedRed": 79,
            "inferredRed": 53,
            "playerTrialScore": -5,
            "oppTrialScore": 0,
            "playerTotalScore": -1141,
            "oppTotalScore": 1065,
            "waitTime": 5225.530784021204,
            "responseTime": 1678906040996,
            "catchQuestion": "How many <b class=\"r\">red<\/b> marbles did your opponent report drawing? ",
            "catchKey": -1,
            "catchResponse": -1,
            "catchTime": 1678905966119,
            "trialTime": 0
        },
        {
            "exptPart": "trial",
            "trialNumber": 48,
            "roleCurrent": "receiver",
            "marblesSampled": 100,
            "probRed": 0.5,
            "practiceLambda": 5,
            "trialLambda": 21.9,
            "instructedLambda": "dishonest_small",
            "drawnRed": 30,
            "reportedRed": 49,
            "inferredRed": 65,
            "playerTrialScore": -35,
            "oppTrialScore": 35,
            "playerTotalScore": -1176,
            "oppTotalScore": 1100,
            "waitTime": 5175.28502720036,
            "responseTime": 1678906052144,
            "catchQuestion": "How many <b class=\"r\">red<\/b> marbles did your opponent report drawing? ",
            "catchKey": -1,
            "catchResponse": -1,
            "catchTime": 1678905966119,
            "trialTime": 0
        },
        {
            "exptPart": "trial",
            "trialNumber": 49,
            "roleCurrent": "receiver",
            "marblesSampled": 100,
            "probRed": 0.5,
            "practiceLambda": 5,
            "trialLambda": 21.9,
            "instructedLambda": "dishonest_small",
            "drawnRed": 39,
            "reportedRed": 61,
            "inferredRed": 47,
            "playerTrialScore": -8,
            "oppTrialScore": 8,
            "playerTotalScore": -1184,
            "oppTotalScore": 1108,
            "waitTime": 5606.814977380064,
            "responseTime": 1678906062642,
            "catchQuestion": "How many <b class=\"r\">red<\/b> marbles did your opponent report drawing? ",
            "catchKey": -1,
            "catchResponse": -1,
            "catchTime": 1678905966119,
            "trialTime": 0
        },
        {
            "exptPart": "trial",
            "trialNumber": 50,
            "roleCurrent": "receiver",
            "marblesSampled": 100,
            "probRed": 0.5,
            "practiceLambda": 5,
            "trialLambda": 21.9,
            "instructedLambda": "dishonest_small",
            "drawnRed": 57,
            "reportedRed": 78,
            "inferredRed": 87,
            "playerTrialScore": -30,
            "oppTrialScore": 30,
            "playerTotalScore": -1214,
            "oppTotalScore": 1138,
            "waitTime": 5831.108827382621,
            "responseTime": 1678906073994,
            "catchQuestion": "How many <b class=\"r\">red<\/b> marbles did your opponent report drawing? ",
            "catchKey": -1,
            "catchResponse": -1,
            "catchTime": 1678906073995,
            "trialTime": 0
        },
        {
            "exptPart": "trial",
            "trialNumber": 51,
            "roleCurrent": "receiver",
            "marblesSampled": 100,
            "probRed": 0.5,
            "practiceLambda": 5,
            "trialLambda": 21.9,
            "instructedLambda": "dishonest_small",
            "drawnRed": 23,
            "reportedRed": 43,
            "inferredRed": 43,
            "playerTrialScore": -20,
            "oppTrialScore": 20,
            "playerTotalScore": -1234,
            "oppTotalScore": 1158,
            "waitTime": 7135.514264573844,
            "responseTime": 1678906087347,
            "catchQuestion": "How many <b class=\"r\">red<\/b> marbles did your opponent report drawing? ",
            "catchKey": -1,
            "catchResponse": -1,
            "catchTime": 1678906073995,
            "trialTime": 0
        },
        {
            "exptPart": "trial",
            "trialNumber": 52,
            "roleCurrent": "receiver",
            "marblesSampled": 100,
            "probRed": 0.5,
            "practiceLambda": 5,
            "trialLambda": 21.9,
            "instructedLambda": "dishonest_small",
            "drawnRed": 72,
            "reportedRed": 91,
            "inferredRed": 91,
            "playerTrialScore": -19,
            "oppTrialScore": 19,
            "playerTotalScore": -1253,
            "oppTotalScore": 1177,
            "waitTime": 5787.281375958948,
            "responseTime": 1678906096761,
            "catchQuestion": "How many <b class=\"r\">red<\/b> marbles did your opponent report drawing? ",
            "catchKey": 91,
            "catchResponse": 91,
            "catchTime": 1678906096761,
            "trialTime": 0
        },
        {
            "exptPart": "trial",
            "trialNumber": 53,
            "roleCurrent": "receiver",
            "marblesSampled": 100,
            "probRed": 0.5,
            "practiceLambda": 5,
            "trialLambda": 21.9,
            "instructedLambda": "dishonest_small",
            "drawnRed": 55,
            "reportedRed": 77,
            "inferredRed": 63,
            "playerTrialScore": -8,
            "oppTrialScore": 8,
            "playerTotalScore": -1261,
            "oppTotalScore": 1185,
            "waitTime": 6236.569078590713,
            "responseTime": 1678906111758,
            "catchQuestion": "How many <b class=\"r\">red<\/b> marbles did your opponent report drawing? ",
            "catchKey": -1,
            "catchResponse": -1,
            "catchTime": 1678906096761,
            "trialTime": 0
        },
        {
            "exptPart": "trial",
            "trialNumber": 54,
            "roleCurrent": "receiver",
            "marblesSampled": 100,
            "probRed": 0.5,
            "practiceLambda": 5,
            "trialLambda": 21.9,
            "instructedLambda": "dishonest_small",
            "drawnRed": 56,
            "reportedRed": 80,
            "inferredRed": 89,
            "playerTrialScore": -33,
            "oppTrialScore": 33,
            "playerTotalScore": -1294,
            "oppTotalScore": 1218,
            "waitTime": 6106.249058881034,
            "responseTime": 1678906122767,
            "catchQuestion": "How many <b class=\"r\">red<\/b> marbles did your opponent report drawing? ",
            "catchKey": -1,
            "catchResponse": -1,
            "catchTime": 1678906096761,
            "trialTime": 0
        },
        {
            "exptPart": "trial",
            "trialNumber": 55,
            "roleCurrent": "receiver",
            "marblesSampled": 100,
            "probRed": 0.5,
            "practiceLambda": 5,
            "trialLambda": 21.9,
            "instructedLambda": "dishonest_small",
            "drawnRed": 75,
            "reportedRed": 98,
            "inferredRed": 86,
            "playerTrialScore": -11,
            "oppTrialScore": 11,
            "playerTotalScore": -1305,
            "oppTotalScore": 1229,
            "waitTime": 6610.429252881735,
            "responseTime": 1678906134390,
            "catchQuestion": "How many <b class=\"r\">red<\/b> marbles did your opponent report drawing? ",
            "catchKey": -1,
            "catchResponse": -1,
            "catchTime": 1678906096761,
            "trialTime": 0
        },
        {
            "exptPart": "trial",
            "trialNumber": 56,
            "roleCurrent": "receiver",
            "marblesSampled": 100,
            "probRed": 0.5,
            "practiceLambda": 5,
            "trialLambda": 21.9,
            "instructedLambda": "dishonest_small",
            "drawnRed": 76,
            "reportedRed": 100,
            "inferredRed": 100,
            "playerTrialScore": -24,
            "oppTrialScore": 24,
            "playerTotalScore": -1329,
            "oppTotalScore": 1253,
            "waitTime": 6670.138286597652,
            "responseTime": 1678906149932,
            "catchQuestion": "How many <b class=\"r\">red<\/b> marbles did your opponent report drawing? ",
            "catchKey": -1,
            "catchResponse": -1,
            "catchTime": 1678906096761,
            "trialTime": 0
        },
        {
            "exptPart": "trial",
            "trialNumber": 57,
            "roleCurrent": "receiver",
            "marblesSampled": 100,
            "probRed": 0.5,
            "practiceLambda": 5,
            "trialLambda": 21.9,
            "instructedLambda": "dishonest_small",
            "drawnRed": 48,
            "reportedRed": 75,
            "inferredRed": 83,
            "playerTrialScore": -35,
            "oppTrialScore": 35,
            "playerTotalScore": -1364,
            "oppTotalScore": 1288,
            "waitTime": 6935.135099897194,
            "responseTime": 1678906162340,
            "catchQuestion": "How many <b class=\"r\">red<\/b> marbles did your opponent report drawing? ",
            "catchKey": 75,
            "catchResponse": 75,
            "catchTime": 1678906162340,
            "trialTime": 0
        },
        {
            "exptPart": "trial",
            "trialNumber": 58,
            "roleCurrent": "receiver",
            "marblesSampled": 100,
            "probRed": 0.5,
            "practiceLambda": 5,
            "trialLambda": 21.9,
            "instructedLambda": "dishonest_small",
            "drawnRed": 27,
            "reportedRed": 48,
            "inferredRed": 37,
            "playerTrialScore": -10,
            "oppTrialScore": 10,
            "playerTotalScore": -1374,
            "oppTotalScore": 1298,
            "waitTime": 7204.648285577518,
            "responseTime": 1678906191663,
            "catchQuestion": "How many <b class=\"r\">red<\/b> marbles did your opponent report drawing? ",
            "catchKey": -1,
            "catchResponse": -1,
            "catchTime": 1678906162340,
            "trialTime": 0
        },
        {
            "exptPart": "trial",
            "trialNumber": 59,
            "roleCurrent": "receiver",
            "marblesSampled": 100,
            "probRed": 0.5,
            "practiceLambda": 5,
            "trialLambda": 21.9,
            "instructedLambda": "dishonest_small",
            "drawnRed": 46,
            "reportedRed": 79,
            "inferredRed": 89,
            "playerTrialScore": -43,
            "oppTrialScore": 43,
            "playerTotalScore": -1417,
            "oppTotalScore": 1341,
            "waitTime": 5355.298081195851,
            "responseTime": 1678906201250,
            "catchQuestion": "How many <b class=\"r\">red<\/b> marbles did your opponent report drawing? ",
            "catchKey": -1,
            "catchResponse": -1,
            "catchTime": 1678906162340,
            "trialTime": 0
        },
        {
            "exptPart": "trial",
            "trialNumber": 60,
            "roleCurrent": "receiver",
            "marblesSampled": 100,
            "probRed": 0.5,
            "practiceLambda": 5,
            "trialLambda": 21.9,
            "instructedLambda": "dishonest_small",
            "drawnRed": 28,
            "reportedRed": 55,
            "inferredRed": 55,
            "playerTrialScore": -27,
            "oppTrialScore": 27,
            "playerTotalScore": -1444,
            "oppTotalScore": 1368,
            "waitTime": 6193.014348229875,
            "responseTime": 1678906211053,
            "catchQuestion": "How many <b class=\"r\">red<\/b> marbles did your opponent report drawing? ",
            "catchKey": -1,
            "catchResponse": -1,
            "catchTime": 1678906211053,
            "trialTime": 0
        },
        {
            "exptPart": "trial",
            "trialNumber": 61,
            "roleCurrent": "receiver",
            "marblesSampled": 100,
            "probRed": 0.5,
            "practiceLambda": 5,
            "trialLambda": 21.9,
            "instructedLambda": "dishonest_small",
            "drawnRed": 41,
            "reportedRed": 63,
            "inferredRed": 54,
            "playerTrialScore": -13,
            "oppTrialScore": 13,
            "playerTotalScore": -1457,
            "oppTotalScore": 1381,
            "waitTime": 5974.233203971251,
            "responseTime": 1678906223290,
            "catchQuestion": "How many <b class=\"r\">red<\/b> marbles did your opponent report drawing? ",
            "catchKey": -1,
            "catchResponse": -1,
            "catchTime": 1678906211053,
            "trialTime": 0
        },
        {
            "exptPart": "trial",
            "trialNumber": 62,
            "roleCurrent": "receiver",
            "marblesSampled": 100,
            "probRed": 0.5,
            "practiceLambda": 5,
            "trialLambda": 21.9,
            "instructedLambda": "dishonest_small",
            "drawnRed": 61,
            "reportedRed": 89,
            "inferredRed": 95,
            "playerTrialScore": -34,
            "oppTrialScore": 34,
            "playerTotalScore": -1491,
            "oppTotalScore": 1415,
            "waitTime": 5314.236792149081,
            "responseTime": 1678906236043,
            "catchQuestion": "How many <b class=\"r\">red<\/b> marbles did your opponent report drawing? ",
            "catchKey": -1,
            "catchResponse": -1,
            "catchTime": 1678906211053,
            "trialTime": 0
        },
        {
            "exptPart": "trial",
            "trialNumber": 63,
            "roleCurrent": "receiver",
            "marblesSampled": 100,
            "probRed": 0.5,
            "practiceLambda": 5,
            "trialLambda": 21.9,
            "instructedLambda": "dishonest_small",
            "drawnRed": 69,
            "reportedRed": 98,
            "inferredRed": 92,
            "playerTrialScore": -23,
            "oppTrialScore": 23,
            "playerTotalScore": -1514,
            "oppTotalScore": 1438,
            "waitTime": 5880.953969156186,
            "responseTime": 1678906250745,
            "catchQuestion": "How many <b class=\"r\">red<\/b> marbles did your opponent report drawing? ",
            "catchKey": -1,
            "catchResponse": -1,
            "catchTime": 1678906211053,
            "trialTime": 0
        },
        {
            "exptPart": "trial",
            "trialNumber": 64,
            "roleCurrent": "receiver",
            "marblesSampled": 100,
            "probRed": 0.5,
            "practiceLambda": 5,
            "trialLambda": 21.9,
            "instructedLambda": "dishonest_small",
            "drawnRed": 58,
            "reportedRed": 86,
            "inferredRed": 74,
            "playerTrialScore": -16,
            "oppTrialScore": 16,
            "playerTotalScore": -1530,
            "oppTotalScore": 1454,
            "waitTime": 5812.94949486503,
            "responseTime": 1678906274068,
            "catchQuestion": "How many <b class=\"r\">red<\/b> marbles did your opponent report drawing? ",
            "catchKey": -1,
            "catchResponse": -1,
            "catchTime": 1678906211053,
            "trialTime": 0
        },
        {
            "exptPart": "trial",
            "trialNumber": 65,
            "roleCurrent": "receiver",
            "marblesSampled": 100,
            "probRed": 0.5,
            "practiceLambda": 5,
            "trialLambda": 21.9,
            "instructedLambda": "dishonest_small",
            "drawnRed": 56,
            "reportedRed": 82,
            "inferredRed": 96,
            "playerTrialScore": -40,
            "oppTrialScore": 40,
            "playerTotalScore": -1570,
            "oppTotalScore": 1494,
            "waitTime": 5867.977871735069,
            "responseTime": 1678906284513,
            "catchQuestion": "How many <b class=\"r\">red<\/b> marbles did your opponent report drawing? ",
            "catchKey": -1,
            "catchResponse": -1,
            "catchTime": 1678906211053,
            "trialTime": 0
        },
        {
            "exptPart": "trial",
            "trialNumber": 66,
            "roleCurrent": "receiver",
            "marblesSampled": 100,
            "probRed": 0.5,
            "practiceLambda": 5,
            "trialLambda": 21.9,
            "instructedLambda": "dishonest_small",
            "drawnRed": 39,
            "reportedRed": 55,
            "inferredRed": 63,
            "playerTrialScore": -24,
            "oppTrialScore": 24,
            "playerTotalScore": -1594,
            "oppTotalScore": 1518,
            "waitTime": 6517.967564929454,
            "responseTime": 1678906297657,
            "catchQuestion": "How many <b class=\"r\">red<\/b> marbles did your opponent report drawing? ",
            "catchKey": -1,
            "catchResponse": -1,
            "catchTime": 1678906211053,
            "trialTime": 0
        },
        {
            "exptPart": "trial",
            "trialNumber": 67,
            "roleCurrent": "receiver",
            "marblesSampled": 100,
            "probRed": 0.5,
            "practiceLambda": 5,
            "trialLambda": 21.9,
            "instructedLambda": "dishonest_small",
            "drawnRed": 59,
            "reportedRed": 81,
            "inferredRed": 76,
            "playerTrialScore": -17,
            "oppTrialScore": 17,
            "playerTotalScore": -1611,
            "oppTotalScore": 1535,
            "waitTime": 7125.656327842295,
            "responseTime": 1678906311857,
            "catchQuestion": "How many <b class=\"r\">red<\/b> marbles did your opponent report drawing? ",
            "catchKey": -1,
            "catchResponse": -1,
            "catchTime": 1678906211053,
            "trialTime": 0
        },
        {
            "exptPart": "trial",
            "trialNumber": 68,
            "roleCurrent": "receiver",
            "marblesSampled": 100,
            "probRed": 0.5,
            "practiceLambda": 5,
            "trialLambda": 21.9,
            "instructedLambda": "dishonest_small",
            "drawnRed": 16,
            "reportedRed": 44,
            "inferredRed": 57,
            "playerTrialScore": -41,
            "oppTrialScore": 41,
            "playerTotalScore": -1652,
            "oppTotalScore": 1576,
            "waitTime": 5241.351039011268,
            "responseTime": 1678906322042,
            "catchQuestion": "How many <b class=\"r\">red<\/b> marbles did your opponent report drawing? ",
            "catchKey": -1,
            "catchResponse": -1,
            "catchTime": 1678906211053,
            "trialTime": 0
        },
        {
            "exptPart": "trial",
            "trialNumber": 69,
            "roleCurrent": "receiver",
            "marblesSampled": 100,
            "probRed": 0.5,
            "practiceLambda": 5,
            "trialLambda": 21.9,
            "instructedLambda": "dishonest_small",
            "drawnRed": 47,
            "reportedRed": 65,
            "inferredRed": 65,
            "playerTrialScore": -18,
            "oppTrialScore": 18,
            "playerTotalScore": -1670,
            "oppTotalScore": 1594,
            "waitTime": 6965.329506727333,
            "responseTime": 1678906332659,
            "catchQuestion": "How many <b class=\"r\">red<\/b> marbles did your opponent report drawing? ",
            "catchKey": -1,
            "catchResponse": -1,
            "catchTime": 1678906211053,
            "trialTime": 0
        },
        {
            "exptPart": "trial",
            "trialNumber": 70,
            "roleCurrent": "receiver",
            "marblesSampled": 100,
            "probRed": 0.5,
            "practiceLambda": 5,
            "trialLambda": 21.9,
            "instructedLambda": "dishonest_small",
            "drawnRed": 53,
            "reportedRed": 70,
            "inferredRed": 63,
            "playerTrialScore": -10,
            "oppTrialScore": 10,
            "playerTotalScore": -1680,
            "oppTotalScore": 1604,
            "waitTime": 5784.820486838031,
            "responseTime": 1678906343089,
            "catchQuestion": "How many <b class=\"r\">red<\/b> marbles did your opponent report drawing? ",
            "catchKey": -1,
            "catchResponse": -1,
            "catchTime": 1678906343089,
            "trialTime": 0
        },
        {
            "exptPart": "trial",
            "trialNumber": 71,
            "roleCurrent": "receiver",
            "marblesSampled": 100,
            "probRed": 0.5,
            "practiceLambda": 5,
            "trialLambda": 21.9,
            "instructedLambda": "dishonest_small",
            "drawnRed": 42,
            "reportedRed": 73,
            "inferredRed": 85,
            "playerTrialScore": -43,
            "oppTrialScore": 43,
            "playerTotalScore": -1723,
            "oppTotalScore": 1647,
            "waitTime": 6109.412211510957,
            "responseTime": 1678906355704,
            "catchQuestion": "How many <b class=\"r\">red<\/b> marbles did your opponent report drawing? ",
            "catchKey": -1,
            "catchResponse": -1,
            "catchTime": 1678906343089,
            "trialTime": 0
        },
        {
            "exptPart": "trial",
            "trialNumber": 72,
            "roleCurrent": "receiver",
            "marblesSampled": 100,
            "probRed": 0.5,
            "practiceLambda": 5,
            "trialLambda": 21.9,
            "instructedLambda": "dishonest_small",
            "drawnRed": 48,
            "reportedRed": 70,
            "inferredRed": 89,
            "playerTrialScore": -41,
            "oppTrialScore": 41,
            "playerTotalScore": -1764,
            "oppTotalScore": 1688,
            "waitTime": 6626.423879071875,
            "responseTime": 1678906372963,
            "catchQuestion": "How many <b class=\"r\">red<\/b> marbles did your opponent report drawing? ",
            "catchKey": -1,
            "catchResponse": -1,
            "catchTime": 1678906343089,
            "trialTime": 0
        },
        {
            "exptPart": "trial",
            "trialNumber": 73,
            "roleCurrent": "receiver",
            "marblesSampled": 100,
            "probRed": 0.5,
            "practiceLambda": 5,
            "trialLambda": 21.9,
            "instructedLambda": "dishonest_small",
            "drawnRed": 77,
            "reportedRed": 100,
            "inferredRed": 1,
            "playerTrialScore": -76,
            "oppTrialScore": 0,
            "playerTotalScore": -1840,
            "oppTotalScore": 1688,
            "waitTime": 5261.793068572178,
            "responseTime": 1678906382572,
            "catchQuestion": "How many <b class=\"r\">red<\/b> marbles did your opponent report drawing? ",
            "catchKey": -1,
            "catchResponse": -1,
            "catchTime": 1678906343089,
            "trialTime": 0
        },
        {
            "exptPart": "trial",
            "trialNumber": 74,
            "roleCurrent": "receiver",
            "marblesSampled": 100,
            "probRed": 0.5,
            "practiceLambda": 5,
            "trialLambda": 21.9,
            "instructedLambda": "dishonest_small",
            "drawnRed": 25,
            "reportedRed": 42,
            "inferredRed": 78,
            "playerTrialScore": -53,
            "oppTrialScore": 53,
            "playerTotalScore": -1893,
            "oppTotalScore": 1741,
            "waitTime": 6458.930853647519,
            "responseTime": 1678906395166,
            "catchQuestion": "How many <b class=\"r\">red<\/b> marbles did your opponent report drawing? ",
            "catchKey": -1,
            "catchResponse": -1,
            "catchTime": 1678906343089,
            "trialTime": 0
        },
        {
            "exptPart": "trial",
            "trialNumber": 75,
            "roleCurrent": "receiver",
            "marblesSampled": 100,
            "probRed": 0.5,
            "practiceLambda": 5,
            "trialLambda": 21.9,
            "instructedLambda": "dishonest_small",
            "drawnRed": 69,
            "reportedRed": 87,
            "inferredRed": 54,
            "playerTrialScore": -15,
            "oppTrialScore": 0,
            "playerTotalScore": -1908,
            "oppTotalScore": 1741,
            "waitTime": 5194.217279955227,
            "responseTime": 1678906404078,
            "catchQuestion": "How many <b class=\"r\">red<\/b> marbles did your opponent report drawing? ",
            "catchKey": -1,
            "catchResponse": -1,
            "catchTime": 1678906343089,
            "trialTime": 0
        },
        {
            "exptPart": "trial",
            "trialNumber": 76,
            "roleCurrent": "receiver",
            "marblesSampled": 100,
            "probRed": 0.5,
            "practiceLambda": 5,
            "trialLambda": 21.9,
            "instructedLambda": "dishonest_small",
            "drawnRed": 47,
            "reportedRed": 68,
            "inferredRed": 68,
            "playerTrialScore": -21,
            "oppTrialScore": 21,
            "playerTotalScore": -1929,
            "oppTotalScore": 1762,
            "waitTime": 5920.612392679146,
            "responseTime": 1678906414101,
            "catchQuestion": "How many <b class=\"r\">red<\/b> marbles did your opponent report drawing? ",
            "catchKey": 68,
            "catchResponse": 68,
            "catchTime": 1678906414101,
            "trialTime": 0
        },
        {
            "exptPart": "trial",
            "trialNumber": 77,
            "roleCurrent": "receiver",
            "marblesSampled": 100,
            "probRed": 0.5,
            "practiceLambda": 5,
            "trialLambda": 21.9,
            "instructedLambda": "dishonest_small",
            "drawnRed": 48,
            "reportedRed": 70,
            "inferredRed": 70,
            "playerTrialScore": -22,
            "oppTrialScore": 22,
            "playerTotalScore": -1951,
            "oppTotalScore": 1784,
            "waitTime": 6587.955518627843,
            "responseTime": 1678906433765,
            "catchQuestion": "How many <b class=\"r\">red<\/b> marbles did your opponent report drawing? ",
            "catchKey": -1,
            "catchResponse": -1,
            "catchTime": 1678906414101,
            "trialTime": 0
        },
        {
            "exptPart": "trial",
            "trialNumber": 78,
            "roleCurrent": "receiver",
            "marblesSampled": 100,
            "probRed": 0.5,
            "practiceLambda": 5,
            "trialLambda": 21.9,
            "instructedLambda": "dishonest_small",
            "drawnRed": 47,
            "reportedRed": 73,
            "inferredRed": 73,
            "playerTrialScore": -26,
            "oppTrialScore": 26,
            "playerTotalScore": -1977,
            "oppTotalScore": 1810,
            "waitTime": 5724.090984189389,
            "responseTime": 1678906442724,
            "catchQuestion": "How many <b class=\"r\">red<\/b> marbles did your opponent report drawing? ",
            "catchKey": -1,
            "catchResponse": -1,
            "catchTime": 1678906414101,
            "trialTime": 0
        },
        {
            "exptPart": "trial",
            "trialNumber": 79,
            "roleCurrent": "receiver",
            "marblesSampled": 100,
            "probRed": 0.5,
            "practiceLambda": 5,
            "trialLambda": 21.9,
            "instructedLambda": "dishonest_small",
            "drawnRed": 69,
            "reportedRed": 85,
            "inferredRed": 85,
            "playerTrialScore": -16,
            "oppTrialScore": 16,
            "playerTotalScore": -1993,
            "oppTotalScore": 1826,
            "waitTime": 7197.742207121175,
            "responseTime": 1678906453106,
            "catchQuestion": "How many <b class=\"r\">red<\/b> marbles did your opponent report drawing? ",
            "catchKey": -1,
            "catchResponse": -1,
            "catchTime": 1678906414101,
            "trialTime": 0
        },
        {
            "exptPart": "trial",
            "trialNumber": 80,
            "roleCurrent": "receiver",
            "marblesSampled": 100,
            "probRed": 0.5,
            "practiceLambda": 5,
            "trialLambda": 21.9,
            "instructedLambda": "dishonest_small",
            "drawnRed": 38,
            "reportedRed": 60,
            "inferredRed": 60,
            "playerTrialScore": -22,
            "oppTrialScore": 22,
            "playerTotalScore": -2015,
            "oppTotalScore": 1848,
            "waitTime": 5322.824807479851,
            "responseTime": 1678906461444,
            "catchQuestion": "How many <b class=\"r\">red<\/b> marbles did your opponent report drawing? ",
            "catchKey": -1,
            "catchResponse": -1,
            "catchTime": 1678906461444,
            "trialTime": 0
        },
        {
            "exptPart": "trial",
            "trialNumber": 81,
            "roleCurrent": "receiver",
            "marblesSampled": 100,
            "probRed": 0.5,
            "practiceLambda": 5,
            "trialLambda": 21.9,
            "instructedLambda": "dishonest_small",
            "drawnRed": 73,
            "reportedRed": 100,
            "inferredRed": 92,
            "playerTrialScore": -19,
            "oppTrialScore": 19,
            "playerTotalScore": -2034,
            "oppTotalScore": 1867,
            "waitTime": 5317.891740807542,
            "responseTime": 1678906475913,
            "catchQuestion": "How many <b class=\"r\">red<\/b> marbles did your opponent report drawing? ",
            "catchKey": -1,
            "catchResponse": -1,
            "catchTime": 1678906461444,
            "trialTime": 0
        },
        {
            "exptPart": "trial",
            "trialNumber": 82,
            "roleCurrent": "receiver",
            "marblesSampled": 100,
            "probRed": 0.5,
            "practiceLambda": 5,
            "trialLambda": 21.9,
            "instructedLambda": "dishonest_small",
            "drawnRed": 57,
            "reportedRed": 76,
            "inferredRed": 40,
            "playerTrialScore": -17,
            "oppTrialScore": 0,
            "playerTotalScore": -2051,
            "oppTotalScore": 1867,
            "waitTime": 5200.642792616607,
            "responseTime": 1678906484632,
            "catchQuestion": "How many <b class=\"r\">red<\/b> marbles did your opponent report drawing? ",
            "catchKey": -1,
            "catchResponse": -1,
            "catchTime": 1678906461444,
            "trialTime": 0
        },
        {
            "exptPart": "trial",
            "trialNumber": 83,
            "roleCurrent": "receiver",
            "marblesSampled": 100,
            "probRed": 0.5,
            "practiceLambda": 5,
            "trialLambda": 21.9,
            "instructedLambda": "dishonest_small",
            "drawnRed": 25,
            "reportedRed": 46,
            "inferredRed": 90,
            "playerTrialScore": -65,
            "oppTrialScore": 65,
            "playerTotalScore": -2116,
            "oppTotalScore": 1932,
            "waitTime": 5656.260846871344,
            "responseTime": 1678906494083,
            "catchQuestion": "How many <b class=\"r\">red<\/b> marbles did your opponent report drawing? ",
            "catchKey": -1,
            "catchResponse": -1,
            "catchTime": 1678906461444,
            "trialTime": 0
        },
        {
            "exptPart": "trial",
            "trialNumber": 84,
            "roleCurrent": "receiver",
            "marblesSampled": 100,
            "probRed": 0.5,
            "practiceLambda": 5,
            "trialLambda": 21.9,
            "instructedLambda": "dishonest_small",
            "drawnRed": 79,
            "reportedRed": 100,
            "inferredRed": 75,
            "playerTrialScore": -4,
            "oppTrialScore": 0,
            "playerTotalScore": -2120,
            "oppTotalScore": 1932,
            "waitTime": 7130.991050611293,
            "responseTime": 1678906516731,
            "catchQuestion": "How many <b class=\"r\">red<\/b> marbles did your opponent report drawing? ",
            "catchKey": 100,
            "catchResponse": 100,
            "catchTime": 1678906516731,
            "trialTime": 0
        },
        {
            "exptPart": "trial",
            "trialNumber": 85,
            "roleCurrent": "receiver",
            "marblesSampled": 100,
            "probRed": 0.5,
            "practiceLambda": 5,
            "trialLambda": 21.9,
            "instructedLambda": "dishonest_small",
            "drawnRed": 20,
            "reportedRed": 32,
            "inferredRed": 56,
            "playerTrialScore": -36,
            "oppTrialScore": 36,
            "playerTotalScore": -2156,
            "oppTotalScore": 1968,
            "waitTime": 6196.571572034793,
            "responseTime": 1678906532166,
            "catchQuestion": "How many <b class=\"r\">red<\/b> marbles did your opponent report drawing? ",
            "catchKey": -1,
            "catchResponse": -1,
            "catchTime": 1678906516731,
            "trialTime": 0
        },
        {
            "exptPart": "trial",
            "trialNumber": 86,
            "roleCurrent": "receiver",
            "marblesSampled": 100,
            "probRed": 0.5,
            "practiceLambda": 5,
            "trialLambda": 21.9,
            "instructedLambda": "dishonest_small",
            "drawnRed": 76,
            "reportedRed": 93,
            "inferredRed": 87,
            "playerTrialScore": -11,
            "oppTrialScore": 11,
            "playerTotalScore": -2167,
            "oppTotalScore": 1979,
            "waitTime": 7126.319997942966,
            "responseTime": 1678906545623,
            "catchQuestion": "How many <b class=\"r\">red<\/b> marbles did your opponent report drawing? ",
            "catchKey": -1,
            "catchResponse": -1,
            "catchTime": 1678906516731,
            "trialTime": 0
        },
        {
            "exptPart": "trial",
            "trialNumber": 87,
            "roleCurrent": "receiver",
            "marblesSampled": 100,
            "probRed": 0.5,
            "practiceLambda": 5,
            "trialLambda": 21.9,
            "instructedLambda": "dishonest_small",
            "drawnRed": 76,
            "reportedRed": 98,
            "inferredRed": 86,
            "playerTrialScore": -10,
            "oppTrialScore": 10,
            "playerTotalScore": -2177,
            "oppTotalScore": 1989,
            "waitTime": 5210.202730097331,
            "responseTime": 1678906558249,
            "catchQuestion": "How many <b class=\"r\">red<\/b> marbles did your opponent report drawing? ",
            "catchKey": -1,
            "catchResponse": -1,
            "catchTime": 1678906516731,
            "trialTime": 0
        },
        {
            "exptPart": "trial",
            "trialNumber": 88,
            "roleCurrent": "receiver",
            "marblesSampled": 100,
            "probRed": 0.5,
            "practiceLambda": 5,
            "trialLambda": 21.9,
            "instructedLambda": "dishonest_small",
            "drawnRed": 33,
            "reportedRed": 56,
            "inferredRed": 56,
            "playerTrialScore": -23,
            "oppTrialScore": 23,
            "playerTotalScore": -2200,
            "oppTotalScore": 2012,
            "waitTime": 7002.471260079443,
            "responseTime": 1678906568982,
            "catchQuestion": "How many <b class=\"r\">red<\/b> marbles did your opponent report drawing? ",
            "catchKey": -1,
            "catchResponse": -1,
            "catchTime": 1678906516731,
            "trialTime": 0
        },
        {
            "exptPart": "trial",
            "trialNumber": 89,
            "roleCurrent": "receiver",
            "marblesSampled": 100,
            "probRed": 0.5,
            "practiceLambda": 5,
            "trialLambda": 21.9,
            "instructedLambda": "dishonest_small",
            "drawnRed": 62,
            "reportedRed": 83,
            "inferredRed": 97,
            "playerTrialScore": -35,
            "oppTrialScore": 35,
            "playerTotalScore": -2235,
            "oppTotalScore": 2047,
            "waitTime": 5548.077389194222,
            "responseTime": 1678906578494,
            "catchQuestion": "How many <b class=\"r\">red<\/b> marbles did your opponent report drawing? ",
            "catchKey": -1,
            "catchResponse": -1,
            "catchTime": 1678906516731,
            "trialTime": 0
        },
        {
            "exptPart": "trial",
            "trialNumber": 90,
            "roleCurrent": "receiver",
            "marblesSampled": 100,
            "probRed": 0.5,
            "practiceLambda": 5,
            "trialLambda": 21.9,
            "instructedLambda": "dishonest_small",
            "drawnRed": 34,
            "reportedRed": 56,
            "inferredRed": 59,
            "playerTrialScore": -25,
            "oppTrialScore": 25,
            "playerTotalScore": -2260,
            "oppTotalScore": 2072,
            "waitTime": 5396.442720407739,
            "responseTime": 1678906588252,
            "catchQuestion": "How many <b class=\"r\">red<\/b> marbles did your opponent report drawing? ",
            "catchKey": -1,
            "catchResponse": -1,
            "catchTime": 1678906588253,
            "trialTime": 0
        },
        {
            "exptPart": "trial",
            "trialNumber": 91,
            "roleCurrent": "receiver",
            "marblesSampled": 100,
            "probRed": 0.5,
            "practiceLambda": 5,
            "trialLambda": 21.9,
            "instructedLambda": "dishonest_small",
            "drawnRed": 68,
            "reportedRed": 89,
            "inferredRed": 60,
            "playerTrialScore": -8,
            "oppTrialScore": 0,
            "playerTotalScore": -2268,
            "oppTotalScore": 2072,
            "waitTime": 5670.647896524344,
            "responseTime": 1678906599584,
            "catchQuestion": "How many <b class=\"r\">red<\/b> marbles did your opponent report drawing? ",
            "catchKey": -1,
            "catchResponse": -1,
            "catchTime": 1678906588253,
            "trialTime": 0
        },
        {
            "exptPart": "trial",
            "trialNumber": 92,
            "roleCurrent": "receiver",
            "marblesSampled": 100,
            "probRed": 0.5,
            "practiceLambda": 5,
            "trialLambda": 21.9,
            "instructedLambda": "dishonest_small",
            "drawnRed": 27,
            "reportedRed": 47,
            "inferredRed": 60,
            "playerTrialScore": -33,
            "oppTrialScore": 33,
            "playerTotalScore": -2301,
            "oppTotalScore": 2105,
            "waitTime": 7305.571963364225,
            "responseTime": 1678906611449,
            "catchQuestion": "How many <b class=\"r\">red<\/b> marbles did your opponent report drawing? ",
            "catchKey": -1,
            "catchResponse": -1,
            "catchTime": 1678906588253,
            "trialTime": 0
        },
        {
            "exptPart": "trial",
            "trialNumber": 93,
            "roleCurrent": "receiver",
            "marblesSampled": 100,
            "probRed": 0.5,
            "practiceLambda": 5,
            "trialLambda": 21.9,
            "instructedLambda": "dishonest_small",
            "drawnRed": 16,
            "reportedRed": 42,
            "inferredRed": 20,
            "playerTrialScore": -4,
            "oppTrialScore": 4,
            "playerTotalScore": -2305,
            "oppTotalScore": 2109,
            "waitTime": 7307.728199996357,
            "responseTime": 1678906627288,
            "catchQuestion": "How many <b class=\"r\">red<\/b> marbles did your opponent report drawing? ",
            "catchKey": -1,
            "catchResponse": -1,
            "catchTime": 1678906588253,
            "trialTime": 0
        },
        {
            "exptPart": "trial",
            "trialNumber": 94,
            "roleCurrent": "receiver",
            "marblesSampled": 100,
            "probRed": 0.5,
            "practiceLambda": 5,
            "trialLambda": 21.9,
            "instructedLambda": "dishonest_small",
            "drawnRed": 42,
            "reportedRed": 64,
            "inferredRed": 73,
            "playerTrialScore": -31,
            "oppTrialScore": 31,
            "playerTotalScore": -2336,
            "oppTotalScore": 2140,
            "waitTime": 6869.64043310011,
            "responseTime": 1678906639944,
            "catchQuestion": "How many <b class=\"r\">red<\/b> marbles did your opponent report drawing? ",
            "catchKey": -1,
            "catchResponse": -1,
            "catchTime": 1678906588253,
            "trialTime": 0
        },
        {
            "exptPart": "trial",
            "trialNumber": 95,
            "roleCurrent": "receiver",
            "marblesSampled": 100,
            "probRed": 0.5,
            "practiceLambda": 5,
            "trialLambda": 21.9,
            "instructedLambda": "dishonest_small",
            "drawnRed": 20,
            "reportedRed": 40,
            "inferredRed": 60,
            "playerTrialScore": -40,
            "oppTrialScore": 40,
            "playerTotalScore": -2376,
            "oppTotalScore": 2180,
            "waitTime": 5687.306308301239,
            "responseTime": 1678906653926,
            "catchQuestion": "How many <b class=\"r\">red<\/b> marbles did your opponent report drawing? ",
            "catchKey": -1,
            "catchResponse": -1,
            "catchTime": 1678906588253,
            "trialTime": 0
        },
        {
            "exptPart": "trial",
            "trialNumber": 96,
            "roleCurrent": "receiver",
            "marblesSampled": 100,
            "probRed": 0.5,
            "practiceLambda": 5,
            "trialLambda": 21.9,
            "instructedLambda": "dishonest_small",
            "drawnRed": 29,
            "reportedRed": 62,
            "inferredRed": 38,
            "playerTrialScore": -9,
            "oppTrialScore": 9,
            "playerTotalScore": -2385,
            "oppTotalScore": 2189,
            "waitTime": 7240.290701378906,
            "responseTime": 1678906671381,
            "catchQuestion": "How many <b class=\"r\">red<\/b> marbles did your opponent report drawing? ",
            "catchKey": -1,
            "catchResponse": -1,
            "catchTime": 1678906588253,
            "trialTime": 0
        },
        {
            "exptPart": "trial",
            "trialNumber": 97,
            "roleCurrent": "receiver",
            "marblesSampled": 100,
            "probRed": 0.5,
            "practiceLambda": 5,
            "trialLambda": 21.9,
            "instructedLambda": "dishonest_small",
            "drawnRed": 49,
            "reportedRed": 63,
            "inferredRed": 37,
            "playerTrialScore": -12,
            "oppTrialScore": 0,
            "playerTotalScore": -2397,
            "oppTotalScore": 2189,
            "waitTime": 5199.483509906217,
            "responseTime": 1678906689457,
            "catchQuestion": "How many <b class=\"r\">red<\/b> marbles did your opponent report drawing? ",
            "catchKey": -1,
            "catchResponse": -1,
            "catchTime": 1678906588253,
            "trialTime": 0
        },
        {
            "exptPart": "trial",
            "trialNumber": 98,
            "roleCurrent": "receiver",
            "marblesSampled": 100,
            "probRed": 0.5,
            "practiceLambda": 5,
            "trialLambda": 21.9,
            "instructedLambda": "dishonest_small",
            "drawnRed": 79,
            "reportedRed": 94,
            "inferredRed": 87,
            "playerTrialScore": -8,
            "oppTrialScore": 8,
            "playerTotalScore": -2405,
            "oppTotalScore": 2197,
            "waitTime": 6389.75467278789,
            "responseTime": 1678906703265,
            "catchQuestion": "How many <b class=\"r\">red<\/b> marbles did your opponent report drawing? ",
            "catchKey": -1,
            "catchResponse": -1,
            "catchTime": 1678906588253,
            "trialTime": 0
        },
        {
            "exptPart": "trial",
            "trialNumber": 99,
            "roleCurrent": "receiver",
            "marblesSampled": 100,
            "probRed": 0.5,
            "practiceLambda": 5,
            "trialLambda": 21.9,
            "instructedLambda": "dishonest_small",
            "drawnRed": 46,
            "reportedRed": 70,
            "inferredRed": 78,
            "playerTrialScore": -32,
            "oppTrialScore": 32,
            "playerTotalScore": -2437,
            "oppTotalScore": 2229,
            "waitTime": 6034.162952200117,
            "responseTime": 1678906712846,
            "catchQuestion": "How many <b class=\"r\">red<\/b> marbles did your opponent report drawing? ",
            "catchKey": -1,
            "catchResponse": -1,
            "catchTime": 1678906588253,
            "trialTime": 0
        },
        {
            "exptPart": "trial",
            "trialNumber": 100,
            "roleCurrent": "receiver",
            "marblesSampled": 100,
            "probRed": 0.5,
            "practiceLambda": 5,
            "trialLambda": 21.9,
            "instructedLambda": "dishonest_small",
            "drawnRed": 67,
            "reportedRed": 92,
            "inferredRed": 98,
            "playerTrialScore": -31,
            "oppTrialScore": 31,
            "playerTotalScore": -2468,
            "oppTotalScore": 2260,
            "waitTime": 5934.5838471063835,
            "responseTime": 1678906723500,
            "catchQuestion": "How many <b class=\"r\">red<\/b> marbles did your opponent report drawing? ",
            "catchKey": 92,
            "catchResponse": 92,
            "catchTime": 1678906723500,
            "trialTime": 0
        }
    ]
}