{
    "client": {
        "type": "sona",
        "experiment_id": 2488,
        "credit_token": "79d15902e9034cb6b65a542be205401c",
        "survey_code": "48040",
        "sid": "sona-48040",
        "window": {
            "width": 1512,
            "height": 866
        },
        "screen": {
            "width": 1512,
            "height": 982
        },
        "userAgent": "Mozilla\/5.0 (Macintosh; Intel Mac OS X 10_15_7) AppleWebKit\/537.36 (KHTML, like Gecko) Chrome\/109.0.0.0 Safari\/537.36",
        "score": 0,
        "bonus": 0
    },
    "expt": {
        "saveURL": "submit.simple.php",
        "trials": 100,
        "practiceTrials": 2,
        "marblesSampled": 100,
        "probRed": 0.5,
        "practiceLambdaAI": 5,
        "lambdaAI": 0.3,
        "roles": [
            "sender",
            "receiver"
        ],
        "cost": "unif",
        "goal": "over",
        "oppDishonesty": "dishonest_big",
        "catchTrials": [
            60,
            54,
            29,
            89,
            8,
            78,
            11,
            96,
            16,
            21
        ],
        "scoreTotal": {
            "player": -773,
            "opp": 322
        },
        "sona": {
            "experiment_id": 2488,
            "credit_token": "79d15902e9034cb6b65a542be205401c"
        },
        "pilot": false,
        "debug": false
    },
    "trials": [
        {
            "exptPart": "practice",
            "trialNumber": 1,
            "roleCurrent": "sender",
            "marblesSampled": 100,
            "probRed": 0.5,
            "practiceLambda": 5,
            "trialLambda": 0.3,
            "instructedLambda": "dishonest_big",
            "drawnRed": 49,
            "reportedRed": 49,
            "inferredRed": 41,
            "playerTrialScore": 0,
            "oppTrialScore": -8,
            "playerTotalScore": 0,
            "oppTotalScore": -8,
            "waitTime": 2187.694512980989,
            "responseTime": 1678907946458,
            "catchQuestion": "How many <b class=\"r\">red<\/b> marbles did you actually draw (before any changes)? ",
            "catchKey": 49,
            "catchResponse": 45,
            "catchTime": 1678907946459,
            "trialTime": 0
        },
        {
            "exptPart": "practice",
            "trialNumber": 2,
            "roleCurrent": "receiver",
            "marblesSampled": 100,
            "probRed": 0.5,
            "practiceLambda": 5,
            "trialLambda": 0.3,
            "instructedLambda": "dishonest_big",
            "drawnRed": 68,
            "reportedRed": 76,
            "inferredRed": 81,
            "playerTrialScore": -13,
            "oppTrialScore": 13,
            "playerTotalScore": -13,
            "oppTotalScore": 5,
            "waitTime": 6161.647937087058,
            "responseTime": 1678908008099,
            "catchQuestion": "How many <b class=\"r\">red<\/b> marbles did your opponent report drawing? ",
            "catchKey": 76,
            "catchResponse": 79,
            "catchTime": 1678908008099,
            "trialTime": 0
        },
        {
            "exptPart": "trial",
            "trialNumber": 1,
            "roleCurrent": "receiver",
            "marblesSampled": 100,
            "probRed": 0.5,
            "practiceLambda": 5,
            "trialLambda": 0.3,
            "instructedLambda": "dishonest_big",
            "drawnRed": 38,
            "reportedRed": 38,
            "inferredRed": 38,
            "playerTrialScore": 0,
            "oppTrialScore": 0,
            "playerTotalScore": 0,
            "oppTotalScore": 0,
            "waitTime": 6965.873282059878,
            "responseTime": 1678908115624,
            "catchQuestion": "How many <b class=\"r\">red<\/b> marbles did your opponent report drawing? ",
            "catchKey": -1,
            "catchResponse": -1,
            "catchTime": 1678908008099,
            "trialTime": 0
        },
        {
            "exptPart": "trial",
            "trialNumber": 2,
            "roleCurrent": "receiver",
            "marblesSampled": 100,
            "probRed": 0.5,
            "practiceLambda": 5,
            "trialLambda": 0.3,
            "instructedLambda": "dishonest_big",
            "drawnRed": 86,
            "reportedRed": 86,
            "inferredRed": 57,
            "playerTrialScore": -29,
            "oppTrialScore": 0,
            "playerTotalScore": -29,
            "oppTotalScore": 0,
            "waitTime": 7444.356478333358,
            "responseTime": 1678908183191,
            "catchQuestion": "How many <b class=\"r\">red<\/b> marbles did your opponent report drawing? ",
            "catchKey": -1,
            "catchResponse": -1,
            "catchTime": 1678908008099,
            "trialTime": 0
        },
        {
            "exptPart": "trial",
            "trialNumber": 3,
            "roleCurrent": "receiver",
            "marblesSampled": 100,
            "probRed": 0.5,
            "practiceLambda": 5,
            "trialLambda": 0.3,
            "instructedLambda": "dishonest_big",
            "drawnRed": 71,
            "reportedRed": 71,
            "inferredRed": 65,
            "playerTrialScore": -6,
            "oppTrialScore": 0,
            "playerTotalScore": -35,
            "oppTotalScore": 0,
            "waitTime": 7011.143983184591,
            "responseTime": 1678908229808,
            "catchQuestion": "How many <b class=\"r\">red<\/b> marbles did your opponent report drawing? ",
            "catchKey": -1,
            "catchResponse": -1,
            "catchTime": 1678908008099,
            "trialTime": 0
        },
        {
            "exptPart": "trial",
            "trialNumber": 4,
            "roleCurrent": "receiver",
            "marblesSampled": 100,
            "probRed": 0.5,
            "practiceLambda": 5,
            "trialLambda": 0.3,
            "instructedLambda": "dishonest_big",
            "drawnRed": 55,
            "reportedRed": 55,
            "inferredRed": 46,
            "playerTrialScore": -9,
            "oppTrialScore": 0,
            "playerTotalScore": -44,
            "oppTotalScore": 0,
            "waitTime": 6396.891885921421,
            "responseTime": 1678908249481,
            "catchQuestion": "How many <b class=\"r\">red<\/b> marbles did your opponent report drawing? ",
            "catchKey": -1,
            "catchResponse": -1,
            "catchTime": 1678908008099,
            "trialTime": 0
        },
        {
            "exptPart": "trial",
            "trialNumber": 5,
            "roleCurrent": "receiver",
            "marblesSampled": 100,
            "probRed": 0.5,
            "practiceLambda": 5,
            "trialLambda": 0.3,
            "instructedLambda": "dishonest_big",
            "drawnRed": 26,
            "reportedRed": 26,
            "inferredRed": 50,
            "playerTrialScore": -24,
            "oppTrialScore": 24,
            "playerTotalScore": -68,
            "oppTotalScore": 24,
            "waitTime": 6566.847296093036,
            "responseTime": 1678908280524,
            "catchQuestion": "How many <b class=\"r\">red<\/b> marbles did your opponent report drawing? ",
            "catchKey": -1,
            "catchResponse": -1,
            "catchTime": 1678908008099,
            "trialTime": 0
        },
        {
            "exptPart": "trial",
            "trialNumber": 6,
            "roleCurrent": "receiver",
            "marblesSampled": 100,
            "probRed": 0.5,
            "practiceLambda": 5,
            "trialLambda": 0.3,
            "instructedLambda": "dishonest_big",
            "drawnRed": 75,
            "reportedRed": 75,
            "inferredRed": 60,
            "playerTrialScore": -15,
            "oppTrialScore": 0,
            "playerTotalScore": -83,
            "oppTotalScore": 24,
            "waitTime": 5649.016763803844,
            "responseTime": 1678908295441,
            "catchQuestion": "How many <b class=\"r\">red<\/b> marbles did your opponent report drawing? ",
            "catchKey": -1,
            "catchResponse": -1,
            "catchTime": 1678908008099,
            "trialTime": 0
        },
        {
            "exptPart": "trial",
            "trialNumber": 7,
            "roleCurrent": "receiver",
            "marblesSampled": 100,
            "probRed": 0.5,
            "practiceLambda": 5,
            "trialLambda": 0.3,
            "instructedLambda": "dishonest_big",
            "drawnRed": 61,
            "reportedRed": 62,
            "inferredRed": 45,
            "playerTrialScore": -16,
            "oppTrialScore": 0,
            "playerTotalScore": -99,
            "oppTotalScore": 24,
            "waitTime": 7288.999785648886,
            "responseTime": 1678908335532,
            "catchQuestion": "How many <b class=\"r\">red<\/b> marbles did your opponent report drawing? ",
            "catchKey": -1,
            "catchResponse": -1,
            "catchTime": 1678908008099,
            "trialTime": 0
        },
        {
            "exptPart": "trial",
            "trialNumber": 8,
            "roleCurrent": "receiver",
            "marblesSampled": 100,
            "probRed": 0.5,
            "practiceLambda": 5,
            "trialLambda": 0.3,
            "instructedLambda": "dishonest_big",
            "drawnRed": 39,
            "reportedRed": 39,
            "inferredRed": 46,
            "playerTrialScore": -7,
            "oppTrialScore": 7,
            "playerTotalScore": -106,
            "oppTotalScore": 31,
            "waitTime": 5685.38260736455,
            "responseTime": 1678908402374,
            "catchQuestion": "How many <b class=\"r\">red<\/b> marbles did your opponent report drawing? ",
            "catchKey": -1,
            "catchResponse": -1,
            "catchTime": 1678908008099,
            "trialTime": 0
        },
        {
            "exptPart": "trial",
            "trialNumber": 9,
            "roleCurrent": "receiver",
            "marblesSampled": 100,
            "probRed": 0.5,
            "practiceLambda": 5,
            "trialLambda": 0.3,
            "instructedLambda": "dishonest_big",
            "drawnRed": 51,
            "reportedRed": 52,
            "inferredRed": 50,
            "playerTrialScore": -1,
            "oppTrialScore": 0,
            "playerTotalScore": -107,
            "oppTotalScore": 31,
            "waitTime": 6321.99885882749,
            "responseTime": 1678908416892,
            "catchQuestion": "How many <b class=\"r\">red<\/b> marbles did your opponent report drawing? ",
            "catchKey": 52,
            "catchResponse": 52,
            "catchTime": 1678908416892,
            "trialTime": 0
        },
        {
            "exptPart": "trial",
            "trialNumber": 10,
            "roleCurrent": "receiver",
            "marblesSampled": 100,
            "probRed": 0.5,
            "practiceLambda": 5,
            "trialLambda": 0.3,
            "instructedLambda": "dishonest_big",
            "drawnRed": 84,
            "reportedRed": 84,
            "inferredRed": 75,
            "playerTrialScore": -9,
            "oppTrialScore": 0,
            "playerTotalScore": -116,
            "oppTotalScore": 31,
            "waitTime": 7439.3137857171,
            "responseTime": 1678908442990,
            "catchQuestion": "How many <b class=\"r\">red<\/b> marbles did your opponent report drawing? ",
            "catchKey": -1,
            "catchResponse": -1,
            "catchTime": 1678908442990,
            "trialTime": 0
        },
        {
            "exptPart": "trial",
            "trialNumber": 11,
            "roleCurrent": "receiver",
            "marblesSampled": 100,
            "probRed": 0.5,
            "practiceLambda": 5,
            "trialLambda": 0.3,
            "instructedLambda": "dishonest_big",
            "drawnRed": 70,
            "reportedRed": 70,
            "inferredRed": 70,
            "playerTrialScore": 0,
            "oppTrialScore": 0,
            "playerTotalScore": -116,
            "oppTotalScore": 31,
            "waitTime": 5347.706492222499,
            "responseTime": 1678908476882,
            "catchQuestion": "How many <b class=\"r\">red<\/b> marbles did your opponent report drawing? ",
            "catchKey": -1,
            "catchResponse": -1,
            "catchTime": 1678908442990,
            "trialTime": 0
        },
        {
            "exptPart": "trial",
            "trialNumber": 12,
            "roleCurrent": "receiver",
            "marblesSampled": 100,
            "probRed": 0.5,
            "practiceLambda": 5,
            "trialLambda": 0.3,
            "instructedLambda": "dishonest_big",
            "drawnRed": 25,
            "reportedRed": 26,
            "inferredRed": 30,
            "playerTrialScore": -5,
            "oppTrialScore": 5,
            "playerTotalScore": -121,
            "oppTotalScore": 36,
            "waitTime": 6942.7944548102805,
            "responseTime": 1678908487985,
            "catchQuestion": "How many <b class=\"r\">red<\/b> marbles did your opponent report drawing? ",
            "catchKey": 26,
            "catchResponse": 26,
            "catchTime": 1678908487985,
            "trialTime": 0
        },
        {
            "exptPart": "trial",
            "trialNumber": 13,
            "roleCurrent": "receiver",
            "marblesSampled": 100,
            "probRed": 0.5,
            "practiceLambda": 5,
            "trialLambda": 0.3,
            "instructedLambda": "dishonest_big",
            "drawnRed": 10,
            "reportedRed": 11,
            "inferredRed": 15,
            "playerTrialScore": -5,
            "oppTrialScore": 5,
            "playerTotalScore": -126,
            "oppTotalScore": 41,
            "waitTime": 5468.363709902453,
            "responseTime": 1678908510932,
            "catchQuestion": "How many <b class=\"r\">red<\/b> marbles did your opponent report drawing? ",
            "catchKey": -1,
            "catchResponse": -1,
            "catchTime": 1678908487985,
            "trialTime": 0
        },
        {
            "exptPart": "trial",
            "trialNumber": 14,
            "roleCurrent": "receiver",
            "marblesSampled": 100,
            "probRed": 0.5,
            "practiceLambda": 5,
            "trialLambda": 0.3,
            "instructedLambda": "dishonest_big",
            "drawnRed": 46,
            "reportedRed": 46,
            "inferredRed": 50,
            "playerTrialScore": -4,
            "oppTrialScore": 4,
            "playerTotalScore": -130,
            "oppTotalScore": 45,
            "waitTime": 5791.978347493907,
            "responseTime": 1678908520401,
            "catchQuestion": "How many <b class=\"r\">red<\/b> marbles did your opponent report drawing? ",
            "catchKey": -1,
            "catchResponse": -1,
            "catchTime": 1678908487985,
            "trialTime": 0
        },
        {
            "exptPart": "trial",
            "trialNumber": 15,
            "roleCurrent": "receiver",
            "marblesSampled": 100,
            "probRed": 0.5,
            "practiceLambda": 5,
            "trialLambda": 0.3,
            "instructedLambda": "dishonest_big",
            "drawnRed": 63,
            "reportedRed": 63,
            "inferredRed": 60,
            "playerTrialScore": -3,
            "oppTrialScore": 0,
            "playerTotalScore": -133,
            "oppTotalScore": 45,
            "waitTime": 6171.839161339408,
            "responseTime": 1678908533389,
            "catchQuestion": "How many <b class=\"r\">red<\/b> marbles did your opponent report drawing? ",
            "catchKey": -1,
            "catchResponse": -1,
            "catchTime": 1678908487985,
            "trialTime": 0
        },
        {
            "exptPart": "trial",
            "trialNumber": 16,
            "roleCurrent": "receiver",
            "marblesSampled": 100,
            "probRed": 0.5,
            "practiceLambda": 5,
            "trialLambda": 0.3,
            "instructedLambda": "dishonest_big",
            "drawnRed": 17,
            "reportedRed": 17,
            "inferredRed": 30,
            "playerTrialScore": -13,
            "oppTrialScore": 13,
            "playerTotalScore": -146,
            "oppTotalScore": 58,
            "waitTime": 6130.0640196349195,
            "responseTime": 1678908547566,
            "catchQuestion": "How many <b class=\"r\">red<\/b> marbles did your opponent report drawing? ",
            "catchKey": -1,
            "catchResponse": -1,
            "catchTime": 1678908487985,
            "trialTime": 0
        },
        {
            "exptPart": "trial",
            "trialNumber": 17,
            "roleCurrent": "receiver",
            "marblesSampled": 100,
            "probRed": 0.5,
            "practiceLambda": 5,
            "trialLambda": 0.3,
            "instructedLambda": "dishonest_big",
            "drawnRed": 74,
            "reportedRed": 74,
            "inferredRed": 60,
            "playerTrialScore": -14,
            "oppTrialScore": 0,
            "playerTotalScore": -160,
            "oppTotalScore": 58,
            "waitTime": 5764.028589400064,
            "responseTime": 1678908557933,
            "catchQuestion": "How many <b class=\"r\">red<\/b> marbles did your opponent report drawing? ",
            "catchKey": 74,
            "catchResponse": 74,
            "catchTime": 1678908557933,
            "trialTime": 0
        },
        {
            "exptPart": "trial",
            "trialNumber": 18,
            "roleCurrent": "receiver",
            "marblesSampled": 100,
            "probRed": 0.5,
            "practiceLambda": 5,
            "trialLambda": 0.3,
            "instructedLambda": "dishonest_big",
            "drawnRed": 23,
            "reportedRed": 23,
            "inferredRed": 30,
            "playerTrialScore": -7,
            "oppTrialScore": 7,
            "playerTotalScore": -167,
            "oppTotalScore": 65,
            "waitTime": 5703.101553696119,
            "responseTime": 1678908572565,
            "catchQuestion": "How many <b class=\"r\">red<\/b> marbles did your opponent report drawing? ",
            "catchKey": -1,
            "catchResponse": -1,
            "catchTime": 1678908557933,
            "trialTime": 0
        },
        {
            "exptPart": "trial",
            "trialNumber": 19,
            "roleCurrent": "receiver",
            "marblesSampled": 100,
            "probRed": 0.5,
            "practiceLambda": 5,
            "trialLambda": 0.3,
            "instructedLambda": "dishonest_big",
            "drawnRed": 64,
            "reportedRed": 64,
            "inferredRed": 65,
            "playerTrialScore": -1,
            "oppTrialScore": 1,
            "playerTotalScore": -168,
            "oppTotalScore": 66,
            "waitTime": 6922.932368335168,
            "responseTime": 1678908597083,
            "catchQuestion": "How many <b class=\"r\">red<\/b> marbles did your opponent report drawing? ",
            "catchKey": -1,
            "catchResponse": -1,
            "catchTime": 1678908557933,
            "trialTime": 0
        },
        {
            "exptPart": "trial",
            "trialNumber": 20,
            "roleCurrent": "receiver",
            "marblesSampled": 100,
            "probRed": 0.5,
            "practiceLambda": 5,
            "trialLambda": 0.3,
            "instructedLambda": "dishonest_big",
            "drawnRed": 44,
            "reportedRed": 44,
            "inferredRed": 40,
            "playerTrialScore": -4,
            "oppTrialScore": 0,
            "playerTotalScore": -172,
            "oppTotalScore": 66,
            "waitTime": 6539.092399290623,
            "responseTime": 1678908611249,
            "catchQuestion": "How many <b class=\"r\">red<\/b> marbles did your opponent report drawing? ",
            "catchKey": -1,
            "catchResponse": -1,
            "catchTime": 1678908611249,
            "trialTime": 0
        },
        {
            "exptPart": "trial",
            "trialNumber": 21,
            "roleCurrent": "receiver",
            "marblesSampled": 100,
            "probRed": 0.5,
            "practiceLambda": 5,
            "trialLambda": 0.3,
            "instructedLambda": "dishonest_big",
            "drawnRed": 78,
            "reportedRed": 79,
            "inferredRed": 80,
            "playerTrialScore": -2,
            "oppTrialScore": 2,
            "playerTotalScore": -174,
            "oppTotalScore": 68,
            "waitTime": 5357.608931358777,
            "responseTime": 1678908651740,
            "catchQuestion": "How many <b class=\"r\">red<\/b> marbles did your opponent report drawing? ",
            "catchKey": -1,
            "catchResponse": -1,
            "catchTime": 1678908611249,
            "trialTime": 0
        },
        {
            "exptPart": "trial",
            "trialNumber": 22,
            "roleCurrent": "receiver",
            "marblesSampled": 100,
            "probRed": 0.5,
            "practiceLambda": 5,
            "trialLambda": 0.3,
            "instructedLambda": "dishonest_big",
            "drawnRed": 72,
            "reportedRed": 72,
            "inferredRed": 50,
            "playerTrialScore": -22,
            "oppTrialScore": 0,
            "playerTotalScore": -196,
            "oppTotalScore": 68,
            "waitTime": 5200.647915284335,
            "responseTime": 1678908661901,
            "catchQuestion": "How many <b class=\"r\">red<\/b> marbles did your opponent report drawing? ",
            "catchKey": 72,
            "catchResponse": 72,
            "catchTime": 1678908661901,
            "trialTime": 0
        },
        {
            "exptPart": "trial",
            "trialNumber": 23,
            "roleCurrent": "receiver",
            "marblesSampled": 100,
            "probRed": 0.5,
            "practiceLambda": 5,
            "trialLambda": 0.3,
            "instructedLambda": "dishonest_big",
            "drawnRed": 61,
            "reportedRed": 61,
            "inferredRed": 70,
            "playerTrialScore": -9,
            "oppTrialScore": 9,
            "playerTotalScore": -205,
            "oppTotalScore": 77,
            "waitTime": 6292.185794447321,
            "responseTime": 1678908678207,
            "catchQuestion": "How many <b class=\"r\">red<\/b> marbles did your opponent report drawing? ",
            "catchKey": -1,
            "catchResponse": -1,
            "catchTime": 1678908661901,
            "trialTime": 0
        },
        {
            "exptPart": "trial",
            "trialNumber": 24,
            "roleCurrent": "receiver",
            "marblesSampled": 100,
            "probRed": 0.5,
            "practiceLambda": 5,
            "trialLambda": 0.3,
            "instructedLambda": "dishonest_big",
            "drawnRed": 39,
            "reportedRed": 39,
            "inferredRed": 45,
            "playerTrialScore": -6,
            "oppTrialScore": 6,
            "playerTotalScore": -211,
            "oppTotalScore": 83,
            "waitTime": 6405.623785768745,
            "responseTime": 1678908689300,
            "catchQuestion": "How many <b class=\"r\">red<\/b> marbles did your opponent report drawing? ",
            "catchKey": -1,
            "catchResponse": -1,
            "catchTime": 1678908661901,
            "trialTime": 0
        },
        {
            "exptPart": "trial",
            "trialNumber": 25,
            "roleCurrent": "receiver",
            "marblesSampled": 100,
            "probRed": 0.5,
            "practiceLambda": 5,
            "trialLambda": 0.3,
            "instructedLambda": "dishonest_big",
            "drawnRed": 33,
            "reportedRed": 33,
            "inferredRed": 40,
            "playerTrialScore": -7,
            "oppTrialScore": 7,
            "playerTotalScore": -218,
            "oppTotalScore": 90,
            "waitTime": 5849.88284421696,
            "responseTime": 1678908703868,
            "catchQuestion": "How many <b class=\"r\">red<\/b> marbles did your opponent report drawing? ",
            "catchKey": -1,
            "catchResponse": -1,
            "catchTime": 1678908661901,
            "trialTime": 0
        },
        {
            "exptPart": "trial",
            "trialNumber": 26,
            "roleCurrent": "receiver",
            "marblesSampled": 100,
            "probRed": 0.5,
            "practiceLambda": 5,
            "trialLambda": 0.3,
            "instructedLambda": "dishonest_big",
            "drawnRed": 51,
            "reportedRed": 51,
            "inferredRed": 40,
            "playerTrialScore": -11,
            "oppTrialScore": 0,
            "playerTotalScore": -229,
            "oppTotalScore": 90,
            "waitTime": 7164.333423793594,
            "responseTime": 1678908716666,
            "catchQuestion": "How many <b class=\"r\">red<\/b> marbles did your opponent report drawing? ",
            "catchKey": -1,
            "catchResponse": -1,
            "catchTime": 1678908661901,
            "trialTime": 0
        },
        {
            "exptPart": "trial",
            "trialNumber": 27,
            "roleCurrent": "receiver",
            "marblesSampled": 100,
            "probRed": 0.5,
            "practiceLambda": 5,
            "trialLambda": 0.3,
            "instructedLambda": "dishonest_big",
            "drawnRed": 61,
            "reportedRed": 61,
            "inferredRed": 60,
            "playerTrialScore": -1,
            "oppTrialScore": 0,
            "playerTotalScore": -230,
            "oppTotalScore": 90,
            "waitTime": 5711.01887196049,
            "responseTime": 1678908733592,
            "catchQuestion": "How many <b class=\"r\">red<\/b> marbles did your opponent report drawing? ",
            "catchKey": -1,
            "catchResponse": -1,
            "catchTime": 1678908661901,
            "trialTime": 0
        },
        {
            "exptPart": "trial",
            "trialNumber": 28,
            "roleCurrent": "receiver",
            "marblesSampled": 100,
            "probRed": 0.5,
            "practiceLambda": 5,
            "trialLambda": 0.3,
            "instructedLambda": "dishonest_big",
            "drawnRed": 81,
            "reportedRed": 81,
            "inferredRed": 75,
            "playerTrialScore": -6,
            "oppTrialScore": 0,
            "playerTotalScore": -236,
            "oppTotalScore": 90,
            "waitTime": 6863.088365112819,
            "responseTime": 1678908753998,
            "catchQuestion": "How many <b class=\"r\">red<\/b> marbles did your opponent report drawing? ",
            "catchKey": -1,
            "catchResponse": -1,
            "catchTime": 1678908661901,
            "trialTime": 0
        },
        {
            "exptPart": "trial",
            "trialNumber": 29,
            "roleCurrent": "receiver",
            "marblesSampled": 100,
            "probRed": 0.5,
            "practiceLambda": 5,
            "trialLambda": 0.3,
            "instructedLambda": "dishonest_big",
            "drawnRed": 28,
            "reportedRed": 28,
            "inferredRed": 30,
            "playerTrialScore": -2,
            "oppTrialScore": 2,
            "playerTotalScore": -238,
            "oppTotalScore": 92,
            "waitTime": 6268.652171683696,
            "responseTime": 1678908792084,
            "catchQuestion": "How many <b class=\"r\">red<\/b> marbles did your opponent report drawing? ",
            "catchKey": -1,
            "catchResponse": -1,
            "catchTime": 1678908661901,
            "trialTime": 0
        },
        {
            "exptPart": "trial",
            "trialNumber": 30,
            "roleCurrent": "receiver",
            "marblesSampled": 100,
            "probRed": 0.5,
            "practiceLambda": 5,
            "trialLambda": 0.3,
            "instructedLambda": "dishonest_big",
            "drawnRed": 79,
            "reportedRed": 79,
            "inferredRed": 65,
            "playerTrialScore": -14,
            "oppTrialScore": 0,
            "playerTotalScore": -252,
            "oppTotalScore": 92,
            "waitTime": 6959.234895055413,
            "responseTime": 1678908807575,
            "catchQuestion": "How many <b class=\"r\">red<\/b> marbles did your opponent report drawing? ",
            "catchKey": 79,
            "catchResponse": 79,
            "catchTime": 1678908807575,
            "trialTime": 0
        },
        {
            "exptPart": "trial",
            "trialNumber": 31,
            "roleCurrent": "receiver",
            "marblesSampled": 100,
            "probRed": 0.5,
            "practiceLambda": 5,
            "trialLambda": 0.3,
            "instructedLambda": "dishonest_big",
            "drawnRed": 18,
            "reportedRed": 18,
            "inferredRed": 45,
            "playerTrialScore": -27,
            "oppTrialScore": 27,
            "playerTotalScore": -279,
            "oppTotalScore": 119,
            "waitTime": 7346.478062733279,
            "responseTime": 1678908844267,
            "catchQuestion": "How many <b class=\"r\">red<\/b> marbles did your opponent report drawing? ",
            "catchKey": -1,
            "catchResponse": -1,
            "catchTime": 1678908807575,
            "trialTime": 0
        },
        {
            "exptPart": "trial",
            "trialNumber": 32,
            "roleCurrent": "receiver",
            "marblesSampled": 100,
            "probRed": 0.5,
            "practiceLambda": 5,
            "trialLambda": 0.3,
            "instructedLambda": "dishonest_big",
            "drawnRed": 35,
            "reportedRed": 35,
            "inferredRed": 50,
            "playerTrialScore": -15,
            "oppTrialScore": 15,
            "playerTotalScore": -294,
            "oppTotalScore": 134,
            "waitTime": 5370.7968166541705,
            "responseTime": 1678908853341,
            "catchQuestion": "How many <b class=\"r\">red<\/b> marbles did your opponent report drawing? ",
            "catchKey": -1,
            "catchResponse": -1,
            "catchTime": 1678908807575,
            "trialTime": 0
        },
        {
            "exptPart": "trial",
            "trialNumber": 33,
            "roleCurrent": "receiver",
            "marblesSampled": 100,
            "probRed": 0.5,
            "practiceLambda": 5,
            "trialLambda": 0.3,
            "instructedLambda": "dishonest_big",
            "drawnRed": 28,
            "reportedRed": 28,
            "inferredRed": 28,
            "playerTrialScore": 0,
            "oppTrialScore": 0,
            "playerTotalScore": -294,
            "oppTotalScore": 134,
            "waitTime": 6675.061545474041,
            "responseTime": 1678908864466,
            "catchQuestion": "How many <b class=\"r\">red<\/b> marbles did your opponent report drawing? ",
            "catchKey": -1,
            "catchResponse": -1,
            "catchTime": 1678908807575,
            "trialTime": 0
        },
        {
            "exptPart": "trial",
            "trialNumber": 34,
            "roleCurrent": "receiver",
            "marblesSampled": 100,
            "probRed": 0.5,
            "practiceLambda": 5,
            "trialLambda": 0.3,
            "instructedLambda": "dishonest_big",
            "drawnRed": 45,
            "reportedRed": 45,
            "inferredRed": 45,
            "playerTrialScore": 0,
            "oppTrialScore": 0,
            "playerTotalScore": -294,
            "oppTotalScore": 134,
            "waitTime": 6187.719068427454,
            "responseTime": 1678908873615,
            "catchQuestion": "How many <b class=\"r\">red<\/b> marbles did your opponent report drawing? ",
            "catchKey": -1,
            "catchResponse": -1,
            "catchTime": 1678908807575,
            "trialTime": 0
        },
        {
            "exptPart": "trial",
            "trialNumber": 35,
            "roleCurrent": "receiver",
            "marblesSampled": 100,
            "probRed": 0.5,
            "practiceLambda": 5,
            "trialLambda": 0.3,
            "instructedLambda": "dishonest_big",
            "drawnRed": 53,
            "reportedRed": 54,
            "inferredRed": 80,
            "playerTrialScore": -27,
            "oppTrialScore": 27,
            "playerTotalScore": -321,
            "oppTotalScore": 161,
            "waitTime": 5128.049630941362,
            "responseTime": 1678908897824,
            "catchQuestion": "How many <b class=\"r\">red<\/b> marbles did your opponent report drawing? ",
            "catchKey": -1,
            "catchResponse": -1,
            "catchTime": 1678908807575,
            "trialTime": 0
        },
        {
            "exptPart": "trial",
            "trialNumber": 36,
            "roleCurrent": "receiver",
            "marblesSampled": 100,
            "probRed": 0.5,
            "practiceLambda": 5,
            "trialLambda": 0.3,
            "instructedLambda": "dishonest_big",
            "drawnRed": 32,
            "reportedRed": 32,
            "inferredRed": 45,
            "playerTrialScore": -13,
            "oppTrialScore": 13,
            "playerTotalScore": -334,
            "oppTotalScore": 174,
            "waitTime": 5476.448640405256,
            "responseTime": 1678908906725,
            "catchQuestion": "How many <b class=\"r\">red<\/b> marbles did your opponent report drawing? ",
            "catchKey": -1,
            "catchResponse": -1,
            "catchTime": 1678908807575,
            "trialTime": 0
        },
        {
            "exptPart": "trial",
            "trialNumber": 37,
            "roleCurrent": "receiver",
            "marblesSampled": 100,
            "probRed": 0.5,
            "practiceLambda": 5,
            "trialLambda": 0.3,
            "instructedLambda": "dishonest_big",
            "drawnRed": 61,
            "reportedRed": 61,
            "inferredRed": 50,
            "playerTrialScore": -11,
            "oppTrialScore": 0,
            "playerTotalScore": -345,
            "oppTotalScore": 174,
            "waitTime": 6314.218628931731,
            "responseTime": 1678908916558,
            "catchQuestion": "How many <b class=\"r\">red<\/b> marbles did your opponent report drawing? ",
            "catchKey": -1,
            "catchResponse": -1,
            "catchTime": 1678908807575,
            "trialTime": 0
        },
        {
            "exptPart": "trial",
            "trialNumber": 38,
            "roleCurrent": "receiver",
            "marblesSampled": 100,
            "probRed": 0.5,
            "practiceLambda": 5,
            "trialLambda": 0.3,
            "instructedLambda": "dishonest_big",
            "drawnRed": 58,
            "reportedRed": 58,
            "inferredRed": 50,
            "playerTrialScore": -8,
            "oppTrialScore": 0,
            "playerTotalScore": -353,
            "oppTotalScore": 174,
            "waitTime": 5483.309421648879,
            "responseTime": 1678908924916,
            "catchQuestion": "How many <b class=\"r\">red<\/b> marbles did your opponent report drawing? ",
            "catchKey": -1,
            "catchResponse": -1,
            "catchTime": 1678908807575,
            "trialTime": 0
        },
        {
            "exptPart": "trial",
            "trialNumber": 39,
            "roleCurrent": "receiver",
            "marblesSampled": 100,
            "probRed": 0.5,
            "practiceLambda": 5,
            "trialLambda": 0.3,
            "instructedLambda": "dishonest_big",
            "drawnRed": 77,
            "reportedRed": 77,
            "inferredRed": 75,
            "playerTrialScore": -2,
            "oppTrialScore": 0,
            "playerTotalScore": -355,
            "oppTotalScore": 174,
            "waitTime": 6449.495559638153,
            "responseTime": 1678908936658,
            "catchQuestion": "How many <b class=\"r\">red<\/b> marbles did your opponent report drawing? ",
            "catchKey": -1,
            "catchResponse": -1,
            "catchTime": 1678908807575,
            "trialTime": 0
        },
        {
            "exptPart": "trial",
            "trialNumber": 40,
            "roleCurrent": "receiver",
            "marblesSampled": 100,
            "probRed": 0.5,
            "practiceLambda": 5,
            "trialLambda": 0.3,
            "instructedLambda": "dishonest_big",
            "drawnRed": 29,
            "reportedRed": 29,
            "inferredRed": 30,
            "playerTrialScore": -1,
            "oppTrialScore": 1,
            "playerTotalScore": -356,
            "oppTotalScore": 175,
            "waitTime": 7158.450225669502,
            "responseTime": 1678908952565,
            "catchQuestion": "How many <b class=\"r\">red<\/b> marbles did your opponent report drawing? ",
            "catchKey": -1,
            "catchResponse": -1,
            "catchTime": 1678908952565,
            "trialTime": 0
        },
        {
            "exptPart": "trial",
            "trialNumber": 41,
            "roleCurrent": "receiver",
            "marblesSampled": 100,
            "probRed": 0.5,
            "practiceLambda": 5,
            "trialLambda": 0.3,
            "instructedLambda": "dishonest_big",
            "drawnRed": 11,
            "reportedRed": 11,
            "inferredRed": 11,
            "playerTrialScore": 0,
            "oppTrialScore": 0,
            "playerTotalScore": -356,
            "oppTotalScore": 175,
            "waitTime": 6118.165784203523,
            "responseTime": 1678908970949,
            "catchQuestion": "How many <b class=\"r\">red<\/b> marbles did your opponent report drawing? ",
            "catchKey": -1,
            "catchResponse": -1,
            "catchTime": 1678908952565,
            "trialTime": 0
        },
        {
            "exptPart": "trial",
            "trialNumber": 42,
            "roleCurrent": "receiver",
            "marblesSampled": 100,
            "probRed": 0.5,
            "practiceLambda": 5,
            "trialLambda": 0.3,
            "instructedLambda": "dishonest_big",
            "drawnRed": 35,
            "reportedRed": 35,
            "inferredRed": 45,
            "playerTrialScore": -10,
            "oppTrialScore": 10,
            "playerTotalScore": -366,
            "oppTotalScore": 185,
            "waitTime": 5825.321611359507,
            "responseTime": 1678908980077,
            "catchQuestion": "How many <b class=\"r\">red<\/b> marbles did your opponent report drawing? ",
            "catchKey": -1,
            "catchResponse": -1,
            "catchTime": 1678908952565,
            "trialTime": 0
        },
        {
            "exptPart": "trial",
            "trialNumber": 43,
            "roleCurrent": "receiver",
            "marblesSampled": 100,
            "probRed": 0.5,
            "practiceLambda": 5,
            "trialLambda": 0.3,
            "instructedLambda": "dishonest_big",
            "drawnRed": 56,
            "reportedRed": 56,
            "inferredRed": 55,
            "playerTrialScore": -1,
            "oppTrialScore": 0,
            "playerTotalScore": -367,
            "oppTotalScore": 185,
            "waitTime": 5913.241095292661,
            "responseTime": 1678908989082,
            "catchQuestion": "How many <b class=\"r\">red<\/b> marbles did your opponent report drawing? ",
            "catchKey": -1,
            "catchResponse": -1,
            "catchTime": 1678908952565,
            "trialTime": 0
        },
        {
            "exptPart": "trial",
            "trialNumber": 44,
            "roleCurrent": "receiver",
            "marblesSampled": 100,
            "probRed": 0.5,
            "practiceLambda": 5,
            "trialLambda": 0.3,
            "instructedLambda": "dishonest_big",
            "drawnRed": 81,
            "reportedRed": 82,
            "inferredRed": 80,
            "playerTrialScore": -1,
            "oppTrialScore": 0,
            "playerTotalScore": -368,
            "oppTotalScore": 185,
            "waitTime": 5454.831145686825,
            "responseTime": 1678908998598,
            "catchQuestion": "How many <b class=\"r\">red<\/b> marbles did your opponent report drawing? ",
            "catchKey": -1,
            "catchResponse": -1,
            "catchTime": 1678908952565,
            "trialTime": 0
        },
        {
            "exptPart": "trial",
            "trialNumber": 45,
            "roleCurrent": "receiver",
            "marblesSampled": 100,
            "probRed": 0.5,
            "practiceLambda": 5,
            "trialLambda": 0.3,
            "instructedLambda": "dishonest_big",
            "drawnRed": 74,
            "reportedRed": 75,
            "inferredRed": 75,
            "playerTrialScore": -1,
            "oppTrialScore": 1,
            "playerTotalScore": -369,
            "oppTotalScore": 186,
            "waitTime": 7007.326867570244,
            "responseTime": 1678909022258,
            "catchQuestion": "How many <b class=\"r\">red<\/b> marbles did your opponent report drawing? ",
            "catchKey": -1,
            "catchResponse": -1,
            "catchTime": 1678908952565,
            "trialTime": 0
        },
        {
            "exptPart": "trial",
            "trialNumber": 46,
            "roleCurrent": "receiver",
            "marblesSampled": 100,
            "probRed": 0.5,
            "practiceLambda": 5,
            "trialLambda": 0.3,
            "instructedLambda": "dishonest_big",
            "drawnRed": 47,
            "reportedRed": 47,
            "inferredRed": 50,
            "playerTrialScore": -3,
            "oppTrialScore": 3,
            "playerTotalScore": -372,
            "oppTotalScore": 189,
            "waitTime": 7194.502443984348,
            "responseTime": 1678909033316,
            "catchQuestion": "How many <b class=\"r\">red<\/b> marbles did your opponent report drawing? ",
            "catchKey": -1,
            "catchResponse": -1,
            "catchTime": 1678908952565,
            "trialTime": 0
        },
        {
            "exptPart": "trial",
            "trialNumber": 47,
            "roleCurrent": "receiver",
            "marblesSampled": 100,
            "probRed": 0.5,
            "practiceLambda": 5,
            "trialLambda": 0.3,
            "instructedLambda": "dishonest_big",
            "drawnRed": 23,
            "reportedRed": 25,
            "inferredRed": 30,
            "playerTrialScore": -7,
            "oppTrialScore": 7,
            "playerTotalScore": -379,
            "oppTotalScore": 196,
            "waitTime": 7128.083091899275,
            "responseTime": 1678909045601,
            "catchQuestion": "How many <b class=\"r\">red<\/b> marbles did your opponent report drawing? ",
            "catchKey": -1,
            "catchResponse": -1,
            "catchTime": 1678908952565,
            "trialTime": 0
        },
        {
            "exptPart": "trial",
            "trialNumber": 48,
            "roleCurrent": "receiver",
            "marblesSampled": 100,
            "probRed": 0.5,
            "practiceLambda": 5,
            "trialLambda": 0.3,
            "instructedLambda": "dishonest_big",
            "drawnRed": 74,
            "reportedRed": 74,
            "inferredRed": 48,
            "playerTrialScore": -26,
            "oppTrialScore": 0,
            "playerTotalScore": -405,
            "oppTotalScore": 196,
            "waitTime": 6971.378447205665,
            "responseTime": 1678909059241,
            "catchQuestion": "How many <b class=\"r\">red<\/b> marbles did your opponent report drawing? ",
            "catchKey": -1,
            "catchResponse": -1,
            "catchTime": 1678908952565,
            "trialTime": 0
        },
        {
            "exptPart": "trial",
            "trialNumber": 49,
            "roleCurrent": "receiver",
            "marblesSampled": 100,
            "probRed": 0.5,
            "practiceLambda": 5,
            "trialLambda": 0.3,
            "instructedLambda": "dishonest_big",
            "drawnRed": 67,
            "reportedRed": 67,
            "inferredRed": 49,
            "playerTrialScore": -18,
            "oppTrialScore": 0,
            "playerTotalScore": -423,
            "oppTotalScore": 196,
            "waitTime": 6844.9702512673275,
            "responseTime": 1678909069183,
            "catchQuestion": "How many <b class=\"r\">red<\/b> marbles did your opponent report drawing? ",
            "catchKey": -1,
            "catchResponse": -1,
            "catchTime": 1678908952565,
            "trialTime": 0
        },
        {
            "exptPart": "trial",
            "trialNumber": 50,
            "roleCurrent": "receiver",
            "marblesSampled": 100,
            "probRed": 0.5,
            "practiceLambda": 5,
            "trialLambda": 0.3,
            "instructedLambda": "dishonest_big",
            "drawnRed": 48,
            "reportedRed": 48,
            "inferredRed": 50,
            "playerTrialScore": -2,
            "oppTrialScore": 2,
            "playerTotalScore": -425,
            "oppTotalScore": 198,
            "waitTime": 7416.052171444956,
            "responseTime": 1678909079892,
            "catchQuestion": "How many <b class=\"r\">red<\/b> marbles did your opponent report drawing? ",
            "catchKey": -1,
            "catchResponse": -1,
            "catchTime": 1678909079892,
            "trialTime": 0
        },
        {
            "exptPart": "trial",
            "trialNumber": 51,
            "roleCurrent": "receiver",
            "marblesSampled": 100,
            "probRed": 0.5,
            "practiceLambda": 5,
            "trialLambda": 0.3,
            "instructedLambda": "dishonest_big",
            "drawnRed": 33,
            "reportedRed": 34,
            "inferredRed": 34,
            "playerTrialScore": -1,
            "oppTrialScore": 1,
            "playerTotalScore": -426,
            "oppTotalScore": 199,
            "waitTime": 5608.2644921486535,
            "responseTime": 1678909102443,
            "catchQuestion": "How many <b class=\"r\">red<\/b> marbles did your opponent report drawing? ",
            "catchKey": -1,
            "catchResponse": -1,
            "catchTime": 1678909079892,
            "trialTime": 0
        },
        {
            "exptPart": "trial",
            "trialNumber": 52,
            "roleCurrent": "receiver",
            "marblesSampled": 100,
            "probRed": 0.5,
            "practiceLambda": 5,
            "trialLambda": 0.3,
            "instructedLambda": "dishonest_big",
            "drawnRed": 87,
            "reportedRed": 87,
            "inferredRed": 50,
            "playerTrialScore": -37,
            "oppTrialScore": 0,
            "playerTotalScore": -463,
            "oppTotalScore": 199,
            "waitTime": 5448.748658798591,
            "responseTime": 1678909112499,
            "catchQuestion": "How many <b class=\"r\">red<\/b> marbles did your opponent report drawing? ",
            "catchKey": -1,
            "catchResponse": -1,
            "catchTime": 1678909079892,
            "trialTime": 0
        },
        {
            "exptPart": "trial",
            "trialNumber": 53,
            "roleCurrent": "receiver",
            "marblesSampled": 100,
            "probRed": 0.5,
            "practiceLambda": 5,
            "trialLambda": 0.3,
            "instructedLambda": "dishonest_big",
            "drawnRed": 66,
            "reportedRed": 67,
            "inferredRed": 65,
            "playerTrialScore": -1,
            "oppTrialScore": 0,
            "playerTotalScore": -464,
            "oppTotalScore": 199,
            "waitTime": 5150.242397689839,
            "responseTime": 1678909141241,
            "catchQuestion": "How many <b class=\"r\">red<\/b> marbles did your opponent report drawing? ",
            "catchKey": -1,
            "catchResponse": -1,
            "catchTime": 1678909079892,
            "trialTime": 0
        },
        {
            "exptPart": "trial",
            "trialNumber": 54,
            "roleCurrent": "receiver",
            "marblesSampled": 100,
            "probRed": 0.5,
            "practiceLambda": 5,
            "trialLambda": 0.3,
            "instructedLambda": "dishonest_big",
            "drawnRed": 81,
            "reportedRed": 83,
            "inferredRed": 50,
            "playerTrialScore": -31,
            "oppTrialScore": 0,
            "playerTotalScore": -495,
            "oppTotalScore": 199,
            "waitTime": 5320.540190601626,
            "responseTime": 1678909150825,
            "catchQuestion": "How many <b class=\"r\">red<\/b> marbles did your opponent report drawing? ",
            "catchKey": -1,
            "catchResponse": -1,
            "catchTime": 1678909079892,
            "trialTime": 0
        },
        {
            "exptPart": "trial",
            "trialNumber": 55,
            "roleCurrent": "receiver",
            "marblesSampled": 100,
            "probRed": 0.5,
            "practiceLambda": 5,
            "trialLambda": 0.3,
            "instructedLambda": "dishonest_big",
            "drawnRed": 46,
            "reportedRed": 46,
            "inferredRed": 55,
            "playerTrialScore": -9,
            "oppTrialScore": 9,
            "playerTotalScore": -504,
            "oppTotalScore": 208,
            "waitTime": 6469.4490892991325,
            "responseTime": 1678909179475,
            "catchQuestion": "How many <b class=\"r\">red<\/b> marbles did your opponent report drawing? ",
            "catchKey": 46,
            "catchResponse": 46,
            "catchTime": 1678909179475,
            "trialTime": 0
        },
        {
            "exptPart": "trial",
            "trialNumber": 56,
            "roleCurrent": "receiver",
            "marblesSampled": 100,
            "probRed": 0.5,
            "practiceLambda": 5,
            "trialLambda": 0.3,
            "instructedLambda": "dishonest_big",
            "drawnRed": 42,
            "reportedRed": 42,
            "inferredRed": 50,
            "playerTrialScore": -8,
            "oppTrialScore": 8,
            "playerTotalScore": -512,
            "oppTotalScore": 216,
            "waitTime": 5213.2675072177535,
            "responseTime": 1678909201601,
            "catchQuestion": "How many <b class=\"r\">red<\/b> marbles did your opponent report drawing? ",
            "catchKey": -1,
            "catchResponse": -1,
            "catchTime": 1678909179475,
            "trialTime": 0
        },
        {
            "exptPart": "trial",
            "trialNumber": 57,
            "roleCurrent": "receiver",
            "marblesSampled": 100,
            "probRed": 0.5,
            "practiceLambda": 5,
            "trialLambda": 0.3,
            "instructedLambda": "dishonest_big",
            "drawnRed": 75,
            "reportedRed": 75,
            "inferredRed": 75,
            "playerTrialScore": 0,
            "oppTrialScore": 0,
            "playerTotalScore": -512,
            "oppTotalScore": 216,
            "waitTime": 5886.649781062717,
            "responseTime": 1678909213807,
            "catchQuestion": "How many <b class=\"r\">red<\/b> marbles did your opponent report drawing? ",
            "catchKey": -1,
            "catchResponse": -1,
            "catchTime": 1678909179475,
            "trialTime": 0
        },
        {
            "exptPart": "trial",
            "trialNumber": 58,
            "roleCurrent": "receiver",
            "marblesSampled": 100,
            "probRed": 0.5,
            "practiceLambda": 5,
            "trialLambda": 0.3,
            "instructedLambda": "dishonest_big",
            "drawnRed": 67,
            "reportedRed": 67,
            "inferredRed": 58,
            "playerTrialScore": -9,
            "oppTrialScore": 0,
            "playerTotalScore": -521,
            "oppTotalScore": 216,
            "waitTime": 5690.947205211249,
            "responseTime": 1678909256242,
            "catchQuestion": "How many <b class=\"r\">red<\/b> marbles did your opponent report drawing? ",
            "catchKey": -1,
            "catchResponse": -1,
            "catchTime": 1678909179475,
            "trialTime": 0
        },
        {
            "exptPart": "trial",
            "trialNumber": 59,
            "roleCurrent": "receiver",
            "marblesSampled": 100,
            "probRed": 0.5,
            "practiceLambda": 5,
            "trialLambda": 0.3,
            "instructedLambda": "dishonest_big",
            "drawnRed": 42,
            "reportedRed": 42,
            "inferredRed": 45,
            "playerTrialScore": -3,
            "oppTrialScore": 3,
            "playerTotalScore": -524,
            "oppTotalScore": 219,
            "waitTime": 5543.05007385504,
            "responseTime": 1678909266217,
            "catchQuestion": "How many <b class=\"r\">red<\/b> marbles did your opponent report drawing? ",
            "catchKey": -1,
            "catchResponse": -1,
            "catchTime": 1678909179475,
            "trialTime": 0
        },
        {
            "exptPart": "trial",
            "trialNumber": 60,
            "roleCurrent": "receiver",
            "marblesSampled": 100,
            "probRed": 0.5,
            "practiceLambda": 5,
            "trialLambda": 0.3,
            "instructedLambda": "dishonest_big",
            "drawnRed": 67,
            "reportedRed": 67,
            "inferredRed": 65,
            "playerTrialScore": -2,
            "oppTrialScore": 0,
            "playerTotalScore": -526,
            "oppTotalScore": 219,
            "waitTime": 6436.744152523073,
            "responseTime": 1678909277133,
            "catchQuestion": "How many <b class=\"r\">red<\/b> marbles did your opponent report drawing? ",
            "catchKey": -1,
            "catchResponse": -1,
            "catchTime": 1678909277133,
            "trialTime": 0
        },
        {
            "exptPart": "trial",
            "trialNumber": 61,
            "roleCurrent": "receiver",
            "marblesSampled": 100,
            "probRed": 0.5,
            "practiceLambda": 5,
            "trialLambda": 0.3,
            "instructedLambda": "dishonest_big",
            "drawnRed": 71,
            "reportedRed": 71,
            "inferredRed": 70,
            "playerTrialScore": -1,
            "oppTrialScore": 0,
            "playerTotalScore": -527,
            "oppTotalScore": 219,
            "waitTime": 5746.97012533869,
            "responseTime": 1678909293218,
            "catchQuestion": "How many <b class=\"r\">red<\/b> marbles did your opponent report drawing? ",
            "catchKey": 71,
            "catchResponse": 71,
            "catchTime": 1678909293218,
            "trialTime": 0
        },
        {
            "exptPart": "trial",
            "trialNumber": 62,
            "roleCurrent": "receiver",
            "marblesSampled": 100,
            "probRed": 0.5,
            "practiceLambda": 5,
            "trialLambda": 0.3,
            "instructedLambda": "dishonest_big",
            "drawnRed": 45,
            "reportedRed": 45,
            "inferredRed": 45,
            "playerTrialScore": 0,
            "oppTrialScore": 0,
            "playerTotalScore": -527,
            "oppTotalScore": 219,
            "waitTime": 5870.883941182309,
            "responseTime": 1678909307601,
            "catchQuestion": "How many <b class=\"r\">red<\/b> marbles did your opponent report drawing? ",
            "catchKey": -1,
            "catchResponse": -1,
            "catchTime": 1678909293218,
            "trialTime": 0
        },
        {
            "exptPart": "trial",
            "trialNumber": 63,
            "roleCurrent": "receiver",
            "marblesSampled": 100,
            "probRed": 0.5,
            "practiceLambda": 5,
            "trialLambda": 0.3,
            "instructedLambda": "dishonest_big",
            "drawnRed": 67,
            "reportedRed": 67,
            "inferredRed": 50,
            "playerTrialScore": -17,
            "oppTrialScore": 0,
            "playerTotalScore": -544,
            "oppTotalScore": 219,
            "waitTime": 5505.4385797961295,
            "responseTime": 1678909319583,
            "catchQuestion": "How many <b class=\"r\">red<\/b> marbles did your opponent report drawing? ",
            "catchKey": -1,
            "catchResponse": -1,
            "catchTime": 1678909293218,
            "trialTime": 0
        },
        {
            "exptPart": "trial",
            "trialNumber": 64,
            "roleCurrent": "receiver",
            "marblesSampled": 100,
            "probRed": 0.5,
            "practiceLambda": 5,
            "trialLambda": 0.3,
            "instructedLambda": "dishonest_big",
            "drawnRed": 95,
            "reportedRed": 95,
            "inferredRed": 75,
            "playerTrialScore": -20,
            "oppTrialScore": 0,
            "playerTotalScore": -564,
            "oppTotalScore": 219,
            "waitTime": 5480.15287002506,
            "responseTime": 1678909341024,
            "catchQuestion": "How many <b class=\"r\">red<\/b> marbles did your opponent report drawing? ",
            "catchKey": -1,
            "catchResponse": -1,
            "catchTime": 1678909293218,
            "trialTime": 0
        },
        {
            "exptPart": "trial",
            "trialNumber": 65,
            "roleCurrent": "receiver",
            "marblesSampled": 100,
            "probRed": 0.5,
            "practiceLambda": 5,
            "trialLambda": 0.3,
            "instructedLambda": "dishonest_big",
            "drawnRed": 61,
            "reportedRed": 61,
            "inferredRed": 60,
            "playerTrialScore": -1,
            "oppTrialScore": 0,
            "playerTotalScore": -565,
            "oppTotalScore": 219,
            "waitTime": 7150.980479701236,
            "responseTime": 1678909353509,
            "catchQuestion": "How many <b class=\"r\">red<\/b> marbles did your opponent report drawing? ",
            "catchKey": -1,
            "catchResponse": -1,
            "catchTime": 1678909293218,
            "trialTime": 0
        },
        {
            "exptPart": "trial",
            "trialNumber": 66,
            "roleCurrent": "receiver",
            "marblesSampled": 100,
            "probRed": 0.5,
            "practiceLambda": 5,
            "trialLambda": 0.3,
            "instructedLambda": "dishonest_big",
            "drawnRed": 55,
            "reportedRed": 55,
            "inferredRed": 55,
            "playerTrialScore": 0,
            "oppTrialScore": 0,
            "playerTotalScore": -565,
            "oppTotalScore": 219,
            "waitTime": 6829.585182852183,
            "responseTime": 1678909365317,
            "catchQuestion": "How many <b class=\"r\">red<\/b> marbles did your opponent report drawing? ",
            "catchKey": -1,
            "catchResponse": -1,
            "catchTime": 1678909293218,
            "trialTime": 0
        },
        {
            "exptPart": "trial",
            "trialNumber": 67,
            "roleCurrent": "receiver",
            "marblesSampled": 100,
            "probRed": 0.5,
            "practiceLambda": 5,
            "trialLambda": 0.3,
            "instructedLambda": "dishonest_big",
            "drawnRed": 16,
            "reportedRed": 16,
            "inferredRed": 30,
            "playerTrialScore": -14,
            "oppTrialScore": 14,
            "playerTotalScore": -579,
            "oppTotalScore": 233,
            "waitTime": 5375.032917728633,
            "responseTime": 1678909375975,
            "catchQuestion": "How many <b class=\"r\">red<\/b> marbles did your opponent report drawing? ",
            "catchKey": -1,
            "catchResponse": -1,
            "catchTime": 1678909293218,
            "trialTime": 0
        },
        {
            "exptPart": "trial",
            "trialNumber": 68,
            "roleCurrent": "receiver",
            "marblesSampled": 100,
            "probRed": 0.5,
            "practiceLambda": 5,
            "trialLambda": 0.3,
            "instructedLambda": "dishonest_big",
            "drawnRed": 61,
            "reportedRed": 61,
            "inferredRed": 68,
            "playerTrialScore": -7,
            "oppTrialScore": 7,
            "playerTotalScore": -586,
            "oppTotalScore": 240,
            "waitTime": 6225.124276174074,
            "responseTime": 1678909408043,
            "catchQuestion": "How many <b class=\"r\">red<\/b> marbles did your opponent report drawing? ",
            "catchKey": -1,
            "catchResponse": -1,
            "catchTime": 1678909293218,
            "trialTime": 0
        },
        {
            "exptPart": "trial",
            "trialNumber": 69,
            "roleCurrent": "receiver",
            "marblesSampled": 100,
            "probRed": 0.5,
            "practiceLambda": 5,
            "trialLambda": 0.3,
            "instructedLambda": "dishonest_big",
            "drawnRed": 65,
            "reportedRed": 65,
            "inferredRed": 69,
            "playerTrialScore": -4,
            "oppTrialScore": 4,
            "playerTotalScore": -590,
            "oppTotalScore": 244,
            "waitTime": 6512.143142705419,
            "responseTime": 1678909419067,
            "catchQuestion": "How many <b class=\"r\">red<\/b> marbles did your opponent report drawing? ",
            "catchKey": -1,
            "catchResponse": -1,
            "catchTime": 1678909293218,
            "trialTime": 0
        },
        {
            "exptPart": "trial",
            "trialNumber": 70,
            "roleCurrent": "receiver",
            "marblesSampled": 100,
            "probRed": 0.5,
            "practiceLambda": 5,
            "trialLambda": 0.3,
            "instructedLambda": "dishonest_big",
            "drawnRed": 54,
            "reportedRed": 54,
            "inferredRed": 60,
            "playerTrialScore": -6,
            "oppTrialScore": 6,
            "playerTotalScore": -596,
            "oppTotalScore": 250,
            "waitTime": 6550.959115473152,
            "responseTime": 1678909429152,
            "catchQuestion": "How many <b class=\"r\">red<\/b> marbles did your opponent report drawing? ",
            "catchKey": -1,
            "catchResponse": -1,
            "catchTime": 1678909429152,
            "trialTime": 0
        },
        {
            "exptPart": "trial",
            "trialNumber": 71,
            "roleCurrent": "receiver",
            "marblesSampled": 100,
            "probRed": 0.5,
            "practiceLambda": 5,
            "trialLambda": 0.3,
            "instructedLambda": "dishonest_big",
            "drawnRed": 54,
            "reportedRed": 54,
            "inferredRed": 50,
            "playerTrialScore": -4,
            "oppTrialScore": 0,
            "playerTotalScore": -600,
            "oppTotalScore": 250,
            "waitTime": 5173.099968322862,
            "responseTime": 1678909444768,
            "catchQuestion": "How many <b class=\"r\">red<\/b> marbles did your opponent report drawing? ",
            "catchKey": -1,
            "catchResponse": -1,
            "catchTime": 1678909429152,
            "trialTime": 0
        },
        {
            "exptPart": "trial",
            "trialNumber": 72,
            "roleCurrent": "receiver",
            "marblesSampled": 100,
            "probRed": 0.5,
            "practiceLambda": 5,
            "trialLambda": 0.3,
            "instructedLambda": "dishonest_big",
            "drawnRed": 61,
            "reportedRed": 61,
            "inferredRed": 65,
            "playerTrialScore": -4,
            "oppTrialScore": 4,
            "playerTotalScore": -604,
            "oppTotalScore": 254,
            "waitTime": 7054.4243725820215,
            "responseTime": 1678909461076,
            "catchQuestion": "How many <b class=\"r\">red<\/b> marbles did your opponent report drawing? ",
            "catchKey": -1,
            "catchResponse": -1,
            "catchTime": 1678909429152,
            "trialTime": 0
        },
        {
            "exptPart": "trial",
            "trialNumber": 73,
            "roleCurrent": "receiver",
            "marblesSampled": 100,
            "probRed": 0.5,
            "practiceLambda": 5,
            "trialLambda": 0.3,
            "instructedLambda": "dishonest_big",
            "drawnRed": 31,
            "reportedRed": 31,
            "inferredRed": 50,
            "playerTrialScore": -19,
            "oppTrialScore": 19,
            "playerTotalScore": -623,
            "oppTotalScore": 273,
            "waitTime": 5374.8930273780625,
            "responseTime": 1678909475295,
            "catchQuestion": "How many <b class=\"r\">red<\/b> marbles did your opponent report drawing? ",
            "catchKey": -1,
            "catchResponse": -1,
            "catchTime": 1678909429152,
            "trialTime": 0
        },
        {
            "exptPart": "trial",
            "trialNumber": 74,
            "roleCurrent": "receiver",
            "marblesSampled": 100,
            "probRed": 0.5,
            "practiceLambda": 5,
            "trialLambda": 0.3,
            "instructedLambda": "dishonest_big",
            "drawnRed": 69,
            "reportedRed": 69,
            "inferredRed": 65,
            "playerTrialScore": -4,
            "oppTrialScore": 0,
            "playerTotalScore": -627,
            "oppTotalScore": 273,
            "waitTime": 5617.31485927709,
            "responseTime": 1678909507933,
            "catchQuestion": "How many <b class=\"r\">red<\/b> marbles did your opponent report drawing? ",
            "catchKey": -1,
            "catchResponse": -1,
            "catchTime": 1678909429152,
            "trialTime": 0
        },
        {
            "exptPart": "trial",
            "trialNumber": 75,
            "roleCurrent": "receiver",
            "marblesSampled": 100,
            "probRed": 0.5,
            "practiceLambda": 5,
            "trialLambda": 0.3,
            "instructedLambda": "dishonest_big",
            "drawnRed": 75,
            "reportedRed": 75,
            "inferredRed": 75,
            "playerTrialScore": 0,
            "oppTrialScore": 0,
            "playerTotalScore": -627,
            "oppTotalScore": 273,
            "waitTime": 5133.284933475483,
            "responseTime": 1678909516866,
            "catchQuestion": "How many <b class=\"r\">red<\/b> marbles did your opponent report drawing? ",
            "catchKey": -1,
            "catchResponse": -1,
            "catchTime": 1678909429152,
            "trialTime": 0
        },
        {
            "exptPart": "trial",
            "trialNumber": 76,
            "roleCurrent": "receiver",
            "marblesSampled": 100,
            "probRed": 0.5,
            "practiceLambda": 5,
            "trialLambda": 0.3,
            "instructedLambda": "dishonest_big",
            "drawnRed": 20,
            "reportedRed": 20,
            "inferredRed": 20,
            "playerTrialScore": 0,
            "oppTrialScore": 0,
            "playerTotalScore": -627,
            "oppTotalScore": 273,
            "waitTime": 6757.943089424303,
            "responseTime": 1678909529575,
            "catchQuestion": "How many <b class=\"r\">red<\/b> marbles did your opponent report drawing? ",
            "catchKey": -1,
            "catchResponse": -1,
            "catchTime": 1678909429152,
            "trialTime": 0
        },
        {
            "exptPart": "trial",
            "trialNumber": 77,
            "roleCurrent": "receiver",
            "marblesSampled": 100,
            "probRed": 0.5,
            "practiceLambda": 5,
            "trialLambda": 0.3,
            "instructedLambda": "dishonest_big",
            "drawnRed": 38,
            "reportedRed": 40,
            "inferredRed": 45,
            "playerTrialScore": -7,
            "oppTrialScore": 7,
            "playerTotalScore": -634,
            "oppTotalScore": 280,
            "waitTime": 6667.670259734206,
            "responseTime": 1678909544251,
            "catchQuestion": "How many <b class=\"r\">red<\/b> marbles did your opponent report drawing? ",
            "catchKey": -1,
            "catchResponse": -1,
            "catchTime": 1678909429152,
            "trialTime": 0
        },
        {
            "exptPart": "trial",
            "trialNumber": 78,
            "roleCurrent": "receiver",
            "marblesSampled": 100,
            "probRed": 0.5,
            "practiceLambda": 5,
            "trialLambda": 0.3,
            "instructedLambda": "dishonest_big",
            "drawnRed": 33,
            "reportedRed": 34,
            "inferredRed": 35,
            "playerTrialScore": -2,
            "oppTrialScore": 2,
            "playerTotalScore": -636,
            "oppTotalScore": 282,
            "waitTime": 5363.9778125055855,
            "responseTime": 1678909553751,
            "catchQuestion": "How many <b class=\"r\">red<\/b> marbles did your opponent report drawing? ",
            "catchKey": -1,
            "catchResponse": -1,
            "catchTime": 1678909429152,
            "trialTime": 0
        },
        {
            "exptPart": "trial",
            "trialNumber": 79,
            "roleCurrent": "receiver",
            "marblesSampled": 100,
            "probRed": 0.5,
            "practiceLambda": 5,
            "trialLambda": 0.3,
            "instructedLambda": "dishonest_big",
            "drawnRed": 6,
            "reportedRed": 6,
            "inferredRed": 10,
            "playerTrialScore": -4,
            "oppTrialScore": 4,
            "playerTotalScore": -640,
            "oppTotalScore": 286,
            "waitTime": 5708.2560441605565,
            "responseTime": 1678909564217,
            "catchQuestion": "How many <b class=\"r\">red<\/b> marbles did your opponent report drawing? ",
            "catchKey": 6,
            "catchResponse": 6,
            "catchTime": 1678909564217,
            "trialTime": 0
        },
        {
            "exptPart": "trial",
            "trialNumber": 80,
            "roleCurrent": "receiver",
            "marblesSampled": 100,
            "probRed": 0.5,
            "practiceLambda": 5,
            "trialLambda": 0.3,
            "instructedLambda": "dishonest_big",
            "drawnRed": 76,
            "reportedRed": 76,
            "inferredRed": 45,
            "playerTrialScore": -31,
            "oppTrialScore": 0,
            "playerTotalScore": -671,
            "oppTotalScore": 286,
            "waitTime": 7378.698809185814,
            "responseTime": 1678909582202,
            "catchQuestion": "How many <b class=\"r\">red<\/b> marbles did your opponent report drawing? ",
            "catchKey": -1,
            "catchResponse": -1,
            "catchTime": 1678909582202,
            "trialTime": 0
        },
        {
            "exptPart": "trial",
            "trialNumber": 81,
            "roleCurrent": "receiver",
            "marblesSampled": 100,
            "probRed": 0.5,
            "practiceLambda": 5,
            "trialLambda": 0.3,
            "instructedLambda": "dishonest_big",
            "drawnRed": 48,
            "reportedRed": 48,
            "inferredRed": 50,
            "playerTrialScore": -2,
            "oppTrialScore": 2,
            "playerTotalScore": -673,
            "oppTotalScore": 288,
            "waitTime": 5792.350365256851,
            "responseTime": 1678909593976,
            "catchQuestion": "How many <b class=\"r\">red<\/b> marbles did your opponent report drawing? ",
            "catchKey": -1,
            "catchResponse": -1,
            "catchTime": 1678909582202,
            "trialTime": 0
        },
        {
            "exptPart": "trial",
            "trialNumber": 82,
            "roleCurrent": "receiver",
            "marblesSampled": 100,
            "probRed": 0.5,
            "practiceLambda": 5,
            "trialLambda": 0.3,
            "instructedLambda": "dishonest_big",
            "drawnRed": 55,
            "reportedRed": 55,
            "inferredRed": 45,
            "playerTrialScore": -10,
            "oppTrialScore": 0,
            "playerTotalScore": -683,
            "oppTotalScore": 288,
            "waitTime": 5417.541197213609,
            "responseTime": 1678909604959,
            "catchQuestion": "How many <b class=\"r\">red<\/b> marbles did your opponent report drawing? ",
            "catchKey": -1,
            "catchResponse": -1,
            "catchTime": 1678909582202,
            "trialTime": 0
        },
        {
            "exptPart": "trial",
            "trialNumber": 83,
            "roleCurrent": "receiver",
            "marblesSampled": 100,
            "probRed": 0.5,
            "practiceLambda": 5,
            "trialLambda": 0.3,
            "instructedLambda": "dishonest_big",
            "drawnRed": 36,
            "reportedRed": 38,
            "inferredRed": 45,
            "playerTrialScore": -9,
            "oppTrialScore": 9,
            "playerTotalScore": -692,
            "oppTotalScore": 297,
            "waitTime": 5450.172467184448,
            "responseTime": 1678909617101,
            "catchQuestion": "How many <b class=\"r\">red<\/b> marbles did your opponent report drawing? ",
            "catchKey": -1,
            "catchResponse": -1,
            "catchTime": 1678909582202,
            "trialTime": 0
        },
        {
            "exptPart": "trial",
            "trialNumber": 84,
            "roleCurrent": "receiver",
            "marblesSampled": 100,
            "probRed": 0.5,
            "practiceLambda": 5,
            "trialLambda": 0.3,
            "instructedLambda": "dishonest_big",
            "drawnRed": 33,
            "reportedRed": 34,
            "inferredRed": 34,
            "playerTrialScore": -1,
            "oppTrialScore": 1,
            "playerTotalScore": -693,
            "oppTotalScore": 298,
            "waitTime": 5624.365211709017,
            "responseTime": 1678909628436,
            "catchQuestion": "How many <b class=\"r\">red<\/b> marbles did your opponent report drawing? ",
            "catchKey": -1,
            "catchResponse": -1,
            "catchTime": 1678909582202,
            "trialTime": 0
        },
        {
            "exptPart": "trial",
            "trialNumber": 85,
            "roleCurrent": "receiver",
            "marblesSampled": 100,
            "probRed": 0.5,
            "practiceLambda": 5,
            "trialLambda": 0.3,
            "instructedLambda": "dishonest_big",
            "drawnRed": 45,
            "reportedRed": 46,
            "inferredRed": 45,
            "playerTrialScore": 0,
            "oppTrialScore": 0,
            "playerTotalScore": -693,
            "oppTotalScore": 298,
            "waitTime": 5851.5265277667295,
            "responseTime": 1678909646568,
            "catchQuestion": "How many <b class=\"r\">red<\/b> marbles did your opponent report drawing? ",
            "catchKey": -1,
            "catchResponse": -1,
            "catchTime": 1678909582202,
            "trialTime": 0
        },
        {
            "exptPart": "trial",
            "trialNumber": 86,
            "roleCurrent": "receiver",
            "marblesSampled": 100,
            "probRed": 0.5,
            "practiceLambda": 5,
            "trialLambda": 0.3,
            "instructedLambda": "dishonest_big",
            "drawnRed": 75,
            "reportedRed": 75,
            "inferredRed": 75,
            "playerTrialScore": 0,
            "oppTrialScore": 0,
            "playerTotalScore": -693,
            "oppTotalScore": 298,
            "waitTime": 6280.933124209379,
            "responseTime": 1678909685560,
            "catchQuestion": "How many <b class=\"r\">red<\/b> marbles did your opponent report drawing? ",
            "catchKey": -1,
            "catchResponse": -1,
            "catchTime": 1678909582202,
            "trialTime": 0
        },
        {
            "exptPart": "trial",
            "trialNumber": 87,
            "roleCurrent": "receiver",
            "marblesSampled": 100,
            "probRed": 0.5,
            "practiceLambda": 5,
            "trialLambda": 0.3,
            "instructedLambda": "dishonest_big",
            "drawnRed": 49,
            "reportedRed": 49,
            "inferredRed": 45,
            "playerTrialScore": -4,
            "oppTrialScore": 0,
            "playerTotalScore": -697,
            "oppTotalScore": 298,
            "waitTime": 5370.46323840689,
            "responseTime": 1678909699537,
            "catchQuestion": "How many <b class=\"r\">red<\/b> marbles did your opponent report drawing? ",
            "catchKey": -1,
            "catchResponse": -1,
            "catchTime": 1678909582202,
            "trialTime": 0
        },
        {
            "exptPart": "trial",
            "trialNumber": 88,
            "roleCurrent": "receiver",
            "marblesSampled": 100,
            "probRed": 0.5,
            "practiceLambda": 5,
            "trialLambda": 0.3,
            "instructedLambda": "dishonest_big",
            "drawnRed": 63,
            "reportedRed": 63,
            "inferredRed": 55,
            "playerTrialScore": -8,
            "oppTrialScore": 0,
            "playerTotalScore": -705,
            "oppTotalScore": 298,
            "waitTime": 5374.309588083848,
            "responseTime": 1678909773256,
            "catchQuestion": "How many <b class=\"r\">red<\/b> marbles did your opponent report drawing? ",
            "catchKey": -1,
            "catchResponse": -1,
            "catchTime": 1678909582202,
            "trialTime": 0
        },
        {
            "exptPart": "trial",
            "trialNumber": 89,
            "roleCurrent": "receiver",
            "marblesSampled": 100,
            "probRed": 0.5,
            "practiceLambda": 5,
            "trialLambda": 0.3,
            "instructedLambda": "dishonest_big",
            "drawnRed": 24,
            "reportedRed": 24,
            "inferredRed": 30,
            "playerTrialScore": -6,
            "oppTrialScore": 6,
            "playerTotalScore": -711,
            "oppTotalScore": 304,
            "waitTime": 5747.782306755971,
            "responseTime": 1678909782139,
            "catchQuestion": "How many <b class=\"r\">red<\/b> marbles did your opponent report drawing? ",
            "catchKey": -1,
            "catchResponse": -1,
            "catchTime": 1678909582202,
            "trialTime": 0
        },
        {
            "exptPart": "trial",
            "trialNumber": 90,
            "roleCurrent": "receiver",
            "marblesSampled": 100,
            "probRed": 0.5,
            "practiceLambda": 5,
            "trialLambda": 0.3,
            "instructedLambda": "dishonest_big",
            "drawnRed": 56,
            "reportedRed": 56,
            "inferredRed": 50,
            "playerTrialScore": -6,
            "oppTrialScore": 0,
            "playerTotalScore": -717,
            "oppTotalScore": 304,
            "waitTime": 5338.808641738048,
            "responseTime": 1678909791234,
            "catchQuestion": "How many <b class=\"r\">red<\/b> marbles did your opponent report drawing? ",
            "catchKey": 56,
            "catchResponse": 56,
            "catchTime": 1678909791234,
            "trialTime": 0
        },
        {
            "exptPart": "trial",
            "trialNumber": 91,
            "roleCurrent": "receiver",
            "marblesSampled": 100,
            "probRed": 0.5,
            "practiceLambda": 5,
            "trialLambda": 0.3,
            "instructedLambda": "dishonest_big",
            "drawnRed": 44,
            "reportedRed": 44,
            "inferredRed": 45,
            "playerTrialScore": -1,
            "oppTrialScore": 1,
            "playerTotalScore": -718,
            "oppTotalScore": 305,
            "waitTime": 5932.188204380259,
            "responseTime": 1678909814624,
            "catchQuestion": "How many <b class=\"r\">red<\/b> marbles did your opponent report drawing? ",
            "catchKey": -1,
            "catchResponse": -1,
            "catchTime": 1678909791234,
            "trialTime": 0
        },
        {
            "exptPart": "trial",
            "trialNumber": 92,
            "roleCurrent": "receiver",
            "marblesSampled": 100,
            "probRed": 0.5,
            "practiceLambda": 5,
            "trialLambda": 0.3,
            "instructedLambda": "dishonest_big",
            "drawnRed": 52,
            "reportedRed": 52,
            "inferredRed": 55,
            "playerTrialScore": -3,
            "oppTrialScore": 3,
            "playerTotalScore": -721,
            "oppTotalScore": 308,
            "waitTime": 6278.287318156641,
            "responseTime": 1678909825639,
            "catchQuestion": "How many <b class=\"r\">red<\/b> marbles did your opponent report drawing? ",
            "catchKey": -1,
            "catchResponse": -1,
            "catchTime": 1678909791234,
            "trialTime": 0
        },
        {
            "exptPart": "trial",
            "trialNumber": 93,
            "roleCurrent": "receiver",
            "marblesSampled": 100,
            "probRed": 0.5,
            "practiceLambda": 5,
            "trialLambda": 0.3,
            "instructedLambda": "dishonest_big",
            "drawnRed": 67,
            "reportedRed": 67,
            "inferredRed": 60,
            "playerTrialScore": -7,
            "oppTrialScore": 0,
            "playerTotalScore": -728,
            "oppTotalScore": 308,
            "waitTime": 5915.490036211686,
            "responseTime": 1678909835983,
            "catchQuestion": "How many <b class=\"r\">red<\/b> marbles did your opponent report drawing? ",
            "catchKey": -1,
            "catchResponse": -1,
            "catchTime": 1678909791234,
            "trialTime": 0
        },
        {
            "exptPart": "trial",
            "trialNumber": 94,
            "roleCurrent": "receiver",
            "marblesSampled": 100,
            "probRed": 0.5,
            "practiceLambda": 5,
            "trialLambda": 0.3,
            "instructedLambda": "dishonest_big",
            "drawnRed": 56,
            "reportedRed": 56,
            "inferredRed": 50,
            "playerTrialScore": -6,
            "oppTrialScore": 0,
            "playerTotalScore": -734,
            "oppTotalScore": 308,
            "waitTime": 5344.042725425177,
            "responseTime": 1678909845040,
            "catchQuestion": "How many <b class=\"r\">red<\/b> marbles did your opponent report drawing? ",
            "catchKey": -1,
            "catchResponse": -1,
            "catchTime": 1678909791234,
            "trialTime": 0
        },
        {
            "exptPart": "trial",
            "trialNumber": 95,
            "roleCurrent": "receiver",
            "marblesSampled": 100,
            "probRed": 0.5,
            "practiceLambda": 5,
            "trialLambda": 0.3,
            "instructedLambda": "dishonest_big",
            "drawnRed": 50,
            "reportedRed": 50,
            "inferredRed": 50,
            "playerTrialScore": 0,
            "oppTrialScore": 0,
            "playerTotalScore": -734,
            "oppTotalScore": 308,
            "waitTime": 5875.86903956413,
            "responseTime": 1678909854409,
            "catchQuestion": "How many <b class=\"r\">red<\/b> marbles did your opponent report drawing? ",
            "catchKey": -1,
            "catchResponse": -1,
            "catchTime": 1678909791234,
            "trialTime": 0
        },
        {
            "exptPart": "trial",
            "trialNumber": 96,
            "roleCurrent": "receiver",
            "marblesSampled": 100,
            "probRed": 0.5,
            "practiceLambda": 5,
            "trialLambda": 0.3,
            "instructedLambda": "dishonest_big",
            "drawnRed": 70,
            "reportedRed": 70,
            "inferredRed": 65,
            "playerTrialScore": -5,
            "oppTrialScore": 0,
            "playerTotalScore": -739,
            "oppTotalScore": 308,
            "waitTime": 7489.932713181808,
            "responseTime": 1678909865958,
            "catchQuestion": "How many <b class=\"r\">red<\/b> marbles did your opponent report drawing? ",
            "catchKey": -1,
            "catchResponse": -1,
            "catchTime": 1678909791234,
            "trialTime": 0
        },
        {
            "exptPart": "trial",
            "trialNumber": 97,
            "roleCurrent": "receiver",
            "marblesSampled": 100,
            "probRed": 0.5,
            "practiceLambda": 5,
            "trialLambda": 0.3,
            "instructedLambda": "dishonest_big",
            "drawnRed": 70,
            "reportedRed": 70,
            "inferredRed": 50,
            "playerTrialScore": -20,
            "oppTrialScore": 0,
            "playerTotalScore": -759,
            "oppTotalScore": 308,
            "waitTime": 5413.218711371161,
            "responseTime": 1678909875825,
            "catchQuestion": "How many <b class=\"r\">red<\/b> marbles did your opponent report drawing? ",
            "catchKey": 70,
            "catchResponse": 70,
            "catchTime": 1678909875826,
            "trialTime": 0
        },
        {
            "exptPart": "trial",
            "trialNumber": 98,
            "roleCurrent": "receiver",
            "marblesSampled": 100,
            "probRed": 0.5,
            "practiceLambda": 5,
            "trialLambda": 0.3,
            "instructedLambda": "dishonest_big",
            "drawnRed": 55,
            "reportedRed": 55,
            "inferredRed": 55,
            "playerTrialScore": 0,
            "oppTrialScore": 0,
            "playerTotalScore": -759,
            "oppTotalScore": 308,
            "waitTime": 6509.181495291901,
            "responseTime": 1678909891808,
            "catchQuestion": "How many <b class=\"r\">red<\/b> marbles did your opponent report drawing? ",
            "catchKey": -1,
            "catchResponse": -1,
            "catchTime": 1678909875826,
            "trialTime": 0
        },
        {
            "exptPart": "trial",
            "trialNumber": 99,
            "roleCurrent": "receiver",
            "marblesSampled": 100,
            "probRed": 0.5,
            "practiceLambda": 5,
            "trialLambda": 0.3,
            "instructedLambda": "dishonest_big",
            "drawnRed": 63,
            "reportedRed": 63,
            "inferredRed": 65,
            "playerTrialScore": -2,
            "oppTrialScore": 2,
            "playerTotalScore": -761,
            "oppTotalScore": 310,
            "waitTime": 5225.4476385423295,
            "responseTime": 1678909900899,
            "catchQuestion": "How many <b class=\"r\">red<\/b> marbles did your opponent report drawing? ",
            "catchKey": -1,
            "catchResponse": -1,
            "catchTime": 1678909875826,
            "trialTime": 0
        },
        {
            "exptPart": "trial",
            "trialNumber": 100,
            "roleCurrent": "receiver",
            "marblesSampled": 100,
            "probRed": 0.5,
            "practiceLambda": 5,
            "trialLambda": 0.3,
            "instructedLambda": "dishonest_big",
            "drawnRed": 28,
            "reportedRed": 28,
            "inferredRed": 40,
            "playerTrialScore": -12,
            "oppTrialScore": 12,
            "playerTotalScore": -773,
            "oppTotalScore": 322,
            "waitTime": 6164.2041100085125,
            "responseTime": 1678909913634,
            "catchQuestion": "How many <b class=\"r\">red<\/b> marbles did your opponent report drawing? ",
            "catchKey": -1,
            "catchResponse": -1,
            "catchTime": 1678909913634,
            "trialTime": 0
        }
    ]
}