{
    "client": {
        "type": "sona",
        "experiment_id": 2228,
        "credit_token": "b315147ae43241ea9c65086cb510cfb7",
        "survey_code": "46797",
        "sid": "sona-46797",
        "window": {
            "width": 1440,
            "height": 821
        },
        "screen": {
            "width": 1440,
            "height": 900
        },
        "userAgent": "Mozilla\/5.0 (Macintosh; Intel Mac OS X 10_15_7) AppleWebKit\/537.36 (KHTML, like Gecko) Chrome\/112.0.0.0 Safari\/537.36",
        "score": 0,
        "bonus": 0
    },
    "expt": {
        "saveURL": "submit.simple.php",
        "trials": 100,
        "practiceTrials": 2,
        "marblesSampled": 100,
        "probRed": 0.5,
        "practiceLambdaAI": 5,
        "lambdaAI": 0.3,
        "roles": [
            "sender",
            "receiver"
        ],
        "cost": "unif",
        "goal": "over",
        "oppDishonesty": "honest",
        "catchTrials": [
            44,
            64,
            96,
            24,
            19,
            99,
            47,
            29,
            50,
            4
        ],
        "scoreTotal": {
            "player": -612,
            "opp": 10
        },
        "sona": {
            "experiment_id": 2228,
            "credit_token": "b315147ae43241ea9c65086cb510cfb7"
        },
        "pilot": false,
        "debug": false
    },
    "trials": [
        {
            "exptPart": "practice",
            "trialNumber": 1,
            "roleCurrent": "sender",
            "marblesSampled": 100,
            "probRed": 0.5,
            "practiceLambda": 5,
            "trialLambda": 0.3,
            "instructedLambda": "honest",
            "drawnRed": 90,
            "reportedRed": 95,
            "inferredRed": 94,
            "playerTrialScore": 4,
            "oppTrialScore": -4,
            "playerTotalScore": 4,
            "oppTotalScore": -4,
            "waitTime": 3139.208646974509,
            "responseTime": 1681163249672,
            "catchQuestion": "How many <b class=\"r\">red<\/b> marbles did you actually draw (before any changes)? ",
            "catchKey": 90,
            "catchResponse": 90,
            "catchTime": 1681163249673,
            "trialTime": 0
        },
        {
            "exptPart": "practice",
            "trialNumber": 2,
            "roleCurrent": "receiver",
            "marblesSampled": 100,
            "probRed": 0.5,
            "practiceLambda": 5,
            "trialLambda": 0.3,
            "instructedLambda": "honest",
            "drawnRed": 48,
            "reportedRed": 51,
            "inferredRed": 46,
            "playerTrialScore": -2,
            "oppTrialScore": 0,
            "playerTotalScore": 2,
            "oppTotalScore": -4,
            "waitTime": 5268.895533953639,
            "responseTime": 1681163288411,
            "catchQuestion": "How many <b class=\"r\">red<\/b> marbles did your opponent report drawing? ",
            "catchKey": 51,
            "catchResponse": 51,
            "catchTime": 1681163288411,
            "trialTime": 0
        },
        {
            "exptPart": "trial",
            "trialNumber": 1,
            "roleCurrent": "receiver",
            "marblesSampled": 100,
            "probRed": 0.5,
            "practiceLambda": 5,
            "trialLambda": 0.3,
            "instructedLambda": "honest",
            "drawnRed": 49,
            "reportedRed": 49,
            "inferredRed": 38,
            "playerTrialScore": -11,
            "oppTrialScore": 0,
            "playerTotalScore": -11,
            "oppTotalScore": 0,
            "waitTime": 6735.680140087465,
            "responseTime": 1681163333486,
            "catchQuestion": "How many <b class=\"r\">red<\/b> marbles did your opponent report drawing? ",
            "catchKey": -1,
            "catchResponse": -1,
            "catchTime": 1681163288411,
            "trialTime": 0
        },
        {
            "exptPart": "trial",
            "trialNumber": 2,
            "roleCurrent": "receiver",
            "marblesSampled": 100,
            "probRed": 0.5,
            "practiceLambda": 5,
            "trialLambda": 0.3,
            "instructedLambda": "honest",
            "drawnRed": 62,
            "reportedRed": 62,
            "inferredRed": 59,
            "playerTrialScore": -3,
            "oppTrialScore": 0,
            "playerTotalScore": -14,
            "oppTotalScore": 0,
            "waitTime": 7355.031713716284,
            "responseTime": 1681163349322,
            "catchQuestion": "How many <b class=\"r\">red<\/b> marbles did your opponent report drawing? ",
            "catchKey": -1,
            "catchResponse": -1,
            "catchTime": 1681163288411,
            "trialTime": 0
        },
        {
            "exptPart": "trial",
            "trialNumber": 3,
            "roleCurrent": "receiver",
            "marblesSampled": 100,
            "probRed": 0.5,
            "practiceLambda": 5,
            "trialLambda": 0.3,
            "instructedLambda": "honest",
            "drawnRed": 60,
            "reportedRed": 60,
            "inferredRed": 58,
            "playerTrialScore": -2,
            "oppTrialScore": 0,
            "playerTotalScore": -16,
            "oppTotalScore": 0,
            "waitTime": 7295.573594501478,
            "responseTime": 1681163367221,
            "catchQuestion": "How many <b class=\"r\">red<\/b> marbles did your opponent report drawing? ",
            "catchKey": -1,
            "catchResponse": -1,
            "catchTime": 1681163288411,
            "trialTime": 0
        },
        {
            "exptPart": "trial",
            "trialNumber": 4,
            "roleCurrent": "receiver",
            "marblesSampled": 100,
            "probRed": 0.5,
            "practiceLambda": 5,
            "trialLambda": 0.3,
            "instructedLambda": "honest",
            "drawnRed": 72,
            "reportedRed": 72,
            "inferredRed": 62,
            "playerTrialScore": -10,
            "oppTrialScore": 0,
            "playerTotalScore": -26,
            "oppTotalScore": 0,
            "waitTime": 6067.079003667946,
            "responseTime": 1681163380825,
            "catchQuestion": "How many <b class=\"r\">red<\/b> marbles did your opponent report drawing? ",
            "catchKey": -1,
            "catchResponse": -1,
            "catchTime": 1681163288411,
            "trialTime": 0
        },
        {
            "exptPart": "trial",
            "trialNumber": 5,
            "roleCurrent": "receiver",
            "marblesSampled": 100,
            "probRed": 0.5,
            "practiceLambda": 5,
            "trialLambda": 0.3,
            "instructedLambda": "honest",
            "drawnRed": 73,
            "reportedRed": 73,
            "inferredRed": 68,
            "playerTrialScore": -5,
            "oppTrialScore": 0,
            "playerTotalScore": -31,
            "oppTotalScore": 0,
            "waitTime": 6800.058022197427,
            "responseTime": 1681163398659,
            "catchQuestion": "How many <b class=\"r\">red<\/b> marbles did your opponent report drawing? ",
            "catchKey": 73,
            "catchResponse": 73,
            "catchTime": 1681163398659,
            "trialTime": 0
        },
        {
            "exptPart": "trial",
            "trialNumber": 6,
            "roleCurrent": "receiver",
            "marblesSampled": 100,
            "probRed": 0.5,
            "practiceLambda": 5,
            "trialLambda": 0.3,
            "instructedLambda": "honest",
            "drawnRed": 56,
            "reportedRed": 56,
            "inferredRed": 53,
            "playerTrialScore": -3,
            "oppTrialScore": 0,
            "playerTotalScore": -34,
            "oppTotalScore": 0,
            "waitTime": 6383.006426052225,
            "responseTime": 1681163419186,
            "catchQuestion": "How many <b class=\"r\">red<\/b> marbles did your opponent report drawing? ",
            "catchKey": -1,
            "catchResponse": -1,
            "catchTime": 1681163398659,
            "trialTime": 0
        },
        {
            "exptPart": "trial",
            "trialNumber": 7,
            "roleCurrent": "receiver",
            "marblesSampled": 100,
            "probRed": 0.5,
            "practiceLambda": 5,
            "trialLambda": 0.3,
            "instructedLambda": "honest",
            "drawnRed": 33,
            "reportedRed": 33,
            "inferredRed": 23,
            "playerTrialScore": -10,
            "oppTrialScore": 0,
            "playerTotalScore": -44,
            "oppTotalScore": 0,
            "waitTime": 6540.7792654642435,
            "responseTime": 1681163436082,
            "catchQuestion": "How many <b class=\"r\">red<\/b> marbles did your opponent report drawing? ",
            "catchKey": -1,
            "catchResponse": -1,
            "catchTime": 1681163398659,
            "trialTime": 0
        },
        {
            "exptPart": "trial",
            "trialNumber": 8,
            "roleCurrent": "receiver",
            "marblesSampled": 100,
            "probRed": 0.5,
            "practiceLambda": 5,
            "trialLambda": 0.3,
            "instructedLambda": "honest",
            "drawnRed": 34,
            "reportedRed": 34,
            "inferredRed": 30,
            "playerTrialScore": -4,
            "oppTrialScore": 0,
            "playerTotalScore": -48,
            "oppTotalScore": 0,
            "waitTime": 6116.2504415020885,
            "responseTime": 1681163445966,
            "catchQuestion": "How many <b class=\"r\">red<\/b> marbles did your opponent report drawing? ",
            "catchKey": -1,
            "catchResponse": -1,
            "catchTime": 1681163398659,
            "trialTime": 0
        },
        {
            "exptPart": "trial",
            "trialNumber": 9,
            "roleCurrent": "receiver",
            "marblesSampled": 100,
            "probRed": 0.5,
            "practiceLambda": 5,
            "trialLambda": 0.3,
            "instructedLambda": "honest",
            "drawnRed": 32,
            "reportedRed": 32,
            "inferredRed": 24,
            "playerTrialScore": -8,
            "oppTrialScore": 0,
            "playerTotalScore": -56,
            "oppTotalScore": 0,
            "waitTime": 5245.9159390828845,
            "responseTime": 1681163455406,
            "catchQuestion": "How many <b class=\"r\">red<\/b> marbles did your opponent report drawing? ",
            "catchKey": -1,
            "catchResponse": -1,
            "catchTime": 1681163398659,
            "trialTime": 0
        },
        {
            "exptPart": "trial",
            "trialNumber": 10,
            "roleCurrent": "receiver",
            "marblesSampled": 100,
            "probRed": 0.5,
            "practiceLambda": 5,
            "trialLambda": 0.3,
            "instructedLambda": "honest",
            "drawnRed": 56,
            "reportedRed": 56,
            "inferredRed": 55,
            "playerTrialScore": -1,
            "oppTrialScore": 0,
            "playerTotalScore": -57,
            "oppTotalScore": 0,
            "waitTime": 5709.789106051725,
            "responseTime": 1681163465701,
            "catchQuestion": "How many <b class=\"r\">red<\/b> marbles did your opponent report drawing? ",
            "catchKey": -1,
            "catchResponse": -1,
            "catchTime": 1681163465701,
            "trialTime": 0
        },
        {
            "exptPart": "trial",
            "trialNumber": 11,
            "roleCurrent": "receiver",
            "marblesSampled": 100,
            "probRed": 0.5,
            "practiceLambda": 5,
            "trialLambda": 0.3,
            "instructedLambda": "honest",
            "drawnRed": 58,
            "reportedRed": 58,
            "inferredRed": 54,
            "playerTrialScore": -4,
            "oppTrialScore": 0,
            "playerTotalScore": -61,
            "oppTotalScore": 0,
            "waitTime": 6183.303841104589,
            "responseTime": 1681163483621,
            "catchQuestion": "How many <b class=\"r\">red<\/b> marbles did your opponent report drawing? ",
            "catchKey": -1,
            "catchResponse": -1,
            "catchTime": 1681163465701,
            "trialTime": 0
        },
        {
            "exptPart": "trial",
            "trialNumber": 12,
            "roleCurrent": "receiver",
            "marblesSampled": 100,
            "probRed": 0.5,
            "practiceLambda": 5,
            "trialLambda": 0.3,
            "instructedLambda": "honest",
            "drawnRed": 69,
            "reportedRed": 70,
            "inferredRed": 69,
            "playerTrialScore": 0,
            "oppTrialScore": 0,
            "playerTotalScore": -61,
            "oppTotalScore": 0,
            "waitTime": 6534.136403928273,
            "responseTime": 1681163502120,
            "catchQuestion": "How many <b class=\"r\">red<\/b> marbles did your opponent report drawing? ",
            "catchKey": -1,
            "catchResponse": -1,
            "catchTime": 1681163465701,
            "trialTime": 0
        },
        {
            "exptPart": "trial",
            "trialNumber": 13,
            "roleCurrent": "receiver",
            "marblesSampled": 100,
            "probRed": 0.5,
            "practiceLambda": 5,
            "trialLambda": 0.3,
            "instructedLambda": "honest",
            "drawnRed": 36,
            "reportedRed": 36,
            "inferredRed": 28,
            "playerTrialScore": -8,
            "oppTrialScore": 0,
            "playerTotalScore": -69,
            "oppTotalScore": 0,
            "waitTime": 7097.5089979374325,
            "responseTime": 1681163524268,
            "catchQuestion": "How many <b class=\"r\">red<\/b> marbles did your opponent report drawing? ",
            "catchKey": -1,
            "catchResponse": -1,
            "catchTime": 1681163465701,
            "trialTime": 0
        },
        {
            "exptPart": "trial",
            "trialNumber": 14,
            "roleCurrent": "receiver",
            "marblesSampled": 100,
            "probRed": 0.5,
            "practiceLambda": 5,
            "trialLambda": 0.3,
            "instructedLambda": "honest",
            "drawnRed": 33,
            "reportedRed": 33,
            "inferredRed": 30,
            "playerTrialScore": -3,
            "oppTrialScore": 0,
            "playerTotalScore": -72,
            "oppTotalScore": 0,
            "waitTime": 6327.3008960981615,
            "responseTime": 1681163537120,
            "catchQuestion": "How many <b class=\"r\">red<\/b> marbles did your opponent report drawing? ",
            "catchKey": -1,
            "catchResponse": -1,
            "catchTime": 1681163465701,
            "trialTime": 0
        },
        {
            "exptPart": "trial",
            "trialNumber": 15,
            "roleCurrent": "receiver",
            "marblesSampled": 100,
            "probRed": 0.5,
            "practiceLambda": 5,
            "trialLambda": 0.3,
            "instructedLambda": "honest",
            "drawnRed": 37,
            "reportedRed": 38,
            "inferredRed": 30,
            "playerTrialScore": -7,
            "oppTrialScore": 0,
            "playerTotalScore": -79,
            "oppTotalScore": 0,
            "waitTime": 5342.512417481683,
            "responseTime": 1681163547247,
            "catchQuestion": "How many <b class=\"r\">red<\/b> marbles did your opponent report drawing? ",
            "catchKey": -1,
            "catchResponse": -1,
            "catchTime": 1681163465701,
            "trialTime": 0
        },
        {
            "exptPart": "trial",
            "trialNumber": 16,
            "roleCurrent": "receiver",
            "marblesSampled": 100,
            "probRed": 0.5,
            "practiceLambda": 5,
            "trialLambda": 0.3,
            "instructedLambda": "honest",
            "drawnRed": 14,
            "reportedRed": 14,
            "inferredRed": 15,
            "playerTrialScore": -1,
            "oppTrialScore": 1,
            "playerTotalScore": -80,
            "oppTotalScore": 1,
            "waitTime": 5622.83525113767,
            "responseTime": 1681163560947,
            "catchQuestion": "How many <b class=\"r\">red<\/b> marbles did your opponent report drawing? ",
            "catchKey": -1,
            "catchResponse": -1,
            "catchTime": 1681163465701,
            "trialTime": 0
        },
        {
            "exptPart": "trial",
            "trialNumber": 17,
            "roleCurrent": "receiver",
            "marblesSampled": 100,
            "probRed": 0.5,
            "practiceLambda": 5,
            "trialLambda": 0.3,
            "instructedLambda": "honest",
            "drawnRed": 75,
            "reportedRed": 75,
            "inferredRed": 80,
            "playerTrialScore": -5,
            "oppTrialScore": 5,
            "playerTotalScore": -85,
            "oppTotalScore": 6,
            "waitTime": 5533.200246409573,
            "responseTime": 1681163578775,
            "catchQuestion": "How many <b class=\"r\">red<\/b> marbles did your opponent report drawing? ",
            "catchKey": -1,
            "catchResponse": -1,
            "catchTime": 1681163465701,
            "trialTime": 0
        },
        {
            "exptPart": "trial",
            "trialNumber": 18,
            "roleCurrent": "receiver",
            "marblesSampled": 100,
            "probRed": 0.5,
            "practiceLambda": 5,
            "trialLambda": 0.3,
            "instructedLambda": "honest",
            "drawnRed": 52,
            "reportedRed": 53,
            "inferredRed": 40,
            "playerTrialScore": -12,
            "oppTrialScore": 0,
            "playerTotalScore": -97,
            "oppTotalScore": 6,
            "waitTime": 5445.0159151252465,
            "responseTime": 1681163595738,
            "catchQuestion": "How many <b class=\"r\">red<\/b> marbles did your opponent report drawing? ",
            "catchKey": -1,
            "catchResponse": -1,
            "catchTime": 1681163465701,
            "trialTime": 0
        },
        {
            "exptPart": "trial",
            "trialNumber": 19,
            "roleCurrent": "receiver",
            "marblesSampled": 100,
            "probRed": 0.5,
            "practiceLambda": 5,
            "trialLambda": 0.3,
            "instructedLambda": "honest",
            "drawnRed": 57,
            "reportedRed": 58,
            "inferredRed": 55,
            "playerTrialScore": -2,
            "oppTrialScore": 0,
            "playerTotalScore": -99,
            "oppTotalScore": 6,
            "waitTime": 6302.273711941327,
            "responseTime": 1681163612726,
            "catchQuestion": "How many <b class=\"r\">red<\/b> marbles did your opponent report drawing? ",
            "catchKey": -1,
            "catchResponse": -1,
            "catchTime": 1681163465701,
            "trialTime": 0
        },
        {
            "exptPart": "trial",
            "trialNumber": 20,
            "roleCurrent": "receiver",
            "marblesSampled": 100,
            "probRed": 0.5,
            "practiceLambda": 5,
            "trialLambda": 0.3,
            "instructedLambda": "honest",
            "drawnRed": 86,
            "reportedRed": 86,
            "inferredRed": 75,
            "playerTrialScore": -11,
            "oppTrialScore": 0,
            "playerTotalScore": -110,
            "oppTotalScore": 6,
            "waitTime": 5425.668214379606,
            "responseTime": 1681163626474,
            "catchQuestion": "How many <b class=\"r\">red<\/b> marbles did your opponent report drawing? ",
            "catchKey": 86,
            "catchResponse": 86,
            "catchTime": 1681163626474,
            "trialTime": 0
        },
        {
            "exptPart": "trial",
            "trialNumber": 21,
            "roleCurrent": "receiver",
            "marblesSampled": 100,
            "probRed": 0.5,
            "practiceLambda": 5,
            "trialLambda": 0.3,
            "instructedLambda": "honest",
            "drawnRed": 31,
            "reportedRed": 31,
            "inferredRed": 27,
            "playerTrialScore": -4,
            "oppTrialScore": 0,
            "playerTotalScore": -114,
            "oppTotalScore": 6,
            "waitTime": 6468.743245499714,
            "responseTime": 1681163649921,
            "catchQuestion": "How many <b class=\"r\">red<\/b> marbles did your opponent report drawing? ",
            "catchKey": -1,
            "catchResponse": -1,
            "catchTime": 1681163626474,
            "trialTime": 0
        },
        {
            "exptPart": "trial",
            "trialNumber": 22,
            "roleCurrent": "receiver",
            "marblesSampled": 100,
            "probRed": 0.5,
            "practiceLambda": 5,
            "trialLambda": 0.3,
            "instructedLambda": "honest",
            "drawnRed": 44,
            "reportedRed": 45,
            "inferredRed": 30,
            "playerTrialScore": -14,
            "oppTrialScore": 0,
            "playerTotalScore": -128,
            "oppTotalScore": 6,
            "waitTime": 7468.921911775922,
            "responseTime": 1681163662181,
            "catchQuestion": "How many <b class=\"r\">red<\/b> marbles did your opponent report drawing? ",
            "catchKey": -1,
            "catchResponse": -1,
            "catchTime": 1681163626474,
            "trialTime": 0
        },
        {
            "exptPart": "trial",
            "trialNumber": 23,
            "roleCurrent": "receiver",
            "marblesSampled": 100,
            "probRed": 0.5,
            "practiceLambda": 5,
            "trialLambda": 0.3,
            "instructedLambda": "honest",
            "drawnRed": 45,
            "reportedRed": 46,
            "inferredRed": 45,
            "playerTrialScore": 0,
            "oppTrialScore": 0,
            "playerTotalScore": -128,
            "oppTotalScore": 6,
            "waitTime": 5872.515661025298,
            "responseTime": 1681163673425,
            "catchQuestion": "How many <b class=\"r\">red<\/b> marbles did your opponent report drawing? ",
            "catchKey": -1,
            "catchResponse": -1,
            "catchTime": 1681163626474,
            "trialTime": 0
        },
        {
            "exptPart": "trial",
            "trialNumber": 24,
            "roleCurrent": "receiver",
            "marblesSampled": 100,
            "probRed": 0.5,
            "practiceLambda": 5,
            "trialLambda": 0.3,
            "instructedLambda": "honest",
            "drawnRed": 71,
            "reportedRed": 71,
            "inferredRed": 63,
            "playerTrialScore": -8,
            "oppTrialScore": 0,
            "playerTotalScore": -136,
            "oppTotalScore": 6,
            "waitTime": 5828.697534454741,
            "responseTime": 1681163691160,
            "catchQuestion": "How many <b class=\"r\">red<\/b> marbles did your opponent report drawing? ",
            "catchKey": -1,
            "catchResponse": -1,
            "catchTime": 1681163626474,
            "trialTime": 0
        },
        {
            "exptPart": "trial",
            "trialNumber": 25,
            "roleCurrent": "receiver",
            "marblesSampled": 100,
            "probRed": 0.5,
            "practiceLambda": 5,
            "trialLambda": 0.3,
            "instructedLambda": "honest",
            "drawnRed": 63,
            "reportedRed": 63,
            "inferredRed": 52,
            "playerTrialScore": -11,
            "oppTrialScore": 0,
            "playerTotalScore": -147,
            "oppTotalScore": 6,
            "waitTime": 7153.048182965775,
            "responseTime": 1681163706108,
            "catchQuestion": "How many <b class=\"r\">red<\/b> marbles did your opponent report drawing? ",
            "catchKey": 63,
            "catchResponse": 63,
            "catchTime": 1681163706108,
            "trialTime": 0
        },
        {
            "exptPart": "trial",
            "trialNumber": 26,
            "roleCurrent": "receiver",
            "marblesSampled": 100,
            "probRed": 0.5,
            "practiceLambda": 5,
            "trialLambda": 0.3,
            "instructedLambda": "honest",
            "drawnRed": 37,
            "reportedRed": 37,
            "inferredRed": 33,
            "playerTrialScore": -4,
            "oppTrialScore": 0,
            "playerTotalScore": -151,
            "oppTotalScore": 6,
            "waitTime": 5326.80079147982,
            "responseTime": 1681163722367,
            "catchQuestion": "How many <b class=\"r\">red<\/b> marbles did your opponent report drawing? ",
            "catchKey": -1,
            "catchResponse": -1,
            "catchTime": 1681163706108,
            "trialTime": 0
        },
        {
            "exptPart": "trial",
            "trialNumber": 27,
            "roleCurrent": "receiver",
            "marblesSampled": 100,
            "probRed": 0.5,
            "practiceLambda": 5,
            "trialLambda": 0.3,
            "instructedLambda": "honest",
            "drawnRed": 73,
            "reportedRed": 73,
            "inferredRed": 73,
            "playerTrialScore": 0,
            "oppTrialScore": 0,
            "playerTotalScore": -151,
            "oppTotalScore": 6,
            "waitTime": 5657.189228217139,
            "responseTime": 1681163733159,
            "catchQuestion": "How many <b class=\"r\">red<\/b> marbles did your opponent report drawing? ",
            "catchKey": -1,
            "catchResponse": -1,
            "catchTime": 1681163706108,
            "trialTime": 0
        },
        {
            "exptPart": "trial",
            "trialNumber": 28,
            "roleCurrent": "receiver",
            "marblesSampled": 100,
            "probRed": 0.5,
            "practiceLambda": 5,
            "trialLambda": 0.3,
            "instructedLambda": "honest",
            "drawnRed": 49,
            "reportedRed": 49,
            "inferredRed": 38,
            "playerTrialScore": -11,
            "oppTrialScore": 0,
            "playerTotalScore": -162,
            "oppTotalScore": 6,
            "waitTime": 5898.8026527134825,
            "responseTime": 1681163746063,
            "catchQuestion": "How many <b class=\"r\">red<\/b> marbles did your opponent report drawing? ",
            "catchKey": -1,
            "catchResponse": -1,
            "catchTime": 1681163706108,
            "trialTime": 0
        },
        {
            "exptPart": "trial",
            "trialNumber": 29,
            "roleCurrent": "receiver",
            "marblesSampled": 100,
            "probRed": 0.5,
            "practiceLambda": 5,
            "trialLambda": 0.3,
            "instructedLambda": "honest",
            "drawnRed": 72,
            "reportedRed": 73,
            "inferredRed": 70,
            "playerTrialScore": -2,
            "oppTrialScore": 0,
            "playerTotalScore": -164,
            "oppTotalScore": 6,
            "waitTime": 7155.667099885026,
            "responseTime": 1681163759182,
            "catchQuestion": "How many <b class=\"r\">red<\/b> marbles did your opponent report drawing? ",
            "catchKey": -1,
            "catchResponse": -1,
            "catchTime": 1681163706108,
            "trialTime": 0
        },
        {
            "exptPart": "trial",
            "trialNumber": 30,
            "roleCurrent": "receiver",
            "marblesSampled": 100,
            "probRed": 0.5,
            "practiceLambda": 5,
            "trialLambda": 0.3,
            "instructedLambda": "honest",
            "drawnRed": 33,
            "reportedRed": 33,
            "inferredRed": 22,
            "playerTrialScore": -11,
            "oppTrialScore": 0,
            "playerTotalScore": -175,
            "oppTotalScore": 6,
            "waitTime": 5824.760641837017,
            "responseTime": 1681163773126,
            "catchQuestion": "How many <b class=\"r\">red<\/b> marbles did your opponent report drawing? ",
            "catchKey": 33,
            "catchResponse": 33,
            "catchTime": 1681163773126,
            "trialTime": 0
        },
        {
            "exptPart": "trial",
            "trialNumber": 31,
            "roleCurrent": "receiver",
            "marblesSampled": 100,
            "probRed": 0.5,
            "practiceLambda": 5,
            "trialLambda": 0.3,
            "instructedLambda": "honest",
            "drawnRed": 32,
            "reportedRed": 32,
            "inferredRed": 22,
            "playerTrialScore": -10,
            "oppTrialScore": 0,
            "playerTotalScore": -185,
            "oppTotalScore": 6,
            "waitTime": 6866.310163292699,
            "responseTime": 1681163792793,
            "catchQuestion": "How many <b class=\"r\">red<\/b> marbles did your opponent report drawing? ",
            "catchKey": -1,
            "catchResponse": -1,
            "catchTime": 1681163773126,
            "trialTime": 0
        },
        {
            "exptPart": "trial",
            "trialNumber": 32,
            "roleCurrent": "receiver",
            "marblesSampled": 100,
            "probRed": 0.5,
            "practiceLambda": 5,
            "trialLambda": 0.3,
            "instructedLambda": "honest",
            "drawnRed": 56,
            "reportedRed": 57,
            "inferredRed": 55,
            "playerTrialScore": -1,
            "oppTrialScore": 0,
            "playerTotalScore": -186,
            "oppTotalScore": 6,
            "waitTime": 5216.196366971599,
            "responseTime": 1681163802421,
            "catchQuestion": "How many <b class=\"r\">red<\/b> marbles did your opponent report drawing? ",
            "catchKey": -1,
            "catchResponse": -1,
            "catchTime": 1681163773126,
            "trialTime": 0
        },
        {
            "exptPart": "trial",
            "trialNumber": 33,
            "roleCurrent": "receiver",
            "marblesSampled": 100,
            "probRed": 0.5,
            "practiceLambda": 5,
            "trialLambda": 0.3,
            "instructedLambda": "honest",
            "drawnRed": 33,
            "reportedRed": 33,
            "inferredRed": 22,
            "playerTrialScore": -11,
            "oppTrialScore": 0,
            "playerTotalScore": -197,
            "oppTotalScore": 6,
            "waitTime": 7223.981175175001,
            "responseTime": 1681163812869,
            "catchQuestion": "How many <b class=\"r\">red<\/b> marbles did your opponent report drawing? ",
            "catchKey": -1,
            "catchResponse": -1,
            "catchTime": 1681163773126,
            "trialTime": 0
        },
        {
            "exptPart": "trial",
            "trialNumber": 34,
            "roleCurrent": "receiver",
            "marblesSampled": 100,
            "probRed": 0.5,
            "practiceLambda": 5,
            "trialLambda": 0.3,
            "instructedLambda": "honest",
            "drawnRed": 41,
            "reportedRed": 41,
            "inferredRed": 28,
            "playerTrialScore": -13,
            "oppTrialScore": 0,
            "playerTotalScore": -210,
            "oppTotalScore": 6,
            "waitTime": 7038.363873021743,
            "responseTime": 1681163826413,
            "catchQuestion": "How many <b class=\"r\">red<\/b> marbles did your opponent report drawing? ",
            "catchKey": -1,
            "catchResponse": -1,
            "catchTime": 1681163773126,
            "trialTime": 0
        },
        {
            "exptPart": "trial",
            "trialNumber": 35,
            "roleCurrent": "receiver",
            "marblesSampled": 100,
            "probRed": 0.5,
            "practiceLambda": 5,
            "trialLambda": 0.3,
            "instructedLambda": "honest",
            "drawnRed": 30,
            "reportedRed": 30,
            "inferredRed": 27,
            "playerTrialScore": -3,
            "oppTrialScore": 0,
            "playerTotalScore": -213,
            "oppTotalScore": 6,
            "waitTime": 6668.743304900567,
            "responseTime": 1681163857644,
            "catchQuestion": "How many <b class=\"r\">red<\/b> marbles did your opponent report drawing? ",
            "catchKey": -1,
            "catchResponse": -1,
            "catchTime": 1681163773126,
            "trialTime": 0
        },
        {
            "exptPart": "trial",
            "trialNumber": 36,
            "roleCurrent": "receiver",
            "marblesSampled": 100,
            "probRed": 0.5,
            "practiceLambda": 5,
            "trialLambda": 0.3,
            "instructedLambda": "honest",
            "drawnRed": 40,
            "reportedRed": 40,
            "inferredRed": 30,
            "playerTrialScore": -10,
            "oppTrialScore": 0,
            "playerTotalScore": -223,
            "oppTotalScore": 6,
            "waitTime": 6665.6295399723695,
            "responseTime": 1681163897551,
            "catchQuestion": "How many <b class=\"r\">red<\/b> marbles did your opponent report drawing? ",
            "catchKey": -1,
            "catchResponse": -1,
            "catchTime": 1681163773126,
            "trialTime": 0
        },
        {
            "exptPart": "trial",
            "trialNumber": 37,
            "roleCurrent": "receiver",
            "marblesSampled": 100,
            "probRed": 0.5,
            "practiceLambda": 5,
            "trialLambda": 0.3,
            "instructedLambda": "honest",
            "drawnRed": 61,
            "reportedRed": 62,
            "inferredRed": 56,
            "playerTrialScore": -5,
            "oppTrialScore": 0,
            "playerTotalScore": -228,
            "oppTotalScore": 6,
            "waitTime": 5754.688358007634,
            "responseTime": 1681163909635,
            "catchQuestion": "How many <b class=\"r\">red<\/b> marbles did your opponent report drawing? ",
            "catchKey": -1,
            "catchResponse": -1,
            "catchTime": 1681163773126,
            "trialTime": 0
        },
        {
            "exptPart": "trial",
            "trialNumber": 38,
            "roleCurrent": "receiver",
            "marblesSampled": 100,
            "probRed": 0.5,
            "practiceLambda": 5,
            "trialLambda": 0.3,
            "instructedLambda": "honest",
            "drawnRed": 33,
            "reportedRed": 34,
            "inferredRed": 24,
            "playerTrialScore": -9,
            "oppTrialScore": 0,
            "playerTotalScore": -237,
            "oppTotalScore": 6,
            "waitTime": 5433.322156688244,
            "responseTime": 1681163920039,
            "catchQuestion": "How many <b class=\"r\">red<\/b> marbles did your opponent report drawing? ",
            "catchKey": -1,
            "catchResponse": -1,
            "catchTime": 1681163773126,
            "trialTime": 0
        },
        {
            "exptPart": "trial",
            "trialNumber": 39,
            "roleCurrent": "receiver",
            "marblesSampled": 100,
            "probRed": 0.5,
            "practiceLambda": 5,
            "trialLambda": 0.3,
            "instructedLambda": "honest",
            "drawnRed": 47,
            "reportedRed": 48,
            "inferredRed": 28,
            "playerTrialScore": -19,
            "oppTrialScore": 0,
            "playerTotalScore": -256,
            "oppTotalScore": 6,
            "waitTime": 6096.63096585575,
            "responseTime": 1681163931723,
            "catchQuestion": "How many <b class=\"r\">red<\/b> marbles did your opponent report drawing? ",
            "catchKey": -1,
            "catchResponse": -1,
            "catchTime": 1681163773126,
            "trialTime": 0
        },
        {
            "exptPart": "trial",
            "trialNumber": 40,
            "roleCurrent": "receiver",
            "marblesSampled": 100,
            "probRed": 0.5,
            "practiceLambda": 5,
            "trialLambda": 0.3,
            "instructedLambda": "honest",
            "drawnRed": 32,
            "reportedRed": 32,
            "inferredRed": 22,
            "playerTrialScore": -10,
            "oppTrialScore": 0,
            "playerTotalScore": -266,
            "oppTotalScore": 6,
            "waitTime": 5221.7579545677345,
            "responseTime": 1681163939999,
            "catchQuestion": "How many <b class=\"r\">red<\/b> marbles did your opponent report drawing? ",
            "catchKey": -1,
            "catchResponse": -1,
            "catchTime": 1681163939999,
            "trialTime": 0
        },
        {
            "exptPart": "trial",
            "trialNumber": 41,
            "roleCurrent": "receiver",
            "marblesSampled": 100,
            "probRed": 0.5,
            "practiceLambda": 5,
            "trialLambda": 0.3,
            "instructedLambda": "honest",
            "drawnRed": 48,
            "reportedRed": 48,
            "inferredRed": 44,
            "playerTrialScore": -4,
            "oppTrialScore": 0,
            "playerTotalScore": -270,
            "oppTotalScore": 6,
            "waitTime": 6692.584905316704,
            "responseTime": 1681163959858,
            "catchQuestion": "How many <b class=\"r\">red<\/b> marbles did your opponent report drawing? ",
            "catchKey": -1,
            "catchResponse": -1,
            "catchTime": 1681163939999,
            "trialTime": 0
        },
        {
            "exptPart": "trial",
            "trialNumber": 42,
            "roleCurrent": "receiver",
            "marblesSampled": 100,
            "probRed": 0.5,
            "practiceLambda": 5,
            "trialLambda": 0.3,
            "instructedLambda": "honest",
            "drawnRed": 52,
            "reportedRed": 52,
            "inferredRed": 32,
            "playerTrialScore": -20,
            "oppTrialScore": 0,
            "playerTotalScore": -290,
            "oppTotalScore": 6,
            "waitTime": 5230.648338506881,
            "responseTime": 1681163974265,
            "catchQuestion": "How many <b class=\"r\">red<\/b> marbles did your opponent report drawing? ",
            "catchKey": -1,
            "catchResponse": -1,
            "catchTime": 1681163939999,
            "trialTime": 0
        },
        {
            "exptPart": "trial",
            "trialNumber": 43,
            "roleCurrent": "receiver",
            "marblesSampled": 100,
            "probRed": 0.5,
            "practiceLambda": 5,
            "trialLambda": 0.3,
            "instructedLambda": "honest",
            "drawnRed": 67,
            "reportedRed": 68,
            "inferredRed": 62,
            "playerTrialScore": -5,
            "oppTrialScore": 0,
            "playerTotalScore": -295,
            "oppTotalScore": 6,
            "waitTime": 5650.322670586102,
            "responseTime": 1681163987757,
            "catchQuestion": "How many <b class=\"r\">red<\/b> marbles did your opponent report drawing? ",
            "catchKey": -1,
            "catchResponse": -1,
            "catchTime": 1681163939999,
            "trialTime": 0
        },
        {
            "exptPart": "trial",
            "trialNumber": 44,
            "roleCurrent": "receiver",
            "marblesSampled": 100,
            "probRed": 0.5,
            "practiceLambda": 5,
            "trialLambda": 0.3,
            "instructedLambda": "honest",
            "drawnRed": 45,
            "reportedRed": 45,
            "inferredRed": 40,
            "playerTrialScore": -5,
            "oppTrialScore": 0,
            "playerTotalScore": -300,
            "oppTotalScore": 6,
            "waitTime": 5155.272483018752,
            "responseTime": 1681163997993,
            "catchQuestion": "How many <b class=\"r\">red<\/b> marbles did your opponent report drawing? ",
            "catchKey": -1,
            "catchResponse": -1,
            "catchTime": 1681163939999,
            "trialTime": 0
        },
        {
            "exptPart": "trial",
            "trialNumber": 45,
            "roleCurrent": "receiver",
            "marblesSampled": 100,
            "probRed": 0.5,
            "practiceLambda": 5,
            "trialLambda": 0.3,
            "instructedLambda": "honest",
            "drawnRed": 58,
            "reportedRed": 58,
            "inferredRed": 52,
            "playerTrialScore": -6,
            "oppTrialScore": 0,
            "playerTotalScore": -306,
            "oppTotalScore": 6,
            "waitTime": 6868.310549534641,
            "responseTime": 1681164011341,
            "catchQuestion": "How many <b class=\"r\">red<\/b> marbles did your opponent report drawing? ",
            "catchKey": 58,
            "catchResponse": 58,
            "catchTime": 1681164011341,
            "trialTime": 0
        },
        {
            "exptPart": "trial",
            "trialNumber": 46,
            "roleCurrent": "receiver",
            "marblesSampled": 100,
            "probRed": 0.5,
            "practiceLambda": 5,
            "trialLambda": 0.3,
            "instructedLambda": "honest",
            "drawnRed": 80,
            "reportedRed": 80,
            "inferredRed": 75,
            "playerTrialScore": -5,
            "oppTrialScore": 0,
            "playerTotalScore": -311,
            "oppTotalScore": 6,
            "waitTime": 5199.683153363072,
            "responseTime": 1681164026512,
            "catchQuestion": "How many <b class=\"r\">red<\/b> marbles did your opponent report drawing? ",
            "catchKey": -1,
            "catchResponse": -1,
            "catchTime": 1681164011341,
            "trialTime": 0
        },
        {
            "exptPart": "trial",
            "trialNumber": 47,
            "roleCurrent": "receiver",
            "marblesSampled": 100,
            "probRed": 0.5,
            "practiceLambda": 5,
            "trialLambda": 0.3,
            "instructedLambda": "honest",
            "drawnRed": 23,
            "reportedRed": 24,
            "inferredRed": 22,
            "playerTrialScore": -1,
            "oppTrialScore": 0,
            "playerTotalScore": -312,
            "oppTotalScore": 6,
            "waitTime": 7209.40920775224,
            "responseTime": 1681164036472,
            "catchQuestion": "How many <b class=\"r\">red<\/b> marbles did your opponent report drawing? ",
            "catchKey": -1,
            "catchResponse": -1,
            "catchTime": 1681164011341,
            "trialTime": 0
        },
        {
            "exptPart": "trial",
            "trialNumber": 48,
            "roleCurrent": "receiver",
            "marblesSampled": 100,
            "probRed": 0.5,
            "practiceLambda": 5,
            "trialLambda": 0.3,
            "instructedLambda": "honest",
            "drawnRed": 38,
            "reportedRed": 38,
            "inferredRed": 30,
            "playerTrialScore": -8,
            "oppTrialScore": 0,
            "playerTotalScore": -320,
            "oppTotalScore": 6,
            "waitTime": 5894.155389177349,
            "responseTime": 1681164049220,
            "catchQuestion": "How many <b class=\"r\">red<\/b> marbles did your opponent report drawing? ",
            "catchKey": 38,
            "catchResponse": 38,
            "catchTime": 1681164049220,
            "trialTime": 0
        },
        {
            "exptPart": "trial",
            "trialNumber": 49,
            "roleCurrent": "receiver",
            "marblesSampled": 100,
            "probRed": 0.5,
            "practiceLambda": 5,
            "trialLambda": 0.3,
            "instructedLambda": "honest",
            "drawnRed": 36,
            "reportedRed": 37,
            "inferredRed": 33,
            "playerTrialScore": -3,
            "oppTrialScore": 0,
            "playerTotalScore": -323,
            "oppTotalScore": 6,
            "waitTime": 5264.165607377163,
            "responseTime": 1681164065479,
            "catchQuestion": "How many <b class=\"r\">red<\/b> marbles did your opponent report drawing? ",
            "catchKey": -1,
            "catchResponse": -1,
            "catchTime": 1681164049220,
            "trialTime": 0
        },
        {
            "exptPart": "trial",
            "trialNumber": 50,
            "roleCurrent": "receiver",
            "marblesSampled": 100,
            "probRed": 0.5,
            "practiceLambda": 5,
            "trialLambda": 0.3,
            "instructedLambda": "honest",
            "drawnRed": 63,
            "reportedRed": 63,
            "inferredRed": 57,
            "playerTrialScore": -6,
            "oppTrialScore": 0,
            "playerTotalScore": -329,
            "oppTotalScore": 6,
            "waitTime": 7313.930528879894,
            "responseTime": 1681164079315,
            "catchQuestion": "How many <b class=\"r\">red<\/b> marbles did your opponent report drawing? ",
            "catchKey": -1,
            "catchResponse": -1,
            "catchTime": 1681164079315,
            "trialTime": 0
        },
        {
            "exptPart": "trial",
            "trialNumber": 51,
            "roleCurrent": "receiver",
            "marblesSampled": 100,
            "probRed": 0.5,
            "practiceLambda": 5,
            "trialLambda": 0.3,
            "instructedLambda": "honest",
            "drawnRed": 20,
            "reportedRed": 20,
            "inferredRed": 17,
            "playerTrialScore": -3,
            "oppTrialScore": 0,
            "playerTotalScore": -332,
            "oppTotalScore": 6,
            "waitTime": 5362.266344183765,
            "responseTime": 1681164090327,
            "catchQuestion": "How many <b class=\"r\">red<\/b> marbles did your opponent report drawing? ",
            "catchKey": 20,
            "catchResponse": 20,
            "catchTime": 1681164090327,
            "trialTime": 0
        },
        {
            "exptPart": "trial",
            "trialNumber": 52,
            "roleCurrent": "receiver",
            "marblesSampled": 100,
            "probRed": 0.5,
            "practiceLambda": 5,
            "trialLambda": 0.3,
            "instructedLambda": "honest",
            "drawnRed": 53,
            "reportedRed": 55,
            "inferredRed": 48,
            "playerTrialScore": -5,
            "oppTrialScore": 0,
            "playerTotalScore": -337,
            "oppTotalScore": 6,
            "waitTime": 5804.025043002295,
            "responseTime": 1681164105591,
            "catchQuestion": "How many <b class=\"r\">red<\/b> marbles did your opponent report drawing? ",
            "catchKey": -1,
            "catchResponse": -1,
            "catchTime": 1681164090327,
            "trialTime": 0
        },
        {
            "exptPart": "trial",
            "trialNumber": 53,
            "roleCurrent": "receiver",
            "marblesSampled": 100,
            "probRed": 0.5,
            "practiceLambda": 5,
            "trialLambda": 0.3,
            "instructedLambda": "honest",
            "drawnRed": 27,
            "reportedRed": 28,
            "inferredRed": 22,
            "playerTrialScore": -5,
            "oppTrialScore": 0,
            "playerTotalScore": -342,
            "oppTotalScore": 6,
            "waitTime": 5398.669544165456,
            "responseTime": 1681164114058,
            "catchQuestion": "How many <b class=\"r\">red<\/b> marbles did your opponent report drawing? ",
            "catchKey": -1,
            "catchResponse": -1,
            "catchTime": 1681164090327,
            "trialTime": 0
        },
        {
            "exptPart": "trial",
            "trialNumber": 54,
            "roleCurrent": "receiver",
            "marblesSampled": 100,
            "probRed": 0.5,
            "practiceLambda": 5,
            "trialLambda": 0.3,
            "instructedLambda": "honest",
            "drawnRed": 80,
            "reportedRed": 80,
            "inferredRed": 77,
            "playerTrialScore": -3,
            "oppTrialScore": 0,
            "playerTotalScore": -345,
            "oppTotalScore": 6,
            "waitTime": 6880.153182521499,
            "responseTime": 1681164127538,
            "catchQuestion": "How many <b class=\"r\">red<\/b> marbles did your opponent report drawing? ",
            "catchKey": -1,
            "catchResponse": -1,
            "catchTime": 1681164090327,
            "trialTime": 0
        },
        {
            "exptPart": "trial",
            "trialNumber": 55,
            "roleCurrent": "receiver",
            "marblesSampled": 100,
            "probRed": 0.5,
            "practiceLambda": 5,
            "trialLambda": 0.3,
            "instructedLambda": "honest",
            "drawnRed": 23,
            "reportedRed": 23,
            "inferredRed": 17,
            "playerTrialScore": -6,
            "oppTrialScore": 0,
            "playerTotalScore": -351,
            "oppTotalScore": 6,
            "waitTime": 5247.872445523972,
            "responseTime": 1681164137686,
            "catchQuestion": "How many <b class=\"r\">red<\/b> marbles did your opponent report drawing? ",
            "catchKey": -1,
            "catchResponse": -1,
            "catchTime": 1681164090327,
            "trialTime": 0
        },
        {
            "exptPart": "trial",
            "trialNumber": 56,
            "roleCurrent": "receiver",
            "marblesSampled": 100,
            "probRed": 0.5,
            "practiceLambda": 5,
            "trialLambda": 0.3,
            "instructedLambda": "honest",
            "drawnRed": 17,
            "reportedRed": 18,
            "inferredRed": 12,
            "playerTrialScore": -5,
            "oppTrialScore": 0,
            "playerTotalScore": -356,
            "oppTotalScore": 6,
            "waitTime": 5919.52078700355,
            "responseTime": 1681164148182,
            "catchQuestion": "How many <b class=\"r\">red<\/b> marbles did your opponent report drawing? ",
            "catchKey": -1,
            "catchResponse": -1,
            "catchTime": 1681164090327,
            "trialTime": 0
        },
        {
            "exptPart": "trial",
            "trialNumber": 57,
            "roleCurrent": "receiver",
            "marblesSampled": 100,
            "probRed": 0.5,
            "practiceLambda": 5,
            "trialLambda": 0.3,
            "instructedLambda": "honest",
            "drawnRed": 39,
            "reportedRed": 39,
            "inferredRed": 31,
            "playerTrialScore": -8,
            "oppTrialScore": 0,
            "playerTotalScore": -364,
            "oppTotalScore": 6,
            "waitTime": 6963.9762474118925,
            "responseTime": 1681164158528,
            "catchQuestion": "How many <b class=\"r\">red<\/b> marbles did your opponent report drawing? ",
            "catchKey": -1,
            "catchResponse": -1,
            "catchTime": 1681164090327,
            "trialTime": 0
        },
        {
            "exptPart": "trial",
            "trialNumber": 58,
            "roleCurrent": "receiver",
            "marblesSampled": 100,
            "probRed": 0.5,
            "practiceLambda": 5,
            "trialLambda": 0.3,
            "instructedLambda": "honest",
            "drawnRed": 65,
            "reportedRed": 66,
            "inferredRed": 60,
            "playerTrialScore": -5,
            "oppTrialScore": 0,
            "playerTotalScore": -369,
            "oppTotalScore": 6,
            "waitTime": 6993.769477727357,
            "responseTime": 1681164170569,
            "catchQuestion": "How many <b class=\"r\">red<\/b> marbles did your opponent report drawing? ",
            "catchKey": -1,
            "catchResponse": -1,
            "catchTime": 1681164090327,
            "trialTime": 0
        },
        {
            "exptPart": "trial",
            "trialNumber": 59,
            "roleCurrent": "receiver",
            "marblesSampled": 100,
            "probRed": 0.5,
            "practiceLambda": 5,
            "trialLambda": 0.3,
            "instructedLambda": "honest",
            "drawnRed": 56,
            "reportedRed": 56,
            "inferredRed": 51,
            "playerTrialScore": -5,
            "oppTrialScore": 0,
            "playerTotalScore": -374,
            "oppTotalScore": 6,
            "waitTime": 5999.287060850484,
            "responseTime": 1681164181204,
            "catchQuestion": "How many <b class=\"r\">red<\/b> marbles did your opponent report drawing? ",
            "catchKey": -1,
            "catchResponse": -1,
            "catchTime": 1681164090327,
            "trialTime": 0
        },
        {
            "exptPart": "trial",
            "trialNumber": 60,
            "roleCurrent": "receiver",
            "marblesSampled": 100,
            "probRed": 0.5,
            "practiceLambda": 5,
            "trialLambda": 0.3,
            "instructedLambda": "honest",
            "drawnRed": 46,
            "reportedRed": 46,
            "inferredRed": 42,
            "playerTrialScore": -4,
            "oppTrialScore": 0,
            "playerTotalScore": -378,
            "oppTotalScore": 6,
            "waitTime": 6158.727216882146,
            "responseTime": 1681164192156,
            "catchQuestion": "How many <b class=\"r\">red<\/b> marbles did your opponent report drawing? ",
            "catchKey": -1,
            "catchResponse": -1,
            "catchTime": 1681164192156,
            "trialTime": 0
        },
        {
            "exptPart": "trial",
            "trialNumber": 61,
            "roleCurrent": "receiver",
            "marblesSampled": 100,
            "probRed": 0.5,
            "practiceLambda": 5,
            "trialLambda": 0.3,
            "instructedLambda": "honest",
            "drawnRed": 75,
            "reportedRed": 75,
            "inferredRed": 67,
            "playerTrialScore": -8,
            "oppTrialScore": 0,
            "playerTotalScore": -386,
            "oppTotalScore": 6,
            "waitTime": 6345.596871831679,
            "responseTime": 1681164208652,
            "catchQuestion": "How many <b class=\"r\">red<\/b> marbles did your opponent report drawing? ",
            "catchKey": -1,
            "catchResponse": -1,
            "catchTime": 1681164192156,
            "trialTime": 0
        },
        {
            "exptPart": "trial",
            "trialNumber": 62,
            "roleCurrent": "receiver",
            "marblesSampled": 100,
            "probRed": 0.5,
            "practiceLambda": 5,
            "trialLambda": 0.3,
            "instructedLambda": "honest",
            "drawnRed": 35,
            "reportedRed": 35,
            "inferredRed": 29,
            "playerTrialScore": -6,
            "oppTrialScore": 0,
            "playerTotalScore": -392,
            "oppTotalScore": 6,
            "waitTime": 7494.299459738519,
            "responseTime": 1681164226411,
            "catchQuestion": "How many <b class=\"r\">red<\/b> marbles did your opponent report drawing? ",
            "catchKey": -1,
            "catchResponse": -1,
            "catchTime": 1681164192156,
            "trialTime": 0
        },
        {
            "exptPart": "trial",
            "trialNumber": 63,
            "roleCurrent": "receiver",
            "marblesSampled": 100,
            "probRed": 0.5,
            "practiceLambda": 5,
            "trialLambda": 0.3,
            "instructedLambda": "honest",
            "drawnRed": 48,
            "reportedRed": 49,
            "inferredRed": 44,
            "playerTrialScore": -4,
            "oppTrialScore": 0,
            "playerTotalScore": -396,
            "oppTotalScore": 6,
            "waitTime": 7484.837279745725,
            "responseTime": 1681164240616,
            "catchQuestion": "How many <b class=\"r\">red<\/b> marbles did your opponent report drawing? ",
            "catchKey": -1,
            "catchResponse": -1,
            "catchTime": 1681164192156,
            "trialTime": 0
        },
        {
            "exptPart": "trial",
            "trialNumber": 64,
            "roleCurrent": "receiver",
            "marblesSampled": 100,
            "probRed": 0.5,
            "practiceLambda": 5,
            "trialLambda": 0.3,
            "instructedLambda": "honest",
            "drawnRed": 30,
            "reportedRed": 30,
            "inferredRed": 23,
            "playerTrialScore": -7,
            "oppTrialScore": 0,
            "playerTotalScore": -403,
            "oppTotalScore": 6,
            "waitTime": 5830.468519770218,
            "responseTime": 1681164256091,
            "catchQuestion": "How many <b class=\"r\">red<\/b> marbles did your opponent report drawing? ",
            "catchKey": -1,
            "catchResponse": -1,
            "catchTime": 1681164192156,
            "trialTime": 0
        },
        {
            "exptPart": "trial",
            "trialNumber": 65,
            "roleCurrent": "receiver",
            "marblesSampled": 100,
            "probRed": 0.5,
            "practiceLambda": 5,
            "trialLambda": 0.3,
            "instructedLambda": "honest",
            "drawnRed": 55,
            "reportedRed": 57,
            "inferredRed": 43,
            "playerTrialScore": -12,
            "oppTrialScore": 0,
            "playerTotalScore": -415,
            "oppTotalScore": 6,
            "waitTime": 5597.253668040203,
            "responseTime": 1681164273680,
            "catchQuestion": "How many <b class=\"r\">red<\/b> marbles did your opponent report drawing? ",
            "catchKey": 57,
            "catchResponse": 57,
            "catchTime": 1681164273680,
            "trialTime": 0
        },
        {
            "exptPart": "trial",
            "trialNumber": 66,
            "roleCurrent": "receiver",
            "marblesSampled": 100,
            "probRed": 0.5,
            "practiceLambda": 5,
            "trialLambda": 0.3,
            "instructedLambda": "honest",
            "drawnRed": 45,
            "reportedRed": 45,
            "inferredRed": 41,
            "playerTrialScore": -4,
            "oppTrialScore": 0,
            "playerTotalScore": -419,
            "oppTotalScore": 6,
            "waitTime": 5342.651670611158,
            "responseTime": 1681164301717,
            "catchQuestion": "How many <b class=\"r\">red<\/b> marbles did your opponent report drawing? ",
            "catchKey": -1,
            "catchResponse": -1,
            "catchTime": 1681164273680,
            "trialTime": 0
        },
        {
            "exptPart": "trial",
            "trialNumber": 67,
            "roleCurrent": "receiver",
            "marblesSampled": 100,
            "probRed": 0.5,
            "practiceLambda": 5,
            "trialLambda": 0.3,
            "instructedLambda": "honest",
            "drawnRed": 38,
            "reportedRed": 38,
            "inferredRed": 33,
            "playerTrialScore": -5,
            "oppTrialScore": 0,
            "playerTotalScore": -424,
            "oppTotalScore": 6,
            "waitTime": 5146.995096567598,
            "responseTime": 1681164310588,
            "catchQuestion": "How many <b class=\"r\">red<\/b> marbles did your opponent report drawing? ",
            "catchKey": -1,
            "catchResponse": -1,
            "catchTime": 1681164273680,
            "trialTime": 0
        },
        {
            "exptPart": "trial",
            "trialNumber": 68,
            "roleCurrent": "receiver",
            "marblesSampled": 100,
            "probRed": 0.5,
            "practiceLambda": 5,
            "trialLambda": 0.3,
            "instructedLambda": "honest",
            "drawnRed": 65,
            "reportedRed": 65,
            "inferredRed": 66,
            "playerTrialScore": -1,
            "oppTrialScore": 1,
            "playerTotalScore": -425,
            "oppTotalScore": 7,
            "waitTime": 5516.4898956443,
            "responseTime": 1681164322469,
            "catchQuestion": "How many <b class=\"r\">red<\/b> marbles did your opponent report drawing? ",
            "catchKey": -1,
            "catchResponse": -1,
            "catchTime": 1681164273680,
            "trialTime": 0
        },
        {
            "exptPart": "trial",
            "trialNumber": 69,
            "roleCurrent": "receiver",
            "marblesSampled": 100,
            "probRed": 0.5,
            "practiceLambda": 5,
            "trialLambda": 0.3,
            "instructedLambda": "honest",
            "drawnRed": 57,
            "reportedRed": 58,
            "inferredRed": 52,
            "playerTrialScore": -5,
            "oppTrialScore": 0,
            "playerTotalScore": -430,
            "oppTotalScore": 7,
            "waitTime": 7369.352945434257,
            "responseTime": 1681164334271,
            "catchQuestion": "How many <b class=\"r\">red<\/b> marbles did your opponent report drawing? ",
            "catchKey": -1,
            "catchResponse": -1,
            "catchTime": 1681164273680,
            "trialTime": 0
        },
        {
            "exptPart": "trial",
            "trialNumber": 70,
            "roleCurrent": "receiver",
            "marblesSampled": 100,
            "probRed": 0.5,
            "practiceLambda": 5,
            "trialLambda": 0.3,
            "instructedLambda": "honest",
            "drawnRed": 69,
            "reportedRed": 70,
            "inferredRed": 67,
            "playerTrialScore": -2,
            "oppTrialScore": 0,
            "playerTotalScore": -432,
            "oppTotalScore": 7,
            "waitTime": 7041.396844304836,
            "responseTime": 1681164346642,
            "catchQuestion": "How many <b class=\"r\">red<\/b> marbles did your opponent report drawing? ",
            "catchKey": -1,
            "catchResponse": -1,
            "catchTime": 1681164346642,
            "trialTime": 0
        },
        {
            "exptPart": "trial",
            "trialNumber": 71,
            "roleCurrent": "receiver",
            "marblesSampled": 100,
            "probRed": 0.5,
            "practiceLambda": 5,
            "trialLambda": 0.3,
            "instructedLambda": "honest",
            "drawnRed": 63,
            "reportedRed": 63,
            "inferredRed": 58,
            "playerTrialScore": -5,
            "oppTrialScore": 0,
            "playerTotalScore": -437,
            "oppTotalScore": 7,
            "waitTime": 5126.233333204489,
            "responseTime": 1681164359506,
            "catchQuestion": "How many <b class=\"r\">red<\/b> marbles did your opponent report drawing? ",
            "catchKey": -1,
            "catchResponse": -1,
            "catchTime": 1681164346642,
            "trialTime": 0
        },
        {
            "exptPart": "trial",
            "trialNumber": 72,
            "roleCurrent": "receiver",
            "marblesSampled": 100,
            "probRed": 0.5,
            "practiceLambda": 5,
            "trialLambda": 0.3,
            "instructedLambda": "honest",
            "drawnRed": 90,
            "reportedRed": 90,
            "inferredRed": 70,
            "playerTrialScore": -20,
            "oppTrialScore": 0,
            "playerTotalScore": -457,
            "oppTotalScore": 7,
            "waitTime": 6230.311526854515,
            "responseTime": 1681164373074,
            "catchQuestion": "How many <b class=\"r\">red<\/b> marbles did your opponent report drawing? ",
            "catchKey": -1,
            "catchResponse": -1,
            "catchTime": 1681164346642,
            "trialTime": 0
        },
        {
            "exptPart": "trial",
            "trialNumber": 73,
            "roleCurrent": "receiver",
            "marblesSampled": 100,
            "probRed": 0.5,
            "practiceLambda": 5,
            "trialLambda": 0.3,
            "instructedLambda": "honest",
            "drawnRed": 74,
            "reportedRed": 75,
            "inferredRed": 69,
            "playerTrialScore": -5,
            "oppTrialScore": 0,
            "playerTotalScore": -462,
            "oppTotalScore": 7,
            "waitTime": 6300.22357733412,
            "responseTime": 1681164385097,
            "catchQuestion": "How many <b class=\"r\">red<\/b> marbles did your opponent report drawing? ",
            "catchKey": -1,
            "catchResponse": -1,
            "catchTime": 1681164346642,
            "trialTime": 0
        },
        {
            "exptPart": "trial",
            "trialNumber": 74,
            "roleCurrent": "receiver",
            "marblesSampled": 100,
            "probRed": 0.5,
            "practiceLambda": 5,
            "trialLambda": 0.3,
            "instructedLambda": "honest",
            "drawnRed": 30,
            "reportedRed": 30,
            "inferredRed": 28,
            "playerTrialScore": -2,
            "oppTrialScore": 0,
            "playerTotalScore": -464,
            "oppTotalScore": 7,
            "waitTime": 5358.179332985858,
            "responseTime": 1681164394577,
            "catchQuestion": "How many <b class=\"r\">red<\/b> marbles did your opponent report drawing? ",
            "catchKey": -1,
            "catchResponse": -1,
            "catchTime": 1681164346642,
            "trialTime": 0
        },
        {
            "exptPart": "trial",
            "trialNumber": 75,
            "roleCurrent": "receiver",
            "marblesSampled": 100,
            "probRed": 0.5,
            "practiceLambda": 5,
            "trialLambda": 0.3,
            "instructedLambda": "honest",
            "drawnRed": 24,
            "reportedRed": 24,
            "inferredRed": 18,
            "playerTrialScore": -6,
            "oppTrialScore": 0,
            "playerTotalScore": -470,
            "oppTotalScore": 7,
            "waitTime": 5769.026421393775,
            "responseTime": 1681164406650,
            "catchQuestion": "How many <b class=\"r\">red<\/b> marbles did your opponent report drawing? ",
            "catchKey": -1,
            "catchResponse": -1,
            "catchTime": 1681164346642,
            "trialTime": 0
        },
        {
            "exptPart": "trial",
            "trialNumber": 76,
            "roleCurrent": "receiver",
            "marblesSampled": 100,
            "probRed": 0.5,
            "practiceLambda": 5,
            "trialLambda": 0.3,
            "instructedLambda": "honest",
            "drawnRed": 28,
            "reportedRed": 28,
            "inferredRed": 21,
            "playerTrialScore": -7,
            "oppTrialScore": 0,
            "playerTotalScore": -477,
            "oppTotalScore": 7,
            "waitTime": 5190.735080015306,
            "responseTime": 1681164416712,
            "catchQuestion": "How many <b class=\"r\">red<\/b> marbles did your opponent report drawing? ",
            "catchKey": -1,
            "catchResponse": -1,
            "catchTime": 1681164346642,
            "trialTime": 0
        },
        {
            "exptPart": "trial",
            "trialNumber": 77,
            "roleCurrent": "receiver",
            "marblesSampled": 100,
            "probRed": 0.5,
            "practiceLambda": 5,
            "trialLambda": 0.3,
            "instructedLambda": "honest",
            "drawnRed": 68,
            "reportedRed": 68,
            "inferredRed": 66,
            "playerTrialScore": -2,
            "oppTrialScore": 0,
            "playerTotalScore": -479,
            "oppTotalScore": 7,
            "waitTime": 5607.255325626713,
            "responseTime": 1681164426650,
            "catchQuestion": "How many <b class=\"r\">red<\/b> marbles did your opponent report drawing? ",
            "catchKey": -1,
            "catchResponse": -1,
            "catchTime": 1681164346642,
            "trialTime": 0
        },
        {
            "exptPart": "trial",
            "trialNumber": 78,
            "roleCurrent": "receiver",
            "marblesSampled": 100,
            "probRed": 0.5,
            "practiceLambda": 5,
            "trialLambda": 0.3,
            "instructedLambda": "honest",
            "drawnRed": 30,
            "reportedRed": 30,
            "inferredRed": 17,
            "playerTrialScore": -13,
            "oppTrialScore": 0,
            "playerTotalScore": -492,
            "oppTotalScore": 7,
            "waitTime": 5469.274060096984,
            "responseTime": 1681164441220,
            "catchQuestion": "How many <b class=\"r\">red<\/b> marbles did your opponent report drawing? ",
            "catchKey": -1,
            "catchResponse": -1,
            "catchTime": 1681164346642,
            "trialTime": 0
        },
        {
            "exptPart": "trial",
            "trialNumber": 79,
            "roleCurrent": "receiver",
            "marblesSampled": 100,
            "probRed": 0.5,
            "practiceLambda": 5,
            "trialLambda": 0.3,
            "instructedLambda": "honest",
            "drawnRed": 9,
            "reportedRed": 9,
            "inferredRed": 5,
            "playerTrialScore": -4,
            "oppTrialScore": 0,
            "playerTotalScore": -496,
            "oppTotalScore": 7,
            "waitTime": 7304.093003956447,
            "responseTime": 1681164455769,
            "catchQuestion": "How many <b class=\"r\">red<\/b> marbles did your opponent report drawing? ",
            "catchKey": -1,
            "catchResponse": -1,
            "catchTime": 1681164346642,
            "trialTime": 0
        },
        {
            "exptPart": "trial",
            "trialNumber": 80,
            "roleCurrent": "receiver",
            "marblesSampled": 100,
            "probRed": 0.5,
            "practiceLambda": 5,
            "trialLambda": 0.3,
            "instructedLambda": "honest",
            "drawnRed": 67,
            "reportedRed": 67,
            "inferredRed": 61,
            "playerTrialScore": -6,
            "oppTrialScore": 0,
            "playerTotalScore": -502,
            "oppTotalScore": 7,
            "waitTime": 6449.79953480616,
            "responseTime": 1681164468568,
            "catchQuestion": "How many <b class=\"r\">red<\/b> marbles did your opponent report drawing? ",
            "catchKey": -1,
            "catchResponse": -1,
            "catchTime": 1681164468568,
            "trialTime": 0
        },
        {
            "exptPart": "trial",
            "trialNumber": 81,
            "roleCurrent": "receiver",
            "marblesSampled": 100,
            "probRed": 0.5,
            "practiceLambda": 5,
            "trialLambda": 0.3,
            "instructedLambda": "honest",
            "drawnRed": 61,
            "reportedRed": 61,
            "inferredRed": 55,
            "playerTrialScore": -6,
            "oppTrialScore": 0,
            "playerTotalScore": -508,
            "oppTotalScore": 7,
            "waitTime": 5231.00853267516,
            "responseTime": 1681164482369,
            "catchQuestion": "How many <b class=\"r\">red<\/b> marbles did your opponent report drawing? ",
            "catchKey": -1,
            "catchResponse": -1,
            "catchTime": 1681164468568,
            "trialTime": 0
        },
        {
            "exptPart": "trial",
            "trialNumber": 82,
            "roleCurrent": "receiver",
            "marblesSampled": 100,
            "probRed": 0.5,
            "practiceLambda": 5,
            "trialLambda": 0.3,
            "instructedLambda": "honest",
            "drawnRed": 54,
            "reportedRed": 54,
            "inferredRed": 51,
            "playerTrialScore": -3,
            "oppTrialScore": 0,
            "playerTotalScore": -511,
            "oppTotalScore": 7,
            "waitTime": 7250.082462810962,
            "responseTime": 1681164499291,
            "catchQuestion": "How many <b class=\"r\">red<\/b> marbles did your opponent report drawing? ",
            "catchKey": -1,
            "catchResponse": -1,
            "catchTime": 1681164468568,
            "trialTime": 0
        },
        {
            "exptPart": "trial",
            "trialNumber": 83,
            "roleCurrent": "receiver",
            "marblesSampled": 100,
            "probRed": 0.5,
            "practiceLambda": 5,
            "trialLambda": 0.3,
            "instructedLambda": "honest",
            "drawnRed": 54,
            "reportedRed": 54,
            "inferredRed": 54,
            "playerTrialScore": 0,
            "oppTrialScore": 0,
            "playerTotalScore": -511,
            "oppTotalScore": 7,
            "waitTime": 5574.610767944973,
            "responseTime": 1681164509310,
            "catchQuestion": "How many <b class=\"r\">red<\/b> marbles did your opponent report drawing? ",
            "catchKey": -1,
            "catchResponse": -1,
            "catchTime": 1681164468568,
            "trialTime": 0
        },
        {
            "exptPart": "trial",
            "trialNumber": 84,
            "roleCurrent": "receiver",
            "marblesSampled": 100,
            "probRed": 0.5,
            "practiceLambda": 5,
            "trialLambda": 0.3,
            "instructedLambda": "honest",
            "drawnRed": 29,
            "reportedRed": 30,
            "inferredRed": 32,
            "playerTrialScore": -3,
            "oppTrialScore": 3,
            "playerTotalScore": -514,
            "oppTotalScore": 10,
            "waitTime": 6286.202841234661,
            "responseTime": 1681164519042,
            "catchQuestion": "How many <b class=\"r\">red<\/b> marbles did your opponent report drawing? ",
            "catchKey": -1,
            "catchResponse": -1,
            "catchTime": 1681164468568,
            "trialTime": 0
        },
        {
            "exptPart": "trial",
            "trialNumber": 85,
            "roleCurrent": "receiver",
            "marblesSampled": 100,
            "probRed": 0.5,
            "practiceLambda": 5,
            "trialLambda": 0.3,
            "instructedLambda": "honest",
            "drawnRed": 64,
            "reportedRed": 64,
            "inferredRed": 59,
            "playerTrialScore": -5,
            "oppTrialScore": 0,
            "playerTotalScore": -519,
            "oppTotalScore": 10,
            "waitTime": 7125.976426083573,
            "responseTime": 1681164532677,
            "catchQuestion": "How many <b class=\"r\">red<\/b> marbles did your opponent report drawing? ",
            "catchKey": -1,
            "catchResponse": -1,
            "catchTime": 1681164468568,
            "trialTime": 0
        },
        {
            "exptPart": "trial",
            "trialNumber": 86,
            "roleCurrent": "receiver",
            "marblesSampled": 100,
            "probRed": 0.5,
            "practiceLambda": 5,
            "trialLambda": 0.3,
            "instructedLambda": "honest",
            "drawnRed": 57,
            "reportedRed": 57,
            "inferredRed": 52,
            "playerTrialScore": -5,
            "oppTrialScore": 0,
            "playerTotalScore": -524,
            "oppTotalScore": 10,
            "waitTime": 6541.57241977304,
            "responseTime": 1681164544191,
            "catchQuestion": "How many <b class=\"r\">red<\/b> marbles did your opponent report drawing? ",
            "catchKey": -1,
            "catchResponse": -1,
            "catchTime": 1681164468568,
            "trialTime": 0
        },
        {
            "exptPart": "trial",
            "trialNumber": 87,
            "roleCurrent": "receiver",
            "marblesSampled": 100,
            "probRed": 0.5,
            "practiceLambda": 5,
            "trialLambda": 0.3,
            "instructedLambda": "honest",
            "drawnRed": 54,
            "reportedRed": 54,
            "inferredRed": 37,
            "playerTrialScore": -17,
            "oppTrialScore": 0,
            "playerTotalScore": -541,
            "oppTotalScore": 10,
            "waitTime": 6049.331705750875,
            "responseTime": 1681164557331,
            "catchQuestion": "How many <b class=\"r\">red<\/b> marbles did your opponent report drawing? ",
            "catchKey": -1,
            "catchResponse": -1,
            "catchTime": 1681164468568,
            "trialTime": 0
        },
        {
            "exptPart": "trial",
            "trialNumber": 88,
            "roleCurrent": "receiver",
            "marblesSampled": 100,
            "probRed": 0.5,
            "practiceLambda": 5,
            "trialLambda": 0.3,
            "instructedLambda": "honest",
            "drawnRed": 34,
            "reportedRed": 34,
            "inferredRed": 29,
            "playerTrialScore": -5,
            "oppTrialScore": 0,
            "playerTotalScore": -546,
            "oppTotalScore": 10,
            "waitTime": 5787.4204361762795,
            "responseTime": 1681164568045,
            "catchQuestion": "How many <b class=\"r\">red<\/b> marbles did your opponent report drawing? ",
            "catchKey": -1,
            "catchResponse": -1,
            "catchTime": 1681164468568,
            "trialTime": 0
        },
        {
            "exptPart": "trial",
            "trialNumber": 89,
            "roleCurrent": "receiver",
            "marblesSampled": 100,
            "probRed": 0.5,
            "practiceLambda": 5,
            "trialLambda": 0.3,
            "instructedLambda": "honest",
            "drawnRed": 64,
            "reportedRed": 64,
            "inferredRed": 56,
            "playerTrialScore": -8,
            "oppTrialScore": 0,
            "playerTotalScore": -554,
            "oppTotalScore": 10,
            "waitTime": 6822.925391565788,
            "responseTime": 1681164582050,
            "catchQuestion": "How many <b class=\"r\">red<\/b> marbles did your opponent report drawing? ",
            "catchKey": -1,
            "catchResponse": -1,
            "catchTime": 1681164468568,
            "trialTime": 0
        },
        {
            "exptPart": "trial",
            "trialNumber": 90,
            "roleCurrent": "receiver",
            "marblesSampled": 100,
            "probRed": 0.5,
            "practiceLambda": 5,
            "trialLambda": 0.3,
            "instructedLambda": "honest",
            "drawnRed": 73,
            "reportedRed": 73,
            "inferredRed": 67,
            "playerTrialScore": -6,
            "oppTrialScore": 0,
            "playerTotalScore": -560,
            "oppTotalScore": 10,
            "waitTime": 5612.889960236867,
            "responseTime": 1681164591496,
            "catchQuestion": "How many <b class=\"r\">red<\/b> marbles did your opponent report drawing? ",
            "catchKey": -1,
            "catchResponse": -1,
            "catchTime": 1681164591496,
            "trialTime": 0
        },
        {
            "exptPart": "trial",
            "trialNumber": 91,
            "roleCurrent": "receiver",
            "marblesSampled": 100,
            "probRed": 0.5,
            "practiceLambda": 5,
            "trialLambda": 0.3,
            "instructedLambda": "honest",
            "drawnRed": 17,
            "reportedRed": 17,
            "inferredRed": 10,
            "playerTrialScore": -7,
            "oppTrialScore": 0,
            "playerTotalScore": -567,
            "oppTotalScore": 10,
            "waitTime": 5657.3217516888135,
            "responseTime": 1681164603447,
            "catchQuestion": "How many <b class=\"r\">red<\/b> marbles did your opponent report drawing? ",
            "catchKey": -1,
            "catchResponse": -1,
            "catchTime": 1681164591496,
            "trialTime": 0
        },
        {
            "exptPart": "trial",
            "trialNumber": 92,
            "roleCurrent": "receiver",
            "marblesSampled": 100,
            "probRed": 0.5,
            "practiceLambda": 5,
            "trialLambda": 0.3,
            "instructedLambda": "honest",
            "drawnRed": 62,
            "reportedRed": 62,
            "inferredRed": 58,
            "playerTrialScore": -4,
            "oppTrialScore": 0,
            "playerTotalScore": -571,
            "oppTotalScore": 10,
            "waitTime": 5576.404464081577,
            "responseTime": 1681164613253,
            "catchQuestion": "How many <b class=\"r\">red<\/b> marbles did your opponent report drawing? ",
            "catchKey": -1,
            "catchResponse": -1,
            "catchTime": 1681164591496,
            "trialTime": 0
        },
        {
            "exptPart": "trial",
            "trialNumber": 93,
            "roleCurrent": "receiver",
            "marblesSampled": 100,
            "probRed": 0.5,
            "practiceLambda": 5,
            "trialLambda": 0.3,
            "instructedLambda": "honest",
            "drawnRed": 23,
            "reportedRed": 24,
            "inferredRed": 22,
            "playerTrialScore": -1,
            "oppTrialScore": 0,
            "playerTotalScore": -572,
            "oppTotalScore": 10,
            "waitTime": 6643.327020292216,
            "responseTime": 1681164625183,
            "catchQuestion": "How many <b class=\"r\">red<\/b> marbles did your opponent report drawing? ",
            "catchKey": -1,
            "catchResponse": -1,
            "catchTime": 1681164591496,
            "trialTime": 0
        },
        {
            "exptPart": "trial",
            "trialNumber": 94,
            "roleCurrent": "receiver",
            "marblesSampled": 100,
            "probRed": 0.5,
            "practiceLambda": 5,
            "trialLambda": 0.3,
            "instructedLambda": "honest",
            "drawnRed": 62,
            "reportedRed": 63,
            "inferredRed": 57,
            "playerTrialScore": -5,
            "oppTrialScore": 0,
            "playerTotalScore": -577,
            "oppTotalScore": 10,
            "waitTime": 6264.191649897708,
            "responseTime": 1681164639773,
            "catchQuestion": "How many <b class=\"r\">red<\/b> marbles did your opponent report drawing? ",
            "catchKey": -1,
            "catchResponse": -1,
            "catchTime": 1681164591496,
            "trialTime": 0
        },
        {
            "exptPart": "trial",
            "trialNumber": 95,
            "roleCurrent": "receiver",
            "marblesSampled": 100,
            "probRed": 0.5,
            "practiceLambda": 5,
            "trialLambda": 0.3,
            "instructedLambda": "honest",
            "drawnRed": 59,
            "reportedRed": 59,
            "inferredRed": 56,
            "playerTrialScore": -3,
            "oppTrialScore": 0,
            "playerTotalScore": -580,
            "oppTotalScore": 10,
            "waitTime": 6142.154174001776,
            "responseTime": 1681164650523,
            "catchQuestion": "How many <b class=\"r\">red<\/b> marbles did your opponent report drawing? ",
            "catchKey": -1,
            "catchResponse": -1,
            "catchTime": 1681164591496,
            "trialTime": 0
        },
        {
            "exptPart": "trial",
            "trialNumber": 96,
            "roleCurrent": "receiver",
            "marblesSampled": 100,
            "probRed": 0.5,
            "practiceLambda": 5,
            "trialLambda": 0.3,
            "instructedLambda": "honest",
            "drawnRed": 49,
            "reportedRed": 49,
            "inferredRed": 39,
            "playerTrialScore": -10,
            "oppTrialScore": 0,
            "playerTotalScore": -590,
            "oppTotalScore": 10,
            "waitTime": 6453.684069089951,
            "responseTime": 1681164664570,
            "catchQuestion": "How many <b class=\"r\">red<\/b> marbles did your opponent report drawing? ",
            "catchKey": -1,
            "catchResponse": -1,
            "catchTime": 1681164591496,
            "trialTime": 0
        },
        {
            "exptPart": "trial",
            "trialNumber": 97,
            "roleCurrent": "receiver",
            "marblesSampled": 100,
            "probRed": 0.5,
            "practiceLambda": 5,
            "trialLambda": 0.3,
            "instructedLambda": "honest",
            "drawnRed": 64,
            "reportedRed": 64,
            "inferredRed": 57,
            "playerTrialScore": -7,
            "oppTrialScore": 0,
            "playerTotalScore": -597,
            "oppTotalScore": 10,
            "waitTime": 5215.893432232743,
            "responseTime": 1681164674890,
            "catchQuestion": "How many <b class=\"r\">red<\/b> marbles did your opponent report drawing? ",
            "catchKey": 64,
            "catchResponse": 64,
            "catchTime": 1681164674890,
            "trialTime": 0
        },
        {
            "exptPart": "trial",
            "trialNumber": 98,
            "roleCurrent": "receiver",
            "marblesSampled": 100,
            "probRed": 0.5,
            "practiceLambda": 5,
            "trialLambda": 0.3,
            "instructedLambda": "honest",
            "drawnRed": 38,
            "reportedRed": 38,
            "inferredRed": 32,
            "playerTrialScore": -6,
            "oppTrialScore": 0,
            "playerTotalScore": -603,
            "oppTotalScore": 10,
            "waitTime": 6667.0518766268415,
            "responseTime": 1681164690723,
            "catchQuestion": "How many <b class=\"r\">red<\/b> marbles did your opponent report drawing? ",
            "catchKey": -1,
            "catchResponse": -1,
            "catchTime": 1681164674890,
            "trialTime": 0
        },
        {
            "exptPart": "trial",
            "trialNumber": 99,
            "roleCurrent": "receiver",
            "marblesSampled": 100,
            "probRed": 0.5,
            "practiceLambda": 5,
            "trialLambda": 0.3,
            "instructedLambda": "honest",
            "drawnRed": 3,
            "reportedRed": 4,
            "inferredRed": 1,
            "playerTrialScore": -2,
            "oppTrialScore": 0,
            "playerTotalScore": -605,
            "oppTotalScore": 10,
            "waitTime": 6140.247701369492,
            "responseTime": 1681164702095,
            "catchQuestion": "How many <b class=\"r\">red<\/b> marbles did your opponent report drawing? ",
            "catchKey": -1,
            "catchResponse": -1,
            "catchTime": 1681164674890,
            "trialTime": 0
        },
        {
            "exptPart": "trial",
            "trialNumber": 100,
            "roleCurrent": "receiver",
            "marblesSampled": 100,
            "probRed": 0.5,
            "practiceLambda": 5,
            "trialLambda": 0.3,
            "instructedLambda": "honest",
            "drawnRed": 79,
            "reportedRed": 79,
            "inferredRed": 72,
            "playerTrialScore": -7,
            "oppTrialScore": 0,
            "playerTotalScore": -612,
            "oppTotalScore": 10,
            "waitTime": 6127.239852514446,
            "responseTime": 1681164714013,
            "catchQuestion": "How many <b class=\"r\">red<\/b> marbles did your opponent report drawing? ",
            "catchKey": 79,
            "catchResponse": 79,
            "catchTime": 1681164714013,
            "trialTime": 0
        }
    ]
}