{
    "client": {
        "type": "sona",
        "experiment_id": 2228,
        "credit_token": "b315147ae43241ea9c65086cb510cfb7",
        "survey_code": "44572",
        "sid": "sona-44572",
        "window": {
            "width": 1728,
            "height": 875
        },
        "screen": {
            "width": 1728,
            "height": 1117
        },
        "userAgent": "Mozilla\/5.0 (Macintosh; Intel Mac OS X 10_15_7) AppleWebKit\/537.36 (KHTML, like Gecko) Chrome\/111.0.0.0 Safari\/537.36",
        "score": 0,
        "bonus": 0
    },
    "expt": {
        "saveURL": "submit.simple.php",
        "trials": 100,
        "practiceTrials": 2,
        "marblesSampled": 100,
        "probRed": 0.5,
        "practiceLambdaAI": 5,
        "lambdaAI": 0.3,
        "roles": [
            "sender",
            "receiver"
        ],
        "cost": "unif",
        "goal": "over",
        "oppDishonesty": "dishonest_small",
        "catchTrials": [
            31,
            7,
            17,
            12,
            93,
            19,
            59,
            61,
            48,
            87
        ],
        "scoreTotal": {
            "player": -404,
            "opp": 103
        },
        "sona": {
            "experiment_id": 2228,
            "credit_token": "b315147ae43241ea9c65086cb510cfb7"
        },
        "pilot": false,
        "debug": false
    },
    "trials": [
        {
            "exptPart": "practice",
            "trialNumber": 1,
            "roleCurrent": "sender",
            "marblesSampled": 100,
            "probRed": 0.5,
            "practiceLambda": 5,
            "trialLambda": 0.3,
            "instructedLambda": "dishonest_small",
            "drawnRed": 69,
            "reportedRed": 68,
            "inferredRed": 62,
            "playerTrialScore": 0,
            "oppTrialScore": -7,
            "playerTotalScore": 0,
            "oppTotalScore": -7,
            "waitTime": 2147.5190203941065,
            "responseTime": 1680999903747,
            "catchQuestion": "How many <b class=\"r\">red<\/b> marbles did you actually draw (before any changes)? ",
            "catchKey": 69,
            "catchResponse": 69,
            "catchTime": 1680999903747,
            "trialTime": 0
        },
        {
            "exptPart": "practice",
            "trialNumber": 2,
            "roleCurrent": "receiver",
            "marblesSampled": 100,
            "probRed": 0.5,
            "practiceLambda": 5,
            "trialLambda": 0.3,
            "instructedLambda": "dishonest_small",
            "drawnRed": 62,
            "reportedRed": 64,
            "inferredRed": 62,
            "playerTrialScore": 0,
            "oppTrialScore": 0,
            "playerTotalScore": 0,
            "oppTotalScore": -7,
            "waitTime": 6230.144392965351,
            "responseTime": 1680999982560,
            "catchQuestion": "How many <b class=\"r\">red<\/b> marbles did your opponent report drawing? ",
            "catchKey": 64,
            "catchResponse": 68,
            "catchTime": 1680999982561,
            "trialTime": 0
        },
        {
            "exptPart": "trial",
            "trialNumber": 1,
            "roleCurrent": "receiver",
            "marblesSampled": 100,
            "probRed": 0.5,
            "practiceLambda": 5,
            "trialLambda": 0.3,
            "instructedLambda": "dishonest_small",
            "drawnRed": 27,
            "reportedRed": 27,
            "inferredRed": 27,
            "playerTrialScore": 0,
            "oppTrialScore": 0,
            "playerTotalScore": 0,
            "oppTotalScore": 0,
            "waitTime": 6344.701284765442,
            "responseTime": 1681000064479,
            "catchQuestion": "How many <b class=\"r\">red<\/b> marbles did your opponent report drawing? ",
            "catchKey": -1,
            "catchResponse": -1,
            "catchTime": 1680999982561,
            "trialTime": 0
        },
        {
            "exptPart": "trial",
            "trialNumber": 2,
            "roleCurrent": "receiver",
            "marblesSampled": 100,
            "probRed": 0.5,
            "practiceLambda": 5,
            "trialLambda": 0.3,
            "instructedLambda": "dishonest_small",
            "drawnRed": 15,
            "reportedRed": 15,
            "inferredRed": 12,
            "playerTrialScore": -3,
            "oppTrialScore": 0,
            "playerTotalScore": -3,
            "oppTotalScore": 0,
            "waitTime": 5394.930972294334,
            "responseTime": 1681000084547,
            "catchQuestion": "How many <b class=\"r\">red<\/b> marbles did your opponent report drawing? ",
            "catchKey": -1,
            "catchResponse": -1,
            "catchTime": 1680999982561,
            "trialTime": 0
        },
        {
            "exptPart": "trial",
            "trialNumber": 3,
            "roleCurrent": "receiver",
            "marblesSampled": 100,
            "probRed": 0.5,
            "practiceLambda": 5,
            "trialLambda": 0.3,
            "instructedLambda": "dishonest_small",
            "drawnRed": 70,
            "reportedRed": 70,
            "inferredRed": 62,
            "playerTrialScore": -8,
            "oppTrialScore": 0,
            "playerTotalScore": -11,
            "oppTotalScore": 0,
            "waitTime": 6412.564393894087,
            "responseTime": 1681000099540,
            "catchQuestion": "How many <b class=\"r\">red<\/b> marbles did your opponent report drawing? ",
            "catchKey": -1,
            "catchResponse": -1,
            "catchTime": 1680999982561,
            "trialTime": 0
        },
        {
            "exptPart": "trial",
            "trialNumber": 4,
            "roleCurrent": "receiver",
            "marblesSampled": 100,
            "probRed": 0.5,
            "practiceLambda": 5,
            "trialLambda": 0.3,
            "instructedLambda": "dishonest_small",
            "drawnRed": 33,
            "reportedRed": 34,
            "inferredRed": 32,
            "playerTrialScore": -1,
            "oppTrialScore": 0,
            "playerTotalScore": -12,
            "oppTotalScore": 0,
            "waitTime": 6183.246687178812,
            "responseTime": 1681000111267,
            "catchQuestion": "How many <b class=\"r\">red<\/b> marbles did your opponent report drawing? ",
            "catchKey": -1,
            "catchResponse": -1,
            "catchTime": 1680999982561,
            "trialTime": 0
        },
        {
            "exptPart": "trial",
            "trialNumber": 5,
            "roleCurrent": "receiver",
            "marblesSampled": 100,
            "probRed": 0.5,
            "practiceLambda": 5,
            "trialLambda": 0.3,
            "instructedLambda": "dishonest_small",
            "drawnRed": 60,
            "reportedRed": 60,
            "inferredRed": 43,
            "playerTrialScore": -17,
            "oppTrialScore": 0,
            "playerTotalScore": -29,
            "oppTotalScore": 0,
            "waitTime": 5594.592461253351,
            "responseTime": 1681000126775,
            "catchQuestion": "How many <b class=\"r\">red<\/b> marbles did your opponent report drawing? ",
            "catchKey": -1,
            "catchResponse": -1,
            "catchTime": 1680999982561,
            "trialTime": 0
        },
        {
            "exptPart": "trial",
            "trialNumber": 6,
            "roleCurrent": "receiver",
            "marblesSampled": 100,
            "probRed": 0.5,
            "practiceLambda": 5,
            "trialLambda": 0.3,
            "instructedLambda": "dishonest_small",
            "drawnRed": 43,
            "reportedRed": 44,
            "inferredRed": 42,
            "playerTrialScore": -1,
            "oppTrialScore": 0,
            "playerTotalScore": -30,
            "oppTotalScore": 0,
            "waitTime": 5794.3548701659865,
            "responseTime": 1681000136798,
            "catchQuestion": "How many <b class=\"r\">red<\/b> marbles did your opponent report drawing? ",
            "catchKey": -1,
            "catchResponse": -1,
            "catchTime": 1680999982561,
            "trialTime": 0
        },
        {
            "exptPart": "trial",
            "trialNumber": 7,
            "roleCurrent": "receiver",
            "marblesSampled": 100,
            "probRed": 0.5,
            "practiceLambda": 5,
            "trialLambda": 0.3,
            "instructedLambda": "dishonest_small",
            "drawnRed": 43,
            "reportedRed": 44,
            "inferredRed": 42,
            "playerTrialScore": -1,
            "oppTrialScore": 0,
            "playerTotalScore": -31,
            "oppTotalScore": 0,
            "waitTime": 7264.838355385982,
            "responseTime": 1681000147216,
            "catchQuestion": "How many <b class=\"r\">red<\/b> marbles did your opponent report drawing? ",
            "catchKey": -1,
            "catchResponse": -1,
            "catchTime": 1680999982561,
            "trialTime": 0
        },
        {
            "exptPart": "trial",
            "trialNumber": 8,
            "roleCurrent": "receiver",
            "marblesSampled": 100,
            "probRed": 0.5,
            "practiceLambda": 5,
            "trialLambda": 0.3,
            "instructedLambda": "dishonest_small",
            "drawnRed": 60,
            "reportedRed": 60,
            "inferredRed": 59,
            "playerTrialScore": -1,
            "oppTrialScore": 0,
            "playerTotalScore": -32,
            "oppTotalScore": 0,
            "waitTime": 5851.258153989067,
            "responseTime": 1681000159993,
            "catchQuestion": "How many <b class=\"r\">red<\/b> marbles did your opponent report drawing? ",
            "catchKey": 60,
            "catchResponse": 60,
            "catchTime": 1681000159993,
            "trialTime": 0
        },
        {
            "exptPart": "trial",
            "trialNumber": 9,
            "roleCurrent": "receiver",
            "marblesSampled": 100,
            "probRed": 0.5,
            "practiceLambda": 5,
            "trialLambda": 0.3,
            "instructedLambda": "dishonest_small",
            "drawnRed": 37,
            "reportedRed": 37,
            "inferredRed": 36,
            "playerTrialScore": -1,
            "oppTrialScore": 0,
            "playerTotalScore": -33,
            "oppTotalScore": 0,
            "waitTime": 5550.144878935089,
            "responseTime": 1681000177921,
            "catchQuestion": "How many <b class=\"r\">red<\/b> marbles did your opponent report drawing? ",
            "catchKey": -1,
            "catchResponse": -1,
            "catchTime": 1681000159993,
            "trialTime": 0
        },
        {
            "exptPart": "trial",
            "trialNumber": 10,
            "roleCurrent": "receiver",
            "marblesSampled": 100,
            "probRed": 0.5,
            "practiceLambda": 5,
            "trialLambda": 0.3,
            "instructedLambda": "dishonest_small",
            "drawnRed": 25,
            "reportedRed": 25,
            "inferredRed": 20,
            "playerTrialScore": -5,
            "oppTrialScore": 0,
            "playerTotalScore": -38,
            "oppTotalScore": 0,
            "waitTime": 5693.558346371509,
            "responseTime": 1681000188779,
            "catchQuestion": "How many <b class=\"r\">red<\/b> marbles did your opponent report drawing? ",
            "catchKey": -1,
            "catchResponse": -1,
            "catchTime": 1681000188780,
            "trialTime": 0
        },
        {
            "exptPart": "trial",
            "trialNumber": 11,
            "roleCurrent": "receiver",
            "marblesSampled": 100,
            "probRed": 0.5,
            "practiceLambda": 5,
            "trialLambda": 0.3,
            "instructedLambda": "dishonest_small",
            "drawnRed": 30,
            "reportedRed": 30,
            "inferredRed": 28,
            "playerTrialScore": -2,
            "oppTrialScore": 0,
            "playerTotalScore": -40,
            "oppTotalScore": 0,
            "waitTime": 6487.1476599510825,
            "responseTime": 1681000205635,
            "catchQuestion": "How many <b class=\"r\">red<\/b> marbles did your opponent report drawing? ",
            "catchKey": -1,
            "catchResponse": -1,
            "catchTime": 1681000188780,
            "trialTime": 0
        },
        {
            "exptPart": "trial",
            "trialNumber": 12,
            "roleCurrent": "receiver",
            "marblesSampled": 100,
            "probRed": 0.5,
            "practiceLambda": 5,
            "trialLambda": 0.3,
            "instructedLambda": "dishonest_small",
            "drawnRed": 54,
            "reportedRed": 54,
            "inferredRed": 53,
            "playerTrialScore": -1,
            "oppTrialScore": 0,
            "playerTotalScore": -41,
            "oppTotalScore": 0,
            "waitTime": 7212.687027591867,
            "responseTime": 1681000216472,
            "catchQuestion": "How many <b class=\"r\">red<\/b> marbles did your opponent report drawing? ",
            "catchKey": -1,
            "catchResponse": -1,
            "catchTime": 1681000188780,
            "trialTime": 0
        },
        {
            "exptPart": "trial",
            "trialNumber": 13,
            "roleCurrent": "receiver",
            "marblesSampled": 100,
            "probRed": 0.5,
            "practiceLambda": 5,
            "trialLambda": 0.3,
            "instructedLambda": "dishonest_small",
            "drawnRed": 38,
            "reportedRed": 38,
            "inferredRed": 34,
            "playerTrialScore": -4,
            "oppTrialScore": 0,
            "playerTotalScore": -45,
            "oppTotalScore": 0,
            "waitTime": 5350.368126877538,
            "responseTime": 1681000226848,
            "catchQuestion": "How many <b class=\"r\">red<\/b> marbles did your opponent report drawing? ",
            "catchKey": 38,
            "catchResponse": 38,
            "catchTime": 1681000226848,
            "trialTime": 0
        },
        {
            "exptPart": "trial",
            "trialNumber": 14,
            "roleCurrent": "receiver",
            "marblesSampled": 100,
            "probRed": 0.5,
            "practiceLambda": 5,
            "trialLambda": 0.3,
            "instructedLambda": "dishonest_small",
            "drawnRed": 43,
            "reportedRed": 43,
            "inferredRed": 42,
            "playerTrialScore": -1,
            "oppTrialScore": 0,
            "playerTotalScore": -46,
            "oppTotalScore": 0,
            "waitTime": 6856.913284018906,
            "responseTime": 1681000246360,
            "catchQuestion": "How many <b class=\"r\">red<\/b> marbles did your opponent report drawing? ",
            "catchKey": -1,
            "catchResponse": -1,
            "catchTime": 1681000226848,
            "trialTime": 0
        },
        {
            "exptPart": "trial",
            "trialNumber": 15,
            "roleCurrent": "receiver",
            "marblesSampled": 100,
            "probRed": 0.5,
            "practiceLambda": 5,
            "trialLambda": 0.3,
            "instructedLambda": "dishonest_small",
            "drawnRed": 10,
            "reportedRed": 10,
            "inferredRed": 9,
            "playerTrialScore": -1,
            "oppTrialScore": 0,
            "playerTotalScore": -47,
            "oppTotalScore": 0,
            "waitTime": 5506.148114475672,
            "responseTime": 1681000260334,
            "catchQuestion": "How many <b class=\"r\">red<\/b> marbles did your opponent report drawing? ",
            "catchKey": -1,
            "catchResponse": -1,
            "catchTime": 1681000226848,
            "trialTime": 0
        },
        {
            "exptPart": "trial",
            "trialNumber": 16,
            "roleCurrent": "receiver",
            "marblesSampled": 100,
            "probRed": 0.5,
            "practiceLambda": 5,
            "trialLambda": 0.3,
            "instructedLambda": "dishonest_small",
            "drawnRed": 28,
            "reportedRed": 28,
            "inferredRed": 24,
            "playerTrialScore": -4,
            "oppTrialScore": 0,
            "playerTotalScore": -51,
            "oppTotalScore": 0,
            "waitTime": 5780.056188979392,
            "responseTime": 1681000270517,
            "catchQuestion": "How many <b class=\"r\">red<\/b> marbles did your opponent report drawing? ",
            "catchKey": -1,
            "catchResponse": -1,
            "catchTime": 1681000226848,
            "trialTime": 0
        },
        {
            "exptPart": "trial",
            "trialNumber": 17,
            "roleCurrent": "receiver",
            "marblesSampled": 100,
            "probRed": 0.5,
            "practiceLambda": 5,
            "trialLambda": 0.3,
            "instructedLambda": "dishonest_small",
            "drawnRed": 52,
            "reportedRed": 52,
            "inferredRed": 50,
            "playerTrialScore": -2,
            "oppTrialScore": 0,
            "playerTotalScore": -53,
            "oppTotalScore": 0,
            "waitTime": 6803.297856595225,
            "responseTime": 1681000283844,
            "catchQuestion": "How many <b class=\"r\">red<\/b> marbles did your opponent report drawing? ",
            "catchKey": -1,
            "catchResponse": -1,
            "catchTime": 1681000226848,
            "trialTime": 0
        },
        {
            "exptPart": "trial",
            "trialNumber": 18,
            "roleCurrent": "receiver",
            "marblesSampled": 100,
            "probRed": 0.5,
            "practiceLambda": 5,
            "trialLambda": 0.3,
            "instructedLambda": "dishonest_small",
            "drawnRed": 38,
            "reportedRed": 38,
            "inferredRed": 34,
            "playerTrialScore": -4,
            "oppTrialScore": 0,
            "playerTotalScore": -57,
            "oppTotalScore": 0,
            "waitTime": 7339.697876050225,
            "responseTime": 1681000295533,
            "catchQuestion": "How many <b class=\"r\">red<\/b> marbles did your opponent report drawing? ",
            "catchKey": 38,
            "catchResponse": 38,
            "catchTime": 1681000295533,
            "trialTime": 0
        },
        {
            "exptPart": "trial",
            "trialNumber": 19,
            "roleCurrent": "receiver",
            "marblesSampled": 100,
            "probRed": 0.5,
            "practiceLambda": 5,
            "trialLambda": 0.3,
            "instructedLambda": "dishonest_small",
            "drawnRed": 46,
            "reportedRed": 46,
            "inferredRed": 43,
            "playerTrialScore": -3,
            "oppTrialScore": 0,
            "playerTotalScore": -60,
            "oppTotalScore": 0,
            "waitTime": 5884.703565940963,
            "responseTime": 1681000309987,
            "catchQuestion": "How many <b class=\"r\">red<\/b> marbles did your opponent report drawing? ",
            "catchKey": -1,
            "catchResponse": -1,
            "catchTime": 1681000295533,
            "trialTime": 0
        },
        {
            "exptPart": "trial",
            "trialNumber": 20,
            "roleCurrent": "receiver",
            "marblesSampled": 100,
            "probRed": 0.5,
            "practiceLambda": 5,
            "trialLambda": 0.3,
            "instructedLambda": "dishonest_small",
            "drawnRed": 59,
            "reportedRed": 60,
            "inferredRed": 63,
            "playerTrialScore": -4,
            "oppTrialScore": 4,
            "playerTotalScore": -64,
            "oppTotalScore": 4,
            "waitTime": 6578.748466221145,
            "responseTime": 1681000322516,
            "catchQuestion": "How many <b class=\"r\">red<\/b> marbles did your opponent report drawing? ",
            "catchKey": 60,
            "catchResponse": 60,
            "catchTime": 1681000322516,
            "trialTime": 0
        },
        {
            "exptPart": "trial",
            "trialNumber": 21,
            "roleCurrent": "receiver",
            "marblesSampled": 100,
            "probRed": 0.5,
            "practiceLambda": 5,
            "trialLambda": 0.3,
            "instructedLambda": "dishonest_small",
            "drawnRed": 60,
            "reportedRed": 61,
            "inferredRed": 63,
            "playerTrialScore": -3,
            "oppTrialScore": 3,
            "playerTotalScore": -67,
            "oppTotalScore": 7,
            "waitTime": 6341.79194067662,
            "responseTime": 1681000345217,
            "catchQuestion": "How many <b class=\"r\">red<\/b> marbles did your opponent report drawing? ",
            "catchKey": -1,
            "catchResponse": -1,
            "catchTime": 1681000322516,
            "trialTime": 0
        },
        {
            "exptPart": "trial",
            "trialNumber": 22,
            "roleCurrent": "receiver",
            "marblesSampled": 100,
            "probRed": 0.5,
            "practiceLambda": 5,
            "trialLambda": 0.3,
            "instructedLambda": "dishonest_small",
            "drawnRed": 60,
            "reportedRed": 61,
            "inferredRed": 64,
            "playerTrialScore": -4,
            "oppTrialScore": 4,
            "playerTotalScore": -71,
            "oppTotalScore": 11,
            "waitTime": 6773.232391674559,
            "responseTime": 1681000356149,
            "catchQuestion": "How many <b class=\"r\">red<\/b> marbles did your opponent report drawing? ",
            "catchKey": -1,
            "catchResponse": -1,
            "catchTime": 1681000322516,
            "trialTime": 0
        },
        {
            "exptPart": "trial",
            "trialNumber": 23,
            "roleCurrent": "receiver",
            "marblesSampled": 100,
            "probRed": 0.5,
            "practiceLambda": 5,
            "trialLambda": 0.3,
            "instructedLambda": "dishonest_small",
            "drawnRed": 37,
            "reportedRed": 37,
            "inferredRed": 34,
            "playerTrialScore": -3,
            "oppTrialScore": 0,
            "playerTotalScore": -74,
            "oppTotalScore": 11,
            "waitTime": 5165.2271373316025,
            "responseTime": 1681000372929,
            "catchQuestion": "How many <b class=\"r\">red<\/b> marbles did your opponent report drawing? ",
            "catchKey": -1,
            "catchResponse": -1,
            "catchTime": 1681000322516,
            "trialTime": 0
        },
        {
            "exptPart": "trial",
            "trialNumber": 24,
            "roleCurrent": "receiver",
            "marblesSampled": 100,
            "probRed": 0.5,
            "practiceLambda": 5,
            "trialLambda": 0.3,
            "instructedLambda": "dishonest_small",
            "drawnRed": 58,
            "reportedRed": 59,
            "inferredRed": 56,
            "playerTrialScore": -2,
            "oppTrialScore": 0,
            "playerTotalScore": -76,
            "oppTotalScore": 11,
            "waitTime": 5570.781844796871,
            "responseTime": 1681000394623,
            "catchQuestion": "How many <b class=\"r\">red<\/b> marbles did your opponent report drawing? ",
            "catchKey": -1,
            "catchResponse": -1,
            "catchTime": 1681000322516,
            "trialTime": 0
        },
        {
            "exptPart": "trial",
            "trialNumber": 25,
            "roleCurrent": "receiver",
            "marblesSampled": 100,
            "probRed": 0.5,
            "practiceLambda": 5,
            "trialLambda": 0.3,
            "instructedLambda": "dishonest_small",
            "drawnRed": 19,
            "reportedRed": 19,
            "inferredRed": 23,
            "playerTrialScore": -4,
            "oppTrialScore": 4,
            "playerTotalScore": -80,
            "oppTotalScore": 15,
            "waitTime": 7498.416279568358,
            "responseTime": 1681000406118,
            "catchQuestion": "How many <b class=\"r\">red<\/b> marbles did your opponent report drawing? ",
            "catchKey": -1,
            "catchResponse": -1,
            "catchTime": 1681000322516,
            "trialTime": 0
        },
        {
            "exptPart": "trial",
            "trialNumber": 26,
            "roleCurrent": "receiver",
            "marblesSampled": 100,
            "probRed": 0.5,
            "practiceLambda": 5,
            "trialLambda": 0.3,
            "instructedLambda": "dishonest_small",
            "drawnRed": 39,
            "reportedRed": 39,
            "inferredRed": 40,
            "playerTrialScore": -1,
            "oppTrialScore": 1,
            "playerTotalScore": -81,
            "oppTotalScore": 16,
            "waitTime": 7251.315432819414,
            "responseTime": 1681000424255,
            "catchQuestion": "How many <b class=\"r\">red<\/b> marbles did your opponent report drawing? ",
            "catchKey": -1,
            "catchResponse": -1,
            "catchTime": 1681000322516,
            "trialTime": 0
        },
        {
            "exptPart": "trial",
            "trialNumber": 27,
            "roleCurrent": "receiver",
            "marblesSampled": 100,
            "probRed": 0.5,
            "practiceLambda": 5,
            "trialLambda": 0.3,
            "instructedLambda": "dishonest_small",
            "drawnRed": 56,
            "reportedRed": 56,
            "inferredRed": 50,
            "playerTrialScore": -6,
            "oppTrialScore": 0,
            "playerTotalScore": -87,
            "oppTotalScore": 16,
            "waitTime": 6292.256820066019,
            "responseTime": 1681000438224,
            "catchQuestion": "How many <b class=\"r\">red<\/b> marbles did your opponent report drawing? ",
            "catchKey": -1,
            "catchResponse": -1,
            "catchTime": 1681000322516,
            "trialTime": 0
        },
        {
            "exptPart": "trial",
            "trialNumber": 28,
            "roleCurrent": "receiver",
            "marblesSampled": 100,
            "probRed": 0.5,
            "practiceLambda": 5,
            "trialLambda": 0.3,
            "instructedLambda": "dishonest_small",
            "drawnRed": 63,
            "reportedRed": 63,
            "inferredRed": 60,
            "playerTrialScore": -3,
            "oppTrialScore": 0,
            "playerTotalScore": -90,
            "oppTotalScore": 16,
            "waitTime": 6140.696197557725,
            "responseTime": 1681000456152,
            "catchQuestion": "How many <b class=\"r\">red<\/b> marbles did your opponent report drawing? ",
            "catchKey": -1,
            "catchResponse": -1,
            "catchTime": 1681000322516,
            "trialTime": 0
        },
        {
            "exptPart": "trial",
            "trialNumber": 29,
            "roleCurrent": "receiver",
            "marblesSampled": 100,
            "probRed": 0.5,
            "practiceLambda": 5,
            "trialLambda": 0.3,
            "instructedLambda": "dishonest_small",
            "drawnRed": 76,
            "reportedRed": 77,
            "inferredRed": 70,
            "playerTrialScore": -6,
            "oppTrialScore": 0,
            "playerTotalScore": -96,
            "oppTotalScore": 16,
            "waitTime": 5171.856329153592,
            "responseTime": 1681000465487,
            "catchQuestion": "How many <b class=\"r\">red<\/b> marbles did your opponent report drawing? ",
            "catchKey": -1,
            "catchResponse": -1,
            "catchTime": 1681000322516,
            "trialTime": 0
        },
        {
            "exptPart": "trial",
            "trialNumber": 30,
            "roleCurrent": "receiver",
            "marblesSampled": 100,
            "probRed": 0.5,
            "practiceLambda": 5,
            "trialLambda": 0.3,
            "instructedLambda": "dishonest_small",
            "drawnRed": 57,
            "reportedRed": 57,
            "inferredRed": 56,
            "playerTrialScore": -1,
            "oppTrialScore": 0,
            "playerTotalScore": -97,
            "oppTotalScore": 16,
            "waitTime": 5159.74451420669,
            "responseTime": 1681000476874,
            "catchQuestion": "How many <b class=\"r\">red<\/b> marbles did your opponent report drawing? ",
            "catchKey": -1,
            "catchResponse": -1,
            "catchTime": 1681000476875,
            "trialTime": 0
        },
        {
            "exptPart": "trial",
            "trialNumber": 31,
            "roleCurrent": "receiver",
            "marblesSampled": 100,
            "probRed": 0.5,
            "practiceLambda": 5,
            "trialLambda": 0.3,
            "instructedLambda": "dishonest_small",
            "drawnRed": 58,
            "reportedRed": 58,
            "inferredRed": 54,
            "playerTrialScore": -4,
            "oppTrialScore": 0,
            "playerTotalScore": -101,
            "oppTotalScore": 16,
            "waitTime": 6123.383185293266,
            "responseTime": 1681000490388,
            "catchQuestion": "How many <b class=\"r\">red<\/b> marbles did your opponent report drawing? ",
            "catchKey": -1,
            "catchResponse": -1,
            "catchTime": 1681000476875,
            "trialTime": 0
        },
        {
            "exptPart": "trial",
            "trialNumber": 32,
            "roleCurrent": "receiver",
            "marblesSampled": 100,
            "probRed": 0.5,
            "practiceLambda": 5,
            "trialLambda": 0.3,
            "instructedLambda": "dishonest_small",
            "drawnRed": 40,
            "reportedRed": 40,
            "inferredRed": 34,
            "playerTrialScore": -6,
            "oppTrialScore": 0,
            "playerTotalScore": -107,
            "oppTotalScore": 16,
            "waitTime": 6869.950460272691,
            "responseTime": 1681000504807,
            "catchQuestion": "How many <b class=\"r\">red<\/b> marbles did your opponent report drawing? ",
            "catchKey": 40,
            "catchResponse": 40,
            "catchTime": 1681000504808,
            "trialTime": 0
        },
        {
            "exptPart": "trial",
            "trialNumber": 33,
            "roleCurrent": "receiver",
            "marblesSampled": 100,
            "probRed": 0.5,
            "practiceLambda": 5,
            "trialLambda": 0.3,
            "instructedLambda": "dishonest_small",
            "drawnRed": 73,
            "reportedRed": 74,
            "inferredRed": 70,
            "playerTrialScore": -3,
            "oppTrialScore": 0,
            "playerTotalScore": -110,
            "oppTotalScore": 16,
            "waitTime": 5202.866668144146,
            "responseTime": 1681000519544,
            "catchQuestion": "How many <b class=\"r\">red<\/b> marbles did your opponent report drawing? ",
            "catchKey": -1,
            "catchResponse": -1,
            "catchTime": 1681000504808,
            "trialTime": 0
        },
        {
            "exptPart": "trial",
            "trialNumber": 34,
            "roleCurrent": "receiver",
            "marblesSampled": 100,
            "probRed": 0.5,
            "practiceLambda": 5,
            "trialLambda": 0.3,
            "instructedLambda": "dishonest_small",
            "drawnRed": 66,
            "reportedRed": 68,
            "inferredRed": 64,
            "playerTrialScore": -2,
            "oppTrialScore": 0,
            "playerTotalScore": -112,
            "oppTotalScore": 16,
            "waitTime": 6609.422160587335,
            "responseTime": 1681000531398,
            "catchQuestion": "How many <b class=\"r\">red<\/b> marbles did your opponent report drawing? ",
            "catchKey": -1,
            "catchResponse": -1,
            "catchTime": 1681000504808,
            "trialTime": 0
        },
        {
            "exptPart": "trial",
            "trialNumber": 35,
            "roleCurrent": "receiver",
            "marblesSampled": 100,
            "probRed": 0.5,
            "practiceLambda": 5,
            "trialLambda": 0.3,
            "instructedLambda": "dishonest_small",
            "drawnRed": 41,
            "reportedRed": 41,
            "inferredRed": 40,
            "playerTrialScore": -1,
            "oppTrialScore": 0,
            "playerTotalScore": -113,
            "oppTotalScore": 16,
            "waitTime": 5164.193762112887,
            "responseTime": 1681000542866,
            "catchQuestion": "How many <b class=\"r\">red<\/b> marbles did your opponent report drawing? ",
            "catchKey": -1,
            "catchResponse": -1,
            "catchTime": 1681000504808,
            "trialTime": 0
        },
        {
            "exptPart": "trial",
            "trialNumber": 36,
            "roleCurrent": "receiver",
            "marblesSampled": 100,
            "probRed": 0.5,
            "practiceLambda": 5,
            "trialLambda": 0.3,
            "instructedLambda": "dishonest_small",
            "drawnRed": 54,
            "reportedRed": 54,
            "inferredRed": 50,
            "playerTrialScore": -4,
            "oppTrialScore": 0,
            "playerTotalScore": -117,
            "oppTotalScore": 16,
            "waitTime": 5871.909764781297,
            "responseTime": 1681000552619,
            "catchQuestion": "How many <b class=\"r\">red<\/b> marbles did your opponent report drawing? ",
            "catchKey": -1,
            "catchResponse": -1,
            "catchTime": 1681000504808,
            "trialTime": 0
        },
        {
            "exptPart": "trial",
            "trialNumber": 37,
            "roleCurrent": "receiver",
            "marblesSampled": 100,
            "probRed": 0.5,
            "practiceLambda": 5,
            "trialLambda": 0.3,
            "instructedLambda": "dishonest_small",
            "drawnRed": 63,
            "reportedRed": 64,
            "inferredRed": 65,
            "playerTrialScore": -2,
            "oppTrialScore": 2,
            "playerTotalScore": -119,
            "oppTotalScore": 18,
            "waitTime": 5760.362347748734,
            "responseTime": 1681000564923,
            "catchQuestion": "How many <b class=\"r\">red<\/b> marbles did your opponent report drawing? ",
            "catchKey": -1,
            "catchResponse": -1,
            "catchTime": 1681000504808,
            "trialTime": 0
        },
        {
            "exptPart": "trial",
            "trialNumber": 38,
            "roleCurrent": "receiver",
            "marblesSampled": 100,
            "probRed": 0.5,
            "practiceLambda": 5,
            "trialLambda": 0.3,
            "instructedLambda": "dishonest_small",
            "drawnRed": 51,
            "reportedRed": 51,
            "inferredRed": 50,
            "playerTrialScore": -1,
            "oppTrialScore": 0,
            "playerTotalScore": -120,
            "oppTotalScore": 18,
            "waitTime": 6712.5781126397505,
            "responseTime": 1681000575155,
            "catchQuestion": "How many <b class=\"r\">red<\/b> marbles did your opponent report drawing? ",
            "catchKey": -1,
            "catchResponse": -1,
            "catchTime": 1681000504808,
            "trialTime": 0
        },
        {
            "exptPart": "trial",
            "trialNumber": 39,
            "roleCurrent": "receiver",
            "marblesSampled": 100,
            "probRed": 0.5,
            "practiceLambda": 5,
            "trialLambda": 0.3,
            "instructedLambda": "dishonest_small",
            "drawnRed": 40,
            "reportedRed": 40,
            "inferredRed": 38,
            "playerTrialScore": -2,
            "oppTrialScore": 0,
            "playerTotalScore": -122,
            "oppTotalScore": 18,
            "waitTime": 5981.804016033959,
            "responseTime": 1681000585577,
            "catchQuestion": "How many <b class=\"r\">red<\/b> marbles did your opponent report drawing? ",
            "catchKey": -1,
            "catchResponse": -1,
            "catchTime": 1681000504808,
            "trialTime": 0
        },
        {
            "exptPart": "trial",
            "trialNumber": 40,
            "roleCurrent": "receiver",
            "marblesSampled": 100,
            "probRed": 0.5,
            "practiceLambda": 5,
            "trialLambda": 0.3,
            "instructedLambda": "dishonest_small",
            "drawnRed": 84,
            "reportedRed": 84,
            "inferredRed": 34,
            "playerTrialScore": -50,
            "oppTrialScore": 0,
            "playerTotalScore": -172,
            "oppTotalScore": 18,
            "waitTime": 5771.478783571441,
            "responseTime": 1681000633949,
            "catchQuestion": "How many <b class=\"r\">red<\/b> marbles did your opponent report drawing? ",
            "catchKey": -1,
            "catchResponse": -1,
            "catchTime": 1681000633949,
            "trialTime": 0
        },
        {
            "exptPart": "trial",
            "trialNumber": 41,
            "roleCurrent": "receiver",
            "marblesSampled": 100,
            "probRed": 0.5,
            "practiceLambda": 5,
            "trialLambda": 0.3,
            "instructedLambda": "dishonest_small",
            "drawnRed": 73,
            "reportedRed": 74,
            "inferredRed": 70,
            "playerTrialScore": -3,
            "oppTrialScore": 0,
            "playerTotalScore": -175,
            "oppTotalScore": 18,
            "waitTime": 5241.683691791453,
            "responseTime": 1681000645110,
            "catchQuestion": "How many <b class=\"r\">red<\/b> marbles did your opponent report drawing? ",
            "catchKey": -1,
            "catchResponse": -1,
            "catchTime": 1681000633949,
            "trialTime": 0
        },
        {
            "exptPart": "trial",
            "trialNumber": 42,
            "roleCurrent": "receiver",
            "marblesSampled": 100,
            "probRed": 0.5,
            "practiceLambda": 5,
            "trialLambda": 0.3,
            "instructedLambda": "dishonest_small",
            "drawnRed": 67,
            "reportedRed": 67,
            "inferredRed": 69,
            "playerTrialScore": -2,
            "oppTrialScore": 2,
            "playerTotalScore": -177,
            "oppTotalScore": 20,
            "waitTime": 6102.0875760582,
            "responseTime": 1681000657086,
            "catchQuestion": "How many <b class=\"r\">red<\/b> marbles did your opponent report drawing? ",
            "catchKey": -1,
            "catchResponse": -1,
            "catchTime": 1681000633949,
            "trialTime": 0
        },
        {
            "exptPart": "trial",
            "trialNumber": 43,
            "roleCurrent": "receiver",
            "marblesSampled": 100,
            "probRed": 0.5,
            "practiceLambda": 5,
            "trialLambda": 0.3,
            "instructedLambda": "dishonest_small",
            "drawnRed": 40,
            "reportedRed": 40,
            "inferredRed": 39,
            "playerTrialScore": -1,
            "oppTrialScore": 0,
            "playerTotalScore": -178,
            "oppTotalScore": 20,
            "waitTime": 5979.537155460288,
            "responseTime": 1681000675447,
            "catchQuestion": "How many <b class=\"r\">red<\/b> marbles did your opponent report drawing? ",
            "catchKey": -1,
            "catchResponse": -1,
            "catchTime": 1681000633949,
            "trialTime": 0
        },
        {
            "exptPart": "trial",
            "trialNumber": 44,
            "roleCurrent": "receiver",
            "marblesSampled": 100,
            "probRed": 0.5,
            "practiceLambda": 5,
            "trialLambda": 0.3,
            "instructedLambda": "dishonest_small",
            "drawnRed": 28,
            "reportedRed": 28,
            "inferredRed": 24,
            "playerTrialScore": -4,
            "oppTrialScore": 0,
            "playerTotalScore": -182,
            "oppTotalScore": 20,
            "waitTime": 5870.446006982112,
            "responseTime": 1681000700143,
            "catchQuestion": "How many <b class=\"r\">red<\/b> marbles did your opponent report drawing? ",
            "catchKey": -1,
            "catchResponse": -1,
            "catchTime": 1681000633949,
            "trialTime": 0
        },
        {
            "exptPart": "trial",
            "trialNumber": 45,
            "roleCurrent": "receiver",
            "marblesSampled": 100,
            "probRed": 0.5,
            "practiceLambda": 5,
            "trialLambda": 0.3,
            "instructedLambda": "dishonest_small",
            "drawnRed": 42,
            "reportedRed": 43,
            "inferredRed": 40,
            "playerTrialScore": -2,
            "oppTrialScore": 0,
            "playerTotalScore": -184,
            "oppTotalScore": 20,
            "waitTime": 5722.446319159948,
            "responseTime": 1681000725957,
            "catchQuestion": "How many <b class=\"r\">red<\/b> marbles did your opponent report drawing? ",
            "catchKey": -1,
            "catchResponse": -1,
            "catchTime": 1681000633949,
            "trialTime": 0
        },
        {
            "exptPart": "trial",
            "trialNumber": 46,
            "roleCurrent": "receiver",
            "marblesSampled": 100,
            "probRed": 0.5,
            "practiceLambda": 5,
            "trialLambda": 0.3,
            "instructedLambda": "dishonest_small",
            "drawnRed": 54,
            "reportedRed": 54,
            "inferredRed": 50,
            "playerTrialScore": -4,
            "oppTrialScore": 0,
            "playerTotalScore": -188,
            "oppTotalScore": 20,
            "waitTime": 5374.258260481116,
            "responseTime": 1681000736649,
            "catchQuestion": "How many <b class=\"r\">red<\/b> marbles did your opponent report drawing? ",
            "catchKey": -1,
            "catchResponse": -1,
            "catchTime": 1681000633949,
            "trialTime": 0
        },
        {
            "exptPart": "trial",
            "trialNumber": 47,
            "roleCurrent": "receiver",
            "marblesSampled": 100,
            "probRed": 0.5,
            "practiceLambda": 5,
            "trialLambda": 0.3,
            "instructedLambda": "dishonest_small",
            "drawnRed": 68,
            "reportedRed": 70,
            "inferredRed": 67,
            "playerTrialScore": -1,
            "oppTrialScore": 0,
            "playerTotalScore": -189,
            "oppTotalScore": 20,
            "waitTime": 5368.980761907724,
            "responseTime": 1681000749672,
            "catchQuestion": "How many <b class=\"r\">red<\/b> marbles did your opponent report drawing? ",
            "catchKey": -1,
            "catchResponse": -1,
            "catchTime": 1681000633949,
            "trialTime": 0
        },
        {
            "exptPart": "trial",
            "trialNumber": 48,
            "roleCurrent": "receiver",
            "marblesSampled": 100,
            "probRed": 0.5,
            "practiceLambda": 5,
            "trialLambda": 0.3,
            "instructedLambda": "dishonest_small",
            "drawnRed": 68,
            "reportedRed": 68,
            "inferredRed": 67,
            "playerTrialScore": -1,
            "oppTrialScore": 0,
            "playerTotalScore": -190,
            "oppTotalScore": 20,
            "waitTime": 7366.025092955976,
            "responseTime": 1681000760411,
            "catchQuestion": "How many <b class=\"r\">red<\/b> marbles did your opponent report drawing? ",
            "catchKey": -1,
            "catchResponse": -1,
            "catchTime": 1681000633949,
            "trialTime": 0
        },
        {
            "exptPart": "trial",
            "trialNumber": 49,
            "roleCurrent": "receiver",
            "marblesSampled": 100,
            "probRed": 0.5,
            "practiceLambda": 5,
            "trialLambda": 0.3,
            "instructedLambda": "dishonest_small",
            "drawnRed": 40,
            "reportedRed": 40,
            "inferredRed": 68,
            "playerTrialScore": -28,
            "oppTrialScore": 28,
            "playerTotalScore": -218,
            "oppTotalScore": 48,
            "waitTime": 5703.312256997724,
            "responseTime": 1681000769848,
            "catchQuestion": "How many <b class=\"r\">red<\/b> marbles did your opponent report drawing? ",
            "catchKey": 40,
            "catchResponse": 48,
            "catchTime": 1681000769849,
            "trialTime": 0
        },
        {
            "exptPart": "trial",
            "trialNumber": 50,
            "roleCurrent": "receiver",
            "marblesSampled": 100,
            "probRed": 0.5,
            "practiceLambda": 5,
            "trialLambda": 0.3,
            "instructedLambda": "dishonest_small",
            "drawnRed": 46,
            "reportedRed": 46,
            "inferredRed": 42,
            "playerTrialScore": -4,
            "oppTrialScore": 0,
            "playerTotalScore": -222,
            "oppTotalScore": 48,
            "waitTime": 5705.630297584184,
            "responseTime": 1681000787090,
            "catchQuestion": "How many <b class=\"r\">red<\/b> marbles did your opponent report drawing? ",
            "catchKey": -1,
            "catchResponse": -1,
            "catchTime": 1681000787090,
            "trialTime": 0
        },
        {
            "exptPart": "trial",
            "trialNumber": 51,
            "roleCurrent": "receiver",
            "marblesSampled": 100,
            "probRed": 0.5,
            "practiceLambda": 5,
            "trialLambda": 0.3,
            "instructedLambda": "dishonest_small",
            "drawnRed": 15,
            "reportedRed": 15,
            "inferredRed": 46,
            "playerTrialScore": -31,
            "oppTrialScore": 31,
            "playerTotalScore": -253,
            "oppTotalScore": 79,
            "waitTime": 5327.608720267715,
            "responseTime": 1681000798771,
            "catchQuestion": "How many <b class=\"r\">red<\/b> marbles did your opponent report drawing? ",
            "catchKey": -1,
            "catchResponse": -1,
            "catchTime": 1681000787090,
            "trialTime": 0
        },
        {
            "exptPart": "trial",
            "trialNumber": 52,
            "roleCurrent": "receiver",
            "marblesSampled": 100,
            "probRed": 0.5,
            "practiceLambda": 5,
            "trialLambda": 0.3,
            "instructedLambda": "dishonest_small",
            "drawnRed": 54,
            "reportedRed": 54,
            "inferredRed": 46,
            "playerTrialScore": -8,
            "oppTrialScore": 0,
            "playerTotalScore": -261,
            "oppTotalScore": 79,
            "waitTime": 7397.670983915445,
            "responseTime": 1681000811411,
            "catchQuestion": "How many <b class=\"r\">red<\/b> marbles did your opponent report drawing? ",
            "catchKey": -1,
            "catchResponse": -1,
            "catchTime": 1681000787090,
            "trialTime": 0
        },
        {
            "exptPart": "trial",
            "trialNumber": 53,
            "roleCurrent": "receiver",
            "marblesSampled": 100,
            "probRed": 0.5,
            "practiceLambda": 5,
            "trialLambda": 0.3,
            "instructedLambda": "dishonest_small",
            "drawnRed": 47,
            "reportedRed": 47,
            "inferredRed": 46,
            "playerTrialScore": -1,
            "oppTrialScore": 0,
            "playerTotalScore": -262,
            "oppTotalScore": 79,
            "waitTime": 5700.211764163861,
            "responseTime": 1681000821356,
            "catchQuestion": "How many <b class=\"r\">red<\/b> marbles did your opponent report drawing? ",
            "catchKey": -1,
            "catchResponse": -1,
            "catchTime": 1681000787090,
            "trialTime": 0
        },
        {
            "exptPart": "trial",
            "trialNumber": 54,
            "roleCurrent": "receiver",
            "marblesSampled": 100,
            "probRed": 0.5,
            "practiceLambda": 5,
            "trialLambda": 0.3,
            "instructedLambda": "dishonest_small",
            "drawnRed": 43,
            "reportedRed": 43,
            "inferredRed": 40,
            "playerTrialScore": -3,
            "oppTrialScore": 0,
            "playerTotalScore": -265,
            "oppTotalScore": 79,
            "waitTime": 5421.945564480227,
            "responseTime": 1681000830518,
            "catchQuestion": "How many <b class=\"r\">red<\/b> marbles did your opponent report drawing? ",
            "catchKey": -1,
            "catchResponse": -1,
            "catchTime": 1681000787090,
            "trialTime": 0
        },
        {
            "exptPart": "trial",
            "trialNumber": 55,
            "roleCurrent": "receiver",
            "marblesSampled": 100,
            "probRed": 0.5,
            "practiceLambda": 5,
            "trialLambda": 0.3,
            "instructedLambda": "dishonest_small",
            "drawnRed": 59,
            "reportedRed": 59,
            "inferredRed": 62,
            "playerTrialScore": -3,
            "oppTrialScore": 3,
            "playerTotalScore": -268,
            "oppTotalScore": 82,
            "waitTime": 6175.627650190579,
            "responseTime": 1681000841225,
            "catchQuestion": "How many <b class=\"r\">red<\/b> marbles did your opponent report drawing? ",
            "catchKey": -1,
            "catchResponse": -1,
            "catchTime": 1681000787090,
            "trialTime": 0
        },
        {
            "exptPart": "trial",
            "trialNumber": 56,
            "roleCurrent": "receiver",
            "marblesSampled": 100,
            "probRed": 0.5,
            "practiceLambda": 5,
            "trialLambda": 0.3,
            "instructedLambda": "dishonest_small",
            "drawnRed": 24,
            "reportedRed": 24,
            "inferredRed": 20,
            "playerTrialScore": -4,
            "oppTrialScore": 0,
            "playerTotalScore": -272,
            "oppTotalScore": 82,
            "waitTime": 7403.251952169358,
            "responseTime": 1681000868958,
            "catchQuestion": "How many <b class=\"r\">red<\/b> marbles did your opponent report drawing? ",
            "catchKey": -1,
            "catchResponse": -1,
            "catchTime": 1681000787090,
            "trialTime": 0
        },
        {
            "exptPart": "trial",
            "trialNumber": 57,
            "roleCurrent": "receiver",
            "marblesSampled": 100,
            "probRed": 0.5,
            "practiceLambda": 5,
            "trialLambda": 0.3,
            "instructedLambda": "dishonest_small",
            "drawnRed": 36,
            "reportedRed": 36,
            "inferredRed": 34,
            "playerTrialScore": -2,
            "oppTrialScore": 0,
            "playerTotalScore": -274,
            "oppTotalScore": 82,
            "waitTime": 7397.7622987480345,
            "responseTime": 1681000881530,
            "catchQuestion": "How many <b class=\"r\">red<\/b> marbles did your opponent report drawing? ",
            "catchKey": -1,
            "catchResponse": -1,
            "catchTime": 1681000787090,
            "trialTime": 0
        },
        {
            "exptPart": "trial",
            "trialNumber": 58,
            "roleCurrent": "receiver",
            "marblesSampled": 100,
            "probRed": 0.5,
            "practiceLambda": 5,
            "trialLambda": 0.3,
            "instructedLambda": "dishonest_small",
            "drawnRed": 37,
            "reportedRed": 38,
            "inferredRed": 34,
            "playerTrialScore": -3,
            "oppTrialScore": 0,
            "playerTotalScore": -277,
            "oppTotalScore": 82,
            "waitTime": 6788.789609561267,
            "responseTime": 1681000892128,
            "catchQuestion": "How many <b class=\"r\">red<\/b> marbles did your opponent report drawing? ",
            "catchKey": -1,
            "catchResponse": -1,
            "catchTime": 1681000787090,
            "trialTime": 0
        },
        {
            "exptPart": "trial",
            "trialNumber": 59,
            "roleCurrent": "receiver",
            "marblesSampled": 100,
            "probRed": 0.5,
            "practiceLambda": 5,
            "trialLambda": 0.3,
            "instructedLambda": "dishonest_small",
            "drawnRed": 37,
            "reportedRed": 37,
            "inferredRed": 35,
            "playerTrialScore": -2,
            "oppTrialScore": 0,
            "playerTotalScore": -279,
            "oppTotalScore": 82,
            "waitTime": 7317.842879049502,
            "responseTime": 1681000903427,
            "catchQuestion": "How many <b class=\"r\">red<\/b> marbles did your opponent report drawing? ",
            "catchKey": -1,
            "catchResponse": -1,
            "catchTime": 1681000787090,
            "trialTime": 0
        },
        {
            "exptPart": "trial",
            "trialNumber": 60,
            "roleCurrent": "receiver",
            "marblesSampled": 100,
            "probRed": 0.5,
            "practiceLambda": 5,
            "trialLambda": 0.3,
            "instructedLambda": "dishonest_small",
            "drawnRed": 28,
            "reportedRed": 29,
            "inferredRed": 27,
            "playerTrialScore": -1,
            "oppTrialScore": 0,
            "playerTotalScore": -280,
            "oppTotalScore": 82,
            "waitTime": 5444.618024401667,
            "responseTime": 1681000914217,
            "catchQuestion": "How many <b class=\"r\">red<\/b> marbles did your opponent report drawing? ",
            "catchKey": 29,
            "catchResponse": 29,
            "catchTime": 1681000914217,
            "trialTime": 0
        },
        {
            "exptPart": "trial",
            "trialNumber": 61,
            "roleCurrent": "receiver",
            "marblesSampled": 100,
            "probRed": 0.5,
            "practiceLambda": 5,
            "trialLambda": 0.3,
            "instructedLambda": "dishonest_small",
            "drawnRed": 33,
            "reportedRed": 34,
            "inferredRed": 32,
            "playerTrialScore": -1,
            "oppTrialScore": 0,
            "playerTotalScore": -281,
            "oppTotalScore": 82,
            "waitTime": 5423.42408991557,
            "responseTime": 1681000929966,
            "catchQuestion": "How many <b class=\"r\">red<\/b> marbles did your opponent report drawing? ",
            "catchKey": -1,
            "catchResponse": -1,
            "catchTime": 1681000914217,
            "trialTime": 0
        },
        {
            "exptPart": "trial",
            "trialNumber": 62,
            "roleCurrent": "receiver",
            "marblesSampled": 100,
            "probRed": 0.5,
            "practiceLambda": 5,
            "trialLambda": 0.3,
            "instructedLambda": "dishonest_small",
            "drawnRed": 45,
            "reportedRed": 45,
            "inferredRed": 42,
            "playerTrialScore": -3,
            "oppTrialScore": 0,
            "playerTotalScore": -284,
            "oppTotalScore": 82,
            "waitTime": 5945.203062873772,
            "responseTime": 1681000940111,
            "catchQuestion": "How many <b class=\"r\">red<\/b> marbles did your opponent report drawing? ",
            "catchKey": 45,
            "catchResponse": 45,
            "catchTime": 1681000940111,
            "trialTime": 0
        },
        {
            "exptPart": "trial",
            "trialNumber": 63,
            "roleCurrent": "receiver",
            "marblesSampled": 100,
            "probRed": 0.5,
            "practiceLambda": 5,
            "trialLambda": 0.3,
            "instructedLambda": "dishonest_small",
            "drawnRed": 32,
            "reportedRed": 33,
            "inferredRed": 30,
            "playerTrialScore": -2,
            "oppTrialScore": 0,
            "playerTotalScore": -286,
            "oppTotalScore": 82,
            "waitTime": 6997.255998580911,
            "responseTime": 1681000954532,
            "catchQuestion": "How many <b class=\"r\">red<\/b> marbles did your opponent report drawing? ",
            "catchKey": -1,
            "catchResponse": -1,
            "catchTime": 1681000940111,
            "trialTime": 0
        },
        {
            "exptPart": "trial",
            "trialNumber": 64,
            "roleCurrent": "receiver",
            "marblesSampled": 100,
            "probRed": 0.5,
            "practiceLambda": 5,
            "trialLambda": 0.3,
            "instructedLambda": "dishonest_small",
            "drawnRed": 81,
            "reportedRed": 82,
            "inferredRed": 80,
            "playerTrialScore": -1,
            "oppTrialScore": 0,
            "playerTotalScore": -287,
            "oppTotalScore": 82,
            "waitTime": 6070.664012556877,
            "responseTime": 1681000965016,
            "catchQuestion": "How many <b class=\"r\">red<\/b> marbles did your opponent report drawing? ",
            "catchKey": -1,
            "catchResponse": -1,
            "catchTime": 1681000940111,
            "trialTime": 0
        },
        {
            "exptPart": "trial",
            "trialNumber": 65,
            "roleCurrent": "receiver",
            "marblesSampled": 100,
            "probRed": 0.5,
            "practiceLambda": 5,
            "trialLambda": 0.3,
            "instructedLambda": "dishonest_small",
            "drawnRed": 75,
            "reportedRed": 75,
            "inferredRed": 70,
            "playerTrialScore": -5,
            "oppTrialScore": 0,
            "playerTotalScore": -292,
            "oppTotalScore": 82,
            "waitTime": 6721.48402917786,
            "responseTime": 1681000975372,
            "catchQuestion": "How many <b class=\"r\">red<\/b> marbles did your opponent report drawing? ",
            "catchKey": -1,
            "catchResponse": -1,
            "catchTime": 1681000940111,
            "trialTime": 0
        },
        {
            "exptPart": "trial",
            "trialNumber": 66,
            "roleCurrent": "receiver",
            "marblesSampled": 100,
            "probRed": 0.5,
            "practiceLambda": 5,
            "trialLambda": 0.3,
            "instructedLambda": "dishonest_small",
            "drawnRed": 3,
            "reportedRed": 3,
            "inferredRed": 0,
            "playerTrialScore": -3,
            "oppTrialScore": 0,
            "playerTotalScore": -295,
            "oppTotalScore": 82,
            "waitTime": 5995.181191988105,
            "responseTime": 1681000986369,
            "catchQuestion": "How many <b class=\"r\">red<\/b> marbles did your opponent report drawing? ",
            "catchKey": -1,
            "catchResponse": -1,
            "catchTime": 1681000940111,
            "trialTime": 0
        },
        {
            "exptPart": "trial",
            "trialNumber": 67,
            "roleCurrent": "receiver",
            "marblesSampled": 100,
            "probRed": 0.5,
            "practiceLambda": 5,
            "trialLambda": 0.3,
            "instructedLambda": "dishonest_small",
            "drawnRed": 61,
            "reportedRed": 61,
            "inferredRed": 59,
            "playerTrialScore": -2,
            "oppTrialScore": 0,
            "playerTotalScore": -297,
            "oppTotalScore": 82,
            "waitTime": 5676.750580955544,
            "responseTime": 1681000996391,
            "catchQuestion": "How many <b class=\"r\">red<\/b> marbles did your opponent report drawing? ",
            "catchKey": -1,
            "catchResponse": -1,
            "catchTime": 1681000940111,
            "trialTime": 0
        },
        {
            "exptPart": "trial",
            "trialNumber": 68,
            "roleCurrent": "receiver",
            "marblesSampled": 100,
            "probRed": 0.5,
            "practiceLambda": 5,
            "trialLambda": 0.3,
            "instructedLambda": "dishonest_small",
            "drawnRed": 55,
            "reportedRed": 55,
            "inferredRed": 44,
            "playerTrialScore": -11,
            "oppTrialScore": 0,
            "playerTotalScore": -308,
            "oppTotalScore": 82,
            "waitTime": 5979.6432072079915,
            "responseTime": 1681001005608,
            "catchQuestion": "How many <b class=\"r\">red<\/b> marbles did your opponent report drawing? ",
            "catchKey": -1,
            "catchResponse": -1,
            "catchTime": 1681000940111,
            "trialTime": 0
        },
        {
            "exptPart": "trial",
            "trialNumber": 69,
            "roleCurrent": "receiver",
            "marblesSampled": 100,
            "probRed": 0.5,
            "practiceLambda": 5,
            "trialLambda": 0.3,
            "instructedLambda": "dishonest_small",
            "drawnRed": 55,
            "reportedRed": 56,
            "inferredRed": 50,
            "playerTrialScore": -5,
            "oppTrialScore": 0,
            "playerTotalScore": -313,
            "oppTotalScore": 82,
            "waitTime": 6537.613898197105,
            "responseTime": 1681001015816,
            "catchQuestion": "How many <b class=\"r\">red<\/b> marbles did your opponent report drawing? ",
            "catchKey": -1,
            "catchResponse": -1,
            "catchTime": 1681000940111,
            "trialTime": 0
        },
        {
            "exptPart": "trial",
            "trialNumber": 70,
            "roleCurrent": "receiver",
            "marblesSampled": 100,
            "probRed": 0.5,
            "practiceLambda": 5,
            "trialLambda": 0.3,
            "instructedLambda": "dishonest_small",
            "drawnRed": 38,
            "reportedRed": 38,
            "inferredRed": 36,
            "playerTrialScore": -2,
            "oppTrialScore": 0,
            "playerTotalScore": -315,
            "oppTotalScore": 82,
            "waitTime": 7471.191387905846,
            "responseTime": 1681001047046,
            "catchQuestion": "How many <b class=\"r\">red<\/b> marbles did your opponent report drawing? ",
            "catchKey": -1,
            "catchResponse": -1,
            "catchTime": 1681001047046,
            "trialTime": 0
        },
        {
            "exptPart": "trial",
            "trialNumber": 71,
            "roleCurrent": "receiver",
            "marblesSampled": 100,
            "probRed": 0.5,
            "practiceLambda": 5,
            "trialLambda": 0.3,
            "instructedLambda": "dishonest_small",
            "drawnRed": 40,
            "reportedRed": 40,
            "inferredRed": 38,
            "playerTrialScore": -2,
            "oppTrialScore": 0,
            "playerTotalScore": -317,
            "oppTotalScore": 82,
            "waitTime": 6086.04235825322,
            "responseTime": 1681001062863,
            "catchQuestion": "How many <b class=\"r\">red<\/b> marbles did your opponent report drawing? ",
            "catchKey": -1,
            "catchResponse": -1,
            "catchTime": 1681001047046,
            "trialTime": 0
        },
        {
            "exptPart": "trial",
            "trialNumber": 72,
            "roleCurrent": "receiver",
            "marblesSampled": 100,
            "probRed": 0.5,
            "practiceLambda": 5,
            "trialLambda": 0.3,
            "instructedLambda": "dishonest_small",
            "drawnRed": 41,
            "reportedRed": 41,
            "inferredRed": 39,
            "playerTrialScore": -2,
            "oppTrialScore": 0,
            "playerTotalScore": -319,
            "oppTotalScore": 82,
            "waitTime": 6927.848033219992,
            "responseTime": 1681001074835,
            "catchQuestion": "How many <b class=\"r\">red<\/b> marbles did your opponent report drawing? ",
            "catchKey": -1,
            "catchResponse": -1,
            "catchTime": 1681001047046,
            "trialTime": 0
        },
        {
            "exptPart": "trial",
            "trialNumber": 73,
            "roleCurrent": "receiver",
            "marblesSampled": 100,
            "probRed": 0.5,
            "practiceLambda": 5,
            "trialLambda": 0.3,
            "instructedLambda": "dishonest_small",
            "drawnRed": 49,
            "reportedRed": 50,
            "inferredRed": 39,
            "playerTrialScore": -10,
            "oppTrialScore": 0,
            "playerTotalScore": -329,
            "oppTotalScore": 82,
            "waitTime": 6106.859866958901,
            "responseTime": 1681001084901,
            "catchQuestion": "How many <b class=\"r\">red<\/b> marbles did your opponent report drawing? ",
            "catchKey": -1,
            "catchResponse": -1,
            "catchTime": 1681001047046,
            "trialTime": 0
        },
        {
            "exptPart": "trial",
            "trialNumber": 74,
            "roleCurrent": "receiver",
            "marblesSampled": 100,
            "probRed": 0.5,
            "practiceLambda": 5,
            "trialLambda": 0.3,
            "instructedLambda": "dishonest_small",
            "drawnRed": 53,
            "reportedRed": 55,
            "inferredRed": 44,
            "playerTrialScore": -9,
            "oppTrialScore": 0,
            "playerTotalScore": -338,
            "oppTotalScore": 82,
            "waitTime": 5756.3948393899445,
            "responseTime": 1681001094946,
            "catchQuestion": "How many <b class=\"r\">red<\/b> marbles did your opponent report drawing? ",
            "catchKey": -1,
            "catchResponse": -1,
            "catchTime": 1681001047046,
            "trialTime": 0
        },
        {
            "exptPart": "trial",
            "trialNumber": 75,
            "roleCurrent": "receiver",
            "marblesSampled": 100,
            "probRed": 0.5,
            "practiceLambda": 5,
            "trialLambda": 0.3,
            "instructedLambda": "dishonest_small",
            "drawnRed": 69,
            "reportedRed": 71,
            "inferredRed": 76,
            "playerTrialScore": -7,
            "oppTrialScore": 7,
            "playerTotalScore": -345,
            "oppTotalScore": 89,
            "waitTime": 6700.164385622023,
            "responseTime": 1681001104878,
            "catchQuestion": "How many <b class=\"r\">red<\/b> marbles did your opponent report drawing? ",
            "catchKey": -1,
            "catchResponse": -1,
            "catchTime": 1681001047046,
            "trialTime": 0
        },
        {
            "exptPart": "trial",
            "trialNumber": 76,
            "roleCurrent": "receiver",
            "marblesSampled": 100,
            "probRed": 0.5,
            "practiceLambda": 5,
            "trialLambda": 0.3,
            "instructedLambda": "dishonest_small",
            "drawnRed": 55,
            "reportedRed": 55,
            "inferredRed": 54,
            "playerTrialScore": -1,
            "oppTrialScore": 0,
            "playerTotalScore": -346,
            "oppTotalScore": 89,
            "waitTime": 5223.614230634534,
            "responseTime": 1681001113447,
            "catchQuestion": "How many <b class=\"r\">red<\/b> marbles did your opponent report drawing? ",
            "catchKey": -1,
            "catchResponse": -1,
            "catchTime": 1681001047046,
            "trialTime": 0
        },
        {
            "exptPart": "trial",
            "trialNumber": 77,
            "roleCurrent": "receiver",
            "marblesSampled": 100,
            "probRed": 0.5,
            "practiceLambda": 5,
            "trialLambda": 0.3,
            "instructedLambda": "dishonest_small",
            "drawnRed": 45,
            "reportedRed": 45,
            "inferredRed": 40,
            "playerTrialScore": -5,
            "oppTrialScore": 0,
            "playerTotalScore": -351,
            "oppTotalScore": 89,
            "waitTime": 6566.600827189938,
            "responseTime": 1681001123531,
            "catchQuestion": "How many <b class=\"r\">red<\/b> marbles did your opponent report drawing? ",
            "catchKey": -1,
            "catchResponse": -1,
            "catchTime": 1681001047046,
            "trialTime": 0
        },
        {
            "exptPart": "trial",
            "trialNumber": 78,
            "roleCurrent": "receiver",
            "marblesSampled": 100,
            "probRed": 0.5,
            "practiceLambda": 5,
            "trialLambda": 0.3,
            "instructedLambda": "dishonest_small",
            "drawnRed": 37,
            "reportedRed": 41,
            "inferredRed": 38,
            "playerTrialScore": -1,
            "oppTrialScore": 1,
            "playerTotalScore": -352,
            "oppTotalScore": 90,
            "waitTime": 7460.902422443438,
            "responseTime": 1681001134343,
            "catchQuestion": "How many <b class=\"r\">red<\/b> marbles did your opponent report drawing? ",
            "catchKey": -1,
            "catchResponse": -1,
            "catchTime": 1681001047046,
            "trialTime": 0
        },
        {
            "exptPart": "trial",
            "trialNumber": 79,
            "roleCurrent": "receiver",
            "marblesSampled": 100,
            "probRed": 0.5,
            "practiceLambda": 5,
            "trialLambda": 0.3,
            "instructedLambda": "dishonest_small",
            "drawnRed": 70,
            "reportedRed": 70,
            "inferredRed": 68,
            "playerTrialScore": -2,
            "oppTrialScore": 0,
            "playerTotalScore": -354,
            "oppTotalScore": 90,
            "waitTime": 7456.48297290205,
            "responseTime": 1681001146346,
            "catchQuestion": "How many <b class=\"r\">red<\/b> marbles did your opponent report drawing? ",
            "catchKey": -1,
            "catchResponse": -1,
            "catchTime": 1681001047046,
            "trialTime": 0
        },
        {
            "exptPart": "trial",
            "trialNumber": 80,
            "roleCurrent": "receiver",
            "marblesSampled": 100,
            "probRed": 0.5,
            "practiceLambda": 5,
            "trialLambda": 0.3,
            "instructedLambda": "dishonest_small",
            "drawnRed": 26,
            "reportedRed": 26,
            "inferredRed": 28,
            "playerTrialScore": -2,
            "oppTrialScore": 2,
            "playerTotalScore": -356,
            "oppTotalScore": 92,
            "waitTime": 7104.532733640511,
            "responseTime": 1681001157522,
            "catchQuestion": "How many <b class=\"r\">red<\/b> marbles did your opponent report drawing? ",
            "catchKey": -1,
            "catchResponse": -1,
            "catchTime": 1681001157522,
            "trialTime": 0
        },
        {
            "exptPart": "trial",
            "trialNumber": 81,
            "roleCurrent": "receiver",
            "marblesSampled": 100,
            "probRed": 0.5,
            "practiceLambda": 5,
            "trialLambda": 0.3,
            "instructedLambda": "dishonest_small",
            "drawnRed": 51,
            "reportedRed": 51,
            "inferredRed": 49,
            "playerTrialScore": -2,
            "oppTrialScore": 0,
            "playerTotalScore": -358,
            "oppTotalScore": 92,
            "waitTime": 7454.164911359843,
            "responseTime": 1681001171356,
            "catchQuestion": "How many <b class=\"r\">red<\/b> marbles did your opponent report drawing? ",
            "catchKey": -1,
            "catchResponse": -1,
            "catchTime": 1681001157522,
            "trialTime": 0
        },
        {
            "exptPart": "trial",
            "trialNumber": 82,
            "roleCurrent": "receiver",
            "marblesSampled": 100,
            "probRed": 0.5,
            "practiceLambda": 5,
            "trialLambda": 0.3,
            "instructedLambda": "dishonest_small",
            "drawnRed": 53,
            "reportedRed": 54,
            "inferredRed": 52,
            "playerTrialScore": -1,
            "oppTrialScore": 0,
            "playerTotalScore": -359,
            "oppTotalScore": 92,
            "waitTime": 5619.542611621122,
            "responseTime": 1681001180186,
            "catchQuestion": "How many <b class=\"r\">red<\/b> marbles did your opponent report drawing? ",
            "catchKey": -1,
            "catchResponse": -1,
            "catchTime": 1681001157522,
            "trialTime": 0
        },
        {
            "exptPart": "trial",
            "trialNumber": 83,
            "roleCurrent": "receiver",
            "marblesSampled": 100,
            "probRed": 0.5,
            "practiceLambda": 5,
            "trialLambda": 0.3,
            "instructedLambda": "dishonest_small",
            "drawnRed": 54,
            "reportedRed": 55,
            "inferredRed": 53,
            "playerTrialScore": -1,
            "oppTrialScore": 0,
            "playerTotalScore": -360,
            "oppTotalScore": 92,
            "waitTime": 5291.461143842002,
            "responseTime": 1681001189118,
            "catchQuestion": "How many <b class=\"r\">red<\/b> marbles did your opponent report drawing? ",
            "catchKey": -1,
            "catchResponse": -1,
            "catchTime": 1681001157522,
            "trialTime": 0
        },
        {
            "exptPart": "trial",
            "trialNumber": 84,
            "roleCurrent": "receiver",
            "marblesSampled": 100,
            "probRed": 0.5,
            "practiceLambda": 5,
            "trialLambda": 0.3,
            "instructedLambda": "dishonest_small",
            "drawnRed": 48,
            "reportedRed": 48,
            "inferredRed": 45,
            "playerTrialScore": -3,
            "oppTrialScore": 0,
            "playerTotalScore": -363,
            "oppTotalScore": 92,
            "waitTime": 6206.897311212819,
            "responseTime": 1681001201811,
            "catchQuestion": "How many <b class=\"r\">red<\/b> marbles did your opponent report drawing? ",
            "catchKey": -1,
            "catchResponse": -1,
            "catchTime": 1681001157522,
            "trialTime": 0
        },
        {
            "exptPart": "trial",
            "trialNumber": 85,
            "roleCurrent": "receiver",
            "marblesSampled": 100,
            "probRed": 0.5,
            "practiceLambda": 5,
            "trialLambda": 0.3,
            "instructedLambda": "dishonest_small",
            "drawnRed": 15,
            "reportedRed": 16,
            "inferredRed": 19,
            "playerTrialScore": -4,
            "oppTrialScore": 4,
            "playerTotalScore": -367,
            "oppTotalScore": 96,
            "waitTime": 5529.051870927252,
            "responseTime": 1681001216081,
            "catchQuestion": "How many <b class=\"r\">red<\/b> marbles did your opponent report drawing? ",
            "catchKey": -1,
            "catchResponse": -1,
            "catchTime": 1681001157522,
            "trialTime": 0
        },
        {
            "exptPart": "trial",
            "trialNumber": 86,
            "roleCurrent": "receiver",
            "marblesSampled": 100,
            "probRed": 0.5,
            "practiceLambda": 5,
            "trialLambda": 0.3,
            "instructedLambda": "dishonest_small",
            "drawnRed": 63,
            "reportedRed": 63,
            "inferredRed": 62,
            "playerTrialScore": -1,
            "oppTrialScore": 0,
            "playerTotalScore": -368,
            "oppTotalScore": 96,
            "waitTime": 5400.992216585742,
            "responseTime": 1681001224888,
            "catchQuestion": "How many <b class=\"r\">red<\/b> marbles did your opponent report drawing? ",
            "catchKey": -1,
            "catchResponse": -1,
            "catchTime": 1681001157522,
            "trialTime": 0
        },
        {
            "exptPart": "trial",
            "trialNumber": 87,
            "roleCurrent": "receiver",
            "marblesSampled": 100,
            "probRed": 0.5,
            "practiceLambda": 5,
            "trialLambda": 0.3,
            "instructedLambda": "dishonest_small",
            "drawnRed": 63,
            "reportedRed": 64,
            "inferredRed": 60,
            "playerTrialScore": -3,
            "oppTrialScore": 0,
            "playerTotalScore": -371,
            "oppTotalScore": 96,
            "waitTime": 7233.1120195099,
            "responseTime": 1681001237378,
            "catchQuestion": "How many <b class=\"r\">red<\/b> marbles did your opponent report drawing? ",
            "catchKey": -1,
            "catchResponse": -1,
            "catchTime": 1681001157522,
            "trialTime": 0
        },
        {
            "exptPart": "trial",
            "trialNumber": 88,
            "roleCurrent": "receiver",
            "marblesSampled": 100,
            "probRed": 0.5,
            "practiceLambda": 5,
            "trialLambda": 0.3,
            "instructedLambda": "dishonest_small",
            "drawnRed": 41,
            "reportedRed": 41,
            "inferredRed": 39,
            "playerTrialScore": -2,
            "oppTrialScore": 0,
            "playerTotalScore": -373,
            "oppTotalScore": 96,
            "waitTime": 5158.677614706414,
            "responseTime": 1681001245448,
            "catchQuestion": "How many <b class=\"r\">red<\/b> marbles did your opponent report drawing? ",
            "catchKey": 41,
            "catchResponse": 41,
            "catchTime": 1681001245448,
            "trialTime": 0
        },
        {
            "exptPart": "trial",
            "trialNumber": 89,
            "roleCurrent": "receiver",
            "marblesSampled": 100,
            "probRed": 0.5,
            "practiceLambda": 5,
            "trialLambda": 0.3,
            "instructedLambda": "dishonest_small",
            "drawnRed": 69,
            "reportedRed": 69,
            "inferredRed": 71,
            "playerTrialScore": -2,
            "oppTrialScore": 2,
            "playerTotalScore": -375,
            "oppTotalScore": 98,
            "waitTime": 7049.595175904802,
            "responseTime": 1681001260844,
            "catchQuestion": "How many <b class=\"r\">red<\/b> marbles did your opponent report drawing? ",
            "catchKey": -1,
            "catchResponse": -1,
            "catchTime": 1681001245448,
            "trialTime": 0
        },
        {
            "exptPart": "trial",
            "trialNumber": 90,
            "roleCurrent": "receiver",
            "marblesSampled": 100,
            "probRed": 0.5,
            "practiceLambda": 5,
            "trialLambda": 0.3,
            "instructedLambda": "dishonest_small",
            "drawnRed": 76,
            "reportedRed": 77,
            "inferredRed": 75,
            "playerTrialScore": -1,
            "oppTrialScore": 0,
            "playerTotalScore": -376,
            "oppTotalScore": 98,
            "waitTime": 5849.930222999923,
            "responseTime": 1681001271860,
            "catchQuestion": "How many <b class=\"r\">red<\/b> marbles did your opponent report drawing? ",
            "catchKey": -1,
            "catchResponse": -1,
            "catchTime": 1681001271860,
            "trialTime": 0
        },
        {
            "exptPart": "trial",
            "trialNumber": 91,
            "roleCurrent": "receiver",
            "marblesSampled": 100,
            "probRed": 0.5,
            "practiceLambda": 5,
            "trialLambda": 0.3,
            "instructedLambda": "dishonest_small",
            "drawnRed": 45,
            "reportedRed": 45,
            "inferredRed": 42,
            "playerTrialScore": -3,
            "oppTrialScore": 0,
            "playerTotalScore": -379,
            "oppTotalScore": 98,
            "waitTime": 5773.9475616489,
            "responseTime": 1681001282606,
            "catchQuestion": "How many <b class=\"r\">red<\/b> marbles did your opponent report drawing? ",
            "catchKey": -1,
            "catchResponse": -1,
            "catchTime": 1681001271860,
            "trialTime": 0
        },
        {
            "exptPart": "trial",
            "trialNumber": 92,
            "roleCurrent": "receiver",
            "marblesSampled": 100,
            "probRed": 0.5,
            "practiceLambda": 5,
            "trialLambda": 0.3,
            "instructedLambda": "dishonest_small",
            "drawnRed": 43,
            "reportedRed": 43,
            "inferredRed": 45,
            "playerTrialScore": -2,
            "oppTrialScore": 2,
            "playerTotalScore": -381,
            "oppTotalScore": 100,
            "waitTime": 6527.0731629969505,
            "responseTime": 1681001296286,
            "catchQuestion": "How many <b class=\"r\">red<\/b> marbles did your opponent report drawing? ",
            "catchKey": -1,
            "catchResponse": -1,
            "catchTime": 1681001271860,
            "trialTime": 0
        },
        {
            "exptPart": "trial",
            "trialNumber": 93,
            "roleCurrent": "receiver",
            "marblesSampled": 100,
            "probRed": 0.5,
            "practiceLambda": 5,
            "trialLambda": 0.3,
            "instructedLambda": "dishonest_small",
            "drawnRed": 27,
            "reportedRed": 27,
            "inferredRed": 30,
            "playerTrialScore": -3,
            "oppTrialScore": 3,
            "playerTotalScore": -384,
            "oppTotalScore": 103,
            "waitTime": 7422.904315708514,
            "responseTime": 1681001306980,
            "catchQuestion": "How many <b class=\"r\">red<\/b> marbles did your opponent report drawing? ",
            "catchKey": -1,
            "catchResponse": -1,
            "catchTime": 1681001271860,
            "trialTime": 0
        },
        {
            "exptPart": "trial",
            "trialNumber": 94,
            "roleCurrent": "receiver",
            "marblesSampled": 100,
            "probRed": 0.5,
            "practiceLambda": 5,
            "trialLambda": 0.3,
            "instructedLambda": "dishonest_small",
            "drawnRed": 37,
            "reportedRed": 37,
            "inferredRed": 35,
            "playerTrialScore": -2,
            "oppTrialScore": 0,
            "playerTotalScore": -386,
            "oppTotalScore": 103,
            "waitTime": 6899.3395671229055,
            "responseTime": 1681001317485,
            "catchQuestion": "How many <b class=\"r\">red<\/b> marbles did your opponent report drawing? ",
            "catchKey": 37,
            "catchResponse": 37,
            "catchTime": 1681001317486,
            "trialTime": 0
        },
        {
            "exptPart": "trial",
            "trialNumber": 95,
            "roleCurrent": "receiver",
            "marblesSampled": 100,
            "probRed": 0.5,
            "practiceLambda": 5,
            "trialLambda": 0.3,
            "instructedLambda": "dishonest_small",
            "drawnRed": 43,
            "reportedRed": 43,
            "inferredRed": 42,
            "playerTrialScore": -1,
            "oppTrialScore": 0,
            "playerTotalScore": -387,
            "oppTotalScore": 103,
            "waitTime": 6381.189708574443,
            "responseTime": 1681001332920,
            "catchQuestion": "How many <b class=\"r\">red<\/b> marbles did your opponent report drawing? ",
            "catchKey": -1,
            "catchResponse": -1,
            "catchTime": 1681001317486,
            "trialTime": 0
        },
        {
            "exptPart": "trial",
            "trialNumber": 96,
            "roleCurrent": "receiver",
            "marblesSampled": 100,
            "probRed": 0.5,
            "practiceLambda": 5,
            "trialLambda": 0.3,
            "instructedLambda": "dishonest_small",
            "drawnRed": 54,
            "reportedRed": 55,
            "inferredRed": 46,
            "playerTrialScore": -8,
            "oppTrialScore": 0,
            "playerTotalScore": -395,
            "oppTotalScore": 103,
            "waitTime": 7051.040707618971,
            "responseTime": 1681001344157,
            "catchQuestion": "How many <b class=\"r\">red<\/b> marbles did your opponent report drawing? ",
            "catchKey": -1,
            "catchResponse": -1,
            "catchTime": 1681001317486,
            "trialTime": 0
        },
        {
            "exptPart": "trial",
            "trialNumber": 97,
            "roleCurrent": "receiver",
            "marblesSampled": 100,
            "probRed": 0.5,
            "practiceLambda": 5,
            "trialLambda": 0.3,
            "instructedLambda": "dishonest_small",
            "drawnRed": 36,
            "reportedRed": 36,
            "inferredRed": 33,
            "playerTrialScore": -3,
            "oppTrialScore": 0,
            "playerTotalScore": -398,
            "oppTotalScore": 103,
            "waitTime": 6771.638757929151,
            "responseTime": 1681001357097,
            "catchQuestion": "How many <b class=\"r\">red<\/b> marbles did your opponent report drawing? ",
            "catchKey": -1,
            "catchResponse": -1,
            "catchTime": 1681001317486,
            "trialTime": 0
        },
        {
            "exptPart": "trial",
            "trialNumber": 98,
            "roleCurrent": "receiver",
            "marblesSampled": 100,
            "probRed": 0.5,
            "practiceLambda": 5,
            "trialLambda": 0.3,
            "instructedLambda": "dishonest_small",
            "drawnRed": 52,
            "reportedRed": 52,
            "inferredRed": 50,
            "playerTrialScore": -2,
            "oppTrialScore": 0,
            "playerTotalScore": -400,
            "oppTotalScore": 103,
            "waitTime": 7203.298158488813,
            "responseTime": 1681001368806,
            "catchQuestion": "How many <b class=\"r\">red<\/b> marbles did your opponent report drawing? ",
            "catchKey": -1,
            "catchResponse": -1,
            "catchTime": 1681001317486,
            "trialTime": 0
        },
        {
            "exptPart": "trial",
            "trialNumber": 99,
            "roleCurrent": "receiver",
            "marblesSampled": 100,
            "probRed": 0.5,
            "practiceLambda": 5,
            "trialLambda": 0.3,
            "instructedLambda": "dishonest_small",
            "drawnRed": 57,
            "reportedRed": 57,
            "inferredRed": 54,
            "playerTrialScore": -3,
            "oppTrialScore": 0,
            "playerTotalScore": -403,
            "oppTotalScore": 103,
            "waitTime": 5361.1013632851755,
            "responseTime": 1681001377927,
            "catchQuestion": "How many <b class=\"r\">red<\/b> marbles did your opponent report drawing? ",
            "catchKey": -1,
            "catchResponse": -1,
            "catchTime": 1681001317486,
            "trialTime": 0
        },
        {
            "exptPart": "trial",
            "trialNumber": 100,
            "roleCurrent": "receiver",
            "marblesSampled": 100,
            "probRed": 0.5,
            "practiceLambda": 5,
            "trialLambda": 0.3,
            "instructedLambda": "dishonest_small",
            "drawnRed": 49,
            "reportedRed": 50,
            "inferredRed": 48,
            "playerTrialScore": -1,
            "oppTrialScore": 0,
            "playerTotalScore": -404,
            "oppTotalScore": 103,
            "waitTime": 7001.857287690982,
            "responseTime": 1681001388634,
            "catchQuestion": "How many <b class=\"r\">red<\/b> marbles did your opponent report drawing? ",
            "catchKey": -1,
            "catchResponse": -1,
            "catchTime": 1681001388634,
            "trialTime": 0
        }
    ]
}