{
    "client": {
        "type": "sona",
        "experiment_id": 2488,
        "credit_token": "79d15902e9034cb6b65a542be205401c",
        "survey_code": "42790",
        "sid": "sona-42790",
        "window": {
            "width": 1280,
            "height": 601
        },
        "screen": {
            "width": 1280,
            "height": 720
        },
        "userAgent": "Mozilla\/5.0 (Windows NT 10.0; Win64; x64) AppleWebKit\/537.36 (KHTML, like Gecko) Chrome\/111.0.0.0 Safari\/537.36",
        "score": 0,
        "bonus": 0
    },
    "expt": {
        "saveURL": "submit.simple.php",
        "trials": 100,
        "practiceTrials": 2,
        "marblesSampled": 100,
        "probRed": 0.5,
        "practiceLambdaAI": 5,
        "lambdaAI": 8.1,
        "roles": [
            "sender",
            "receiver"
        ],
        "cost": "unif",
        "goal": "over",
        "oppDishonesty": "honest",
        "catchTrials": [
            95,
            29,
            37,
            35,
            50,
            23,
            9,
            7,
            31,
            20
        ],
        "scoreTotal": {
            "player": -644,
            "opp": 634
        },
        "sona": {
            "experiment_id": 2488,
            "credit_token": "79d15902e9034cb6b65a542be205401c"
        },
        "pilot": false,
        "debug": false
    },
    "trials": [
        {
            "exptPart": "practice",
            "trialNumber": 1,
            "roleCurrent": "sender",
            "marblesSampled": 100,
            "probRed": 0.5,
            "practiceLambda": 5,
            "trialLambda": 8.1,
            "instructedLambda": "honest",
            "drawnRed": 45,
            "reportedRed": 46,
            "inferredRed": 41,
            "playerTrialScore": 0,
            "oppTrialScore": -4,
            "playerTotalScore": 0,
            "oppTotalScore": -4,
            "waitTime": 2508.3250785025225,
            "responseTime": 1678912133435,
            "catchQuestion": "How many <b class=\"r\">red<\/b> marbles did you actually draw (before any changes)? ",
            "catchKey": 45,
            "catchResponse": 55,
            "catchTime": 1678912133435,
            "trialTime": 0
        },
        {
            "exptPart": "practice",
            "trialNumber": 2,
            "roleCurrent": "receiver",
            "marblesSampled": 100,
            "probRed": 0.5,
            "practiceLambda": 5,
            "trialLambda": 8.1,
            "instructedLambda": "honest",
            "drawnRed": 56,
            "reportedRed": 63,
            "inferredRed": 65,
            "playerTrialScore": -9,
            "oppTrialScore": 9,
            "playerTotalScore": -9,
            "oppTotalScore": 5,
            "waitTime": 6558.16817611307,
            "responseTime": 1678912180540,
            "catchQuestion": "How many <b class=\"r\">red<\/b> marbles did your opponent report drawing? ",
            "catchKey": 63,
            "catchResponse": 63,
            "catchTime": 1678912180540,
            "trialTime": 0
        },
        {
            "exptPart": "trial",
            "trialNumber": 1,
            "roleCurrent": "receiver",
            "marblesSampled": 100,
            "probRed": 0.5,
            "practiceLambda": 5,
            "trialLambda": 8.1,
            "instructedLambda": "honest",
            "drawnRed": 66,
            "reportedRed": 76,
            "inferredRed": 74,
            "playerTrialScore": -8,
            "oppTrialScore": 8,
            "playerTotalScore": -8,
            "oppTotalScore": 8,
            "waitTime": 5209.167600893625,
            "responseTime": 1678912245430,
            "catchQuestion": "How many <b class=\"r\">red<\/b> marbles did your opponent report drawing? ",
            "catchKey": -1,
            "catchResponse": -1,
            "catchTime": 1678912180540,
            "trialTime": 0
        },
        {
            "exptPart": "trial",
            "trialNumber": 2,
            "roleCurrent": "receiver",
            "marblesSampled": 100,
            "probRed": 0.5,
            "practiceLambda": 5,
            "trialLambda": 8.1,
            "instructedLambda": "honest",
            "drawnRed": 47,
            "reportedRed": 55,
            "inferredRed": 50,
            "playerTrialScore": -3,
            "oppTrialScore": 3,
            "playerTotalScore": -11,
            "oppTotalScore": 11,
            "waitTime": 5659.882552545715,
            "responseTime": 1678912256658,
            "catchQuestion": "How many <b class=\"r\">red<\/b> marbles did your opponent report drawing? ",
            "catchKey": -1,
            "catchResponse": -1,
            "catchTime": 1678912180540,
            "trialTime": 0
        },
        {
            "exptPart": "trial",
            "trialNumber": 3,
            "roleCurrent": "receiver",
            "marblesSampled": 100,
            "probRed": 0.5,
            "practiceLambda": 5,
            "trialLambda": 8.1,
            "instructedLambda": "honest",
            "drawnRed": 43,
            "reportedRed": 51,
            "inferredRed": 53,
            "playerTrialScore": -10,
            "oppTrialScore": 10,
            "playerTotalScore": -21,
            "oppTotalScore": 21,
            "waitTime": 5341.252284944489,
            "responseTime": 1678912268849,
            "catchQuestion": "How many <b class=\"r\">red<\/b> marbles did your opponent report drawing? ",
            "catchKey": -1,
            "catchResponse": -1,
            "catchTime": 1678912180540,
            "trialTime": 0
        },
        {
            "exptPart": "trial",
            "trialNumber": 4,
            "roleCurrent": "receiver",
            "marblesSampled": 100,
            "probRed": 0.5,
            "practiceLambda": 5,
            "trialLambda": 8.1,
            "instructedLambda": "honest",
            "drawnRed": 41,
            "reportedRed": 47,
            "inferredRed": 43,
            "playerTrialScore": -2,
            "oppTrialScore": 2,
            "playerTotalScore": -23,
            "oppTotalScore": 23,
            "waitTime": 6761.696019283863,
            "responseTime": 1678912314147,
            "catchQuestion": "How many <b class=\"r\">red<\/b> marbles did your opponent report drawing? ",
            "catchKey": -1,
            "catchResponse": -1,
            "catchTime": 1678912180540,
            "trialTime": 0
        },
        {
            "exptPart": "trial",
            "trialNumber": 5,
            "roleCurrent": "receiver",
            "marblesSampled": 100,
            "probRed": 0.5,
            "practiceLambda": 5,
            "trialLambda": 8.1,
            "instructedLambda": "honest",
            "drawnRed": 20,
            "reportedRed": 32,
            "inferredRed": 33,
            "playerTrialScore": -13,
            "oppTrialScore": 13,
            "playerTotalScore": -36,
            "oppTotalScore": 36,
            "waitTime": 7422.252699043674,
            "responseTime": 1678912332646,
            "catchQuestion": "How many <b class=\"r\">red<\/b> marbles did your opponent report drawing? ",
            "catchKey": -1,
            "catchResponse": -1,
            "catchTime": 1678912180540,
            "trialTime": 0
        },
        {
            "exptPart": "trial",
            "trialNumber": 6,
            "roleCurrent": "receiver",
            "marblesSampled": 100,
            "probRed": 0.5,
            "practiceLambda": 5,
            "trialLambda": 8.1,
            "instructedLambda": "honest",
            "drawnRed": 76,
            "reportedRed": 79,
            "inferredRed": 77,
            "playerTrialScore": -1,
            "oppTrialScore": 1,
            "playerTotalScore": -37,
            "oppTotalScore": 37,
            "waitTime": 6078.770167987064,
            "responseTime": 1678912348212,
            "catchQuestion": "How many <b class=\"r\">red<\/b> marbles did your opponent report drawing? ",
            "catchKey": -1,
            "catchResponse": -1,
            "catchTime": 1678912180540,
            "trialTime": 0
        },
        {
            "exptPart": "trial",
            "trialNumber": 7,
            "roleCurrent": "receiver",
            "marblesSampled": 100,
            "probRed": 0.5,
            "practiceLambda": 5,
            "trialLambda": 8.1,
            "instructedLambda": "honest",
            "drawnRed": 66,
            "reportedRed": 73,
            "inferredRed": 76,
            "playerTrialScore": -10,
            "oppTrialScore": 10,
            "playerTotalScore": -47,
            "oppTotalScore": 47,
            "waitTime": 6710.485598192524,
            "responseTime": 1678912375889,
            "catchQuestion": "How many <b class=\"r\">red<\/b> marbles did your opponent report drawing? ",
            "catchKey": -1,
            "catchResponse": -1,
            "catchTime": 1678912180540,
            "trialTime": 0
        },
        {
            "exptPart": "trial",
            "trialNumber": 8,
            "roleCurrent": "receiver",
            "marblesSampled": 100,
            "probRed": 0.5,
            "practiceLambda": 5,
            "trialLambda": 8.1,
            "instructedLambda": "honest",
            "drawnRed": 60,
            "reportedRed": 69,
            "inferredRed": 65,
            "playerTrialScore": -5,
            "oppTrialScore": 5,
            "playerTotalScore": -52,
            "oppTotalScore": 52,
            "waitTime": 6179.98600363098,
            "responseTime": 1678912389752,
            "catchQuestion": "How many <b class=\"r\">red<\/b> marbles did your opponent report drawing? ",
            "catchKey": 69,
            "catchResponse": 69,
            "catchTime": 1678912389752,
            "trialTime": 0
        },
        {
            "exptPart": "trial",
            "trialNumber": 9,
            "roleCurrent": "receiver",
            "marblesSampled": 100,
            "probRed": 0.5,
            "practiceLambda": 5,
            "trialLambda": 8.1,
            "instructedLambda": "honest",
            "drawnRed": 80,
            "reportedRed": 89,
            "inferredRed": 88,
            "playerTrialScore": -8,
            "oppTrialScore": 8,
            "playerTotalScore": -60,
            "oppTotalScore": 60,
            "waitTime": 7488.339631153406,
            "responseTime": 1678912410126,
            "catchQuestion": "How many <b class=\"r\">red<\/b> marbles did your opponent report drawing? ",
            "catchKey": -1,
            "catchResponse": -1,
            "catchTime": 1678912389752,
            "trialTime": 0
        },
        {
            "exptPart": "trial",
            "trialNumber": 10,
            "roleCurrent": "receiver",
            "marblesSampled": 100,
            "probRed": 0.5,
            "practiceLambda": 5,
            "trialLambda": 8.1,
            "instructedLambda": "honest",
            "drawnRed": 67,
            "reportedRed": 76,
            "inferredRed": 73,
            "playerTrialScore": -6,
            "oppTrialScore": 6,
            "playerTotalScore": -66,
            "oppTotalScore": 66,
            "waitTime": 6021.055200081393,
            "responseTime": 1678912444173,
            "catchQuestion": "How many <b class=\"r\">red<\/b> marbles did your opponent report drawing? ",
            "catchKey": 76,
            "catchResponse": 76,
            "catchTime": 1678912444173,
            "trialTime": 0
        },
        {
            "exptPart": "trial",
            "trialNumber": 11,
            "roleCurrent": "receiver",
            "marblesSampled": 100,
            "probRed": 0.5,
            "practiceLambda": 5,
            "trialLambda": 8.1,
            "instructedLambda": "honest",
            "drawnRed": 55,
            "reportedRed": 61,
            "inferredRed": 59,
            "playerTrialScore": -4,
            "oppTrialScore": 4,
            "playerTotalScore": -70,
            "oppTotalScore": 70,
            "waitTime": 5171.518382403859,
            "responseTime": 1678912501495,
            "catchQuestion": "How many <b class=\"r\">red<\/b> marbles did your opponent report drawing? ",
            "catchKey": -1,
            "catchResponse": -1,
            "catchTime": 1678912444173,
            "trialTime": 0
        },
        {
            "exptPart": "trial",
            "trialNumber": 12,
            "roleCurrent": "receiver",
            "marblesSampled": 100,
            "probRed": 0.5,
            "practiceLambda": 5,
            "trialLambda": 8.1,
            "instructedLambda": "honest",
            "drawnRed": 53,
            "reportedRed": 66,
            "inferredRed": 67,
            "playerTrialScore": -14,
            "oppTrialScore": 14,
            "playerTotalScore": -84,
            "oppTotalScore": 84,
            "waitTime": 5779.586764581481,
            "responseTime": 1678912520615,
            "catchQuestion": "How many <b class=\"r\">red<\/b> marbles did your opponent report drawing? ",
            "catchKey": -1,
            "catchResponse": -1,
            "catchTime": 1678912444173,
            "trialTime": 0
        },
        {
            "exptPart": "trial",
            "trialNumber": 13,
            "roleCurrent": "receiver",
            "marblesSampled": 100,
            "probRed": 0.5,
            "practiceLambda": 5,
            "trialLambda": 8.1,
            "instructedLambda": "honest",
            "drawnRed": 34,
            "reportedRed": 46,
            "inferredRed": 43,
            "playerTrialScore": -9,
            "oppTrialScore": 9,
            "playerTotalScore": -93,
            "oppTotalScore": 93,
            "waitTime": 7110.704965718605,
            "responseTime": 1678912536005,
            "catchQuestion": "How many <b class=\"r\">red<\/b> marbles did your opponent report drawing? ",
            "catchKey": -1,
            "catchResponse": -1,
            "catchTime": 1678912444173,
            "trialTime": 0
        },
        {
            "exptPart": "trial",
            "trialNumber": 14,
            "roleCurrent": "receiver",
            "marblesSampled": 100,
            "probRed": 0.5,
            "practiceLambda": 5,
            "trialLambda": 8.1,
            "instructedLambda": "honest",
            "drawnRed": 44,
            "reportedRed": 49,
            "inferredRed": 46,
            "playerTrialScore": -2,
            "oppTrialScore": 2,
            "playerTotalScore": -95,
            "oppTotalScore": 95,
            "waitTime": 7499.183590118447,
            "responseTime": 1678912552870,
            "catchQuestion": "How many <b class=\"r\">red<\/b> marbles did your opponent report drawing? ",
            "catchKey": -1,
            "catchResponse": -1,
            "catchTime": 1678912444173,
            "trialTime": 0
        },
        {
            "exptPart": "trial",
            "trialNumber": 15,
            "roleCurrent": "receiver",
            "marblesSampled": 100,
            "probRed": 0.5,
            "practiceLambda": 5,
            "trialLambda": 8.1,
            "instructedLambda": "honest",
            "drawnRed": 35,
            "reportedRed": 41,
            "inferredRed": 43,
            "playerTrialScore": -8,
            "oppTrialScore": 8,
            "playerTotalScore": -103,
            "oppTotalScore": 103,
            "waitTime": 5713.059411747164,
            "responseTime": 1678912575973,
            "catchQuestion": "How many <b class=\"r\">red<\/b> marbles did your opponent report drawing? ",
            "catchKey": -1,
            "catchResponse": -1,
            "catchTime": 1678912444173,
            "trialTime": 0
        },
        {
            "exptPart": "trial",
            "trialNumber": 16,
            "roleCurrent": "receiver",
            "marblesSampled": 100,
            "probRed": 0.5,
            "practiceLambda": 5,
            "trialLambda": 8.1,
            "instructedLambda": "honest",
            "drawnRed": 61,
            "reportedRed": 66,
            "inferredRed": 68,
            "playerTrialScore": -7,
            "oppTrialScore": 7,
            "playerTotalScore": -110,
            "oppTotalScore": 110,
            "waitTime": 7128.639151545898,
            "responseTime": 1678912597597,
            "catchQuestion": "How many <b class=\"r\">red<\/b> marbles did your opponent report drawing? ",
            "catchKey": -1,
            "catchResponse": -1,
            "catchTime": 1678912444173,
            "trialTime": 0
        },
        {
            "exptPart": "trial",
            "trialNumber": 17,
            "roleCurrent": "receiver",
            "marblesSampled": 100,
            "probRed": 0.5,
            "practiceLambda": 5,
            "trialLambda": 8.1,
            "instructedLambda": "honest",
            "drawnRed": 62,
            "reportedRed": 69,
            "inferredRed": 67,
            "playerTrialScore": -5,
            "oppTrialScore": 5,
            "playerTotalScore": -115,
            "oppTotalScore": 115,
            "waitTime": 6668.115198485453,
            "responseTime": 1678912621059,
            "catchQuestion": "How many <b class=\"r\">red<\/b> marbles did your opponent report drawing? ",
            "catchKey": -1,
            "catchResponse": -1,
            "catchTime": 1678912444173,
            "trialTime": 0
        },
        {
            "exptPart": "trial",
            "trialNumber": 18,
            "roleCurrent": "receiver",
            "marblesSampled": 100,
            "probRed": 0.5,
            "practiceLambda": 5,
            "trialLambda": 8.1,
            "instructedLambda": "honest",
            "drawnRed": 67,
            "reportedRed": 74,
            "inferredRed": 76,
            "playerTrialScore": -9,
            "oppTrialScore": 9,
            "playerTotalScore": -124,
            "oppTotalScore": 124,
            "waitTime": 6540.314935754528,
            "responseTime": 1678912643387,
            "catchQuestion": "How many <b class=\"r\">red<\/b> marbles did your opponent report drawing? ",
            "catchKey": -1,
            "catchResponse": -1,
            "catchTime": 1678912444173,
            "trialTime": 0
        },
        {
            "exptPart": "trial",
            "trialNumber": 19,
            "roleCurrent": "receiver",
            "marblesSampled": 100,
            "probRed": 0.5,
            "practiceLambda": 5,
            "trialLambda": 8.1,
            "instructedLambda": "honest",
            "drawnRed": 53,
            "reportedRed": 62,
            "inferredRed": 65,
            "playerTrialScore": -12,
            "oppTrialScore": 12,
            "playerTotalScore": -136,
            "oppTotalScore": 136,
            "waitTime": 6088.560933273831,
            "responseTime": 1678912659783,
            "catchQuestion": "How many <b class=\"r\">red<\/b> marbles did your opponent report drawing? ",
            "catchKey": -1,
            "catchResponse": -1,
            "catchTime": 1678912444173,
            "trialTime": 0
        },
        {
            "exptPart": "trial",
            "trialNumber": 20,
            "roleCurrent": "receiver",
            "marblesSampled": 100,
            "probRed": 0.5,
            "practiceLambda": 5,
            "trialLambda": 8.1,
            "instructedLambda": "honest",
            "drawnRed": 43,
            "reportedRed": 52,
            "inferredRed": 54,
            "playerTrialScore": -11,
            "oppTrialScore": 11,
            "playerTotalScore": -147,
            "oppTotalScore": 147,
            "waitTime": 7099.743528996375,
            "responseTime": 1678912697905,
            "catchQuestion": "How many <b class=\"r\">red<\/b> marbles did your opponent report drawing? ",
            "catchKey": -1,
            "catchResponse": -1,
            "catchTime": 1678912697905,
            "trialTime": 0
        },
        {
            "exptPart": "trial",
            "trialNumber": 21,
            "roleCurrent": "receiver",
            "marblesSampled": 100,
            "probRed": 0.5,
            "practiceLambda": 5,
            "trialLambda": 8.1,
            "instructedLambda": "honest",
            "drawnRed": 67,
            "reportedRed": 73,
            "inferredRed": 75,
            "playerTrialScore": -8,
            "oppTrialScore": 8,
            "playerTotalScore": -155,
            "oppTotalScore": 155,
            "waitTime": 6121.902828918858,
            "responseTime": 1678912717020,
            "catchQuestion": "How many <b class=\"r\">red<\/b> marbles did your opponent report drawing? ",
            "catchKey": 73,
            "catchResponse": 73,
            "catchTime": 1678912717020,
            "trialTime": 0
        },
        {
            "exptPart": "trial",
            "trialNumber": 22,
            "roleCurrent": "receiver",
            "marblesSampled": 100,
            "probRed": 0.5,
            "practiceLambda": 5,
            "trialLambda": 8.1,
            "instructedLambda": "honest",
            "drawnRed": 50,
            "reportedRed": 57,
            "inferredRed": 56,
            "playerTrialScore": -6,
            "oppTrialScore": 6,
            "playerTotalScore": -161,
            "oppTotalScore": 161,
            "waitTime": 7418.645650102216,
            "responseTime": 1678912740335,
            "catchQuestion": "How many <b class=\"r\">red<\/b> marbles did your opponent report drawing? ",
            "catchKey": -1,
            "catchResponse": -1,
            "catchTime": 1678912717020,
            "trialTime": 0
        },
        {
            "exptPart": "trial",
            "trialNumber": 23,
            "roleCurrent": "receiver",
            "marblesSampled": 100,
            "probRed": 0.5,
            "practiceLambda": 5,
            "trialLambda": 8.1,
            "instructedLambda": "honest",
            "drawnRed": 54,
            "reportedRed": 65,
            "inferredRed": 61,
            "playerTrialScore": -7,
            "oppTrialScore": 7,
            "playerTotalScore": -168,
            "oppTotalScore": 168,
            "waitTime": 6834.95518248842,
            "responseTime": 1678912754582,
            "catchQuestion": "How many <b class=\"r\">red<\/b> marbles did your opponent report drawing? ",
            "catchKey": -1,
            "catchResponse": -1,
            "catchTime": 1678912717020,
            "trialTime": 0
        },
        {
            "exptPart": "trial",
            "trialNumber": 24,
            "roleCurrent": "receiver",
            "marblesSampled": 100,
            "probRed": 0.5,
            "practiceLambda": 5,
            "trialLambda": 8.1,
            "instructedLambda": "honest",
            "drawnRed": 76,
            "reportedRed": 86,
            "inferredRed": 87,
            "playerTrialScore": -11,
            "oppTrialScore": 11,
            "playerTotalScore": -179,
            "oppTotalScore": 179,
            "waitTime": 6613.536426590501,
            "responseTime": 1678912765221,
            "catchQuestion": "How many <b class=\"r\">red<\/b> marbles did your opponent report drawing? ",
            "catchKey": 86,
            "catchResponse": 86,
            "catchTime": 1678912765221,
            "trialTime": 0
        },
        {
            "exptPart": "trial",
            "trialNumber": 25,
            "roleCurrent": "receiver",
            "marblesSampled": 100,
            "probRed": 0.5,
            "practiceLambda": 5,
            "trialLambda": 8.1,
            "instructedLambda": "honest",
            "drawnRed": 40,
            "reportedRed": 47,
            "inferredRed": 43,
            "playerTrialScore": -3,
            "oppTrialScore": 3,
            "playerTotalScore": -182,
            "oppTotalScore": 182,
            "waitTime": 6194.844403402088,
            "responseTime": 1678912785847,
            "catchQuestion": "How many <b class=\"r\">red<\/b> marbles did your opponent report drawing? ",
            "catchKey": -1,
            "catchResponse": -1,
            "catchTime": 1678912765221,
            "trialTime": 0
        },
        {
            "exptPart": "trial",
            "trialNumber": 26,
            "roleCurrent": "receiver",
            "marblesSampled": 100,
            "probRed": 0.5,
            "practiceLambda": 5,
            "trialLambda": 8.1,
            "instructedLambda": "honest",
            "drawnRed": 66,
            "reportedRed": 68,
            "inferredRed": 67,
            "playerTrialScore": -1,
            "oppTrialScore": 1,
            "playerTotalScore": -183,
            "oppTotalScore": 183,
            "waitTime": 5464.085096416631,
            "responseTime": 1678912802780,
            "catchQuestion": "How many <b class=\"r\">red<\/b> marbles did your opponent report drawing? ",
            "catchKey": -1,
            "catchResponse": -1,
            "catchTime": 1678912765221,
            "trialTime": 0
        },
        {
            "exptPart": "trial",
            "trialNumber": 27,
            "roleCurrent": "receiver",
            "marblesSampled": 100,
            "probRed": 0.5,
            "practiceLambda": 5,
            "trialLambda": 8.1,
            "instructedLambda": "honest",
            "drawnRed": 26,
            "reportedRed": 34,
            "inferredRed": 35,
            "playerTrialScore": -9,
            "oppTrialScore": 9,
            "playerTotalScore": -192,
            "oppTotalScore": 192,
            "waitTime": 7298.799448243187,
            "responseTime": 1678912817375,
            "catchQuestion": "How many <b class=\"r\">red<\/b> marbles did your opponent report drawing? ",
            "catchKey": -1,
            "catchResponse": -1,
            "catchTime": 1678912765221,
            "trialTime": 0
        },
        {
            "exptPart": "trial",
            "trialNumber": 28,
            "roleCurrent": "receiver",
            "marblesSampled": 100,
            "probRed": 0.5,
            "practiceLambda": 5,
            "trialLambda": 8.1,
            "instructedLambda": "honest",
            "drawnRed": 89,
            "reportedRed": 92,
            "inferredRed": 90,
            "playerTrialScore": -1,
            "oppTrialScore": 1,
            "playerTotalScore": -193,
            "oppTotalScore": 193,
            "waitTime": 5845.123179786855,
            "responseTime": 1678912827748,
            "catchQuestion": "How many <b class=\"r\">red<\/b> marbles did your opponent report drawing? ",
            "catchKey": -1,
            "catchResponse": -1,
            "catchTime": 1678912765221,
            "trialTime": 0
        },
        {
            "exptPart": "trial",
            "trialNumber": 29,
            "roleCurrent": "receiver",
            "marblesSampled": 100,
            "probRed": 0.5,
            "practiceLambda": 5,
            "trialLambda": 8.1,
            "instructedLambda": "honest",
            "drawnRed": 92,
            "reportedRed": 97,
            "inferredRed": 98,
            "playerTrialScore": -6,
            "oppTrialScore": 6,
            "playerTotalScore": -199,
            "oppTotalScore": 199,
            "waitTime": 7419.052007522877,
            "responseTime": 1678912851330,
            "catchQuestion": "How many <b class=\"r\">red<\/b> marbles did your opponent report drawing? ",
            "catchKey": -1,
            "catchResponse": -1,
            "catchTime": 1678912765221,
            "trialTime": 0
        },
        {
            "exptPart": "trial",
            "trialNumber": 30,
            "roleCurrent": "receiver",
            "marblesSampled": 100,
            "probRed": 0.5,
            "practiceLambda": 5,
            "trialLambda": 8.1,
            "instructedLambda": "honest",
            "drawnRed": 18,
            "reportedRed": 26,
            "inferredRed": 24,
            "playerTrialScore": -6,
            "oppTrialScore": 6,
            "playerTotalScore": -205,
            "oppTotalScore": 205,
            "waitTime": 6700.4404240530275,
            "responseTime": 1678912865365,
            "catchQuestion": "How many <b class=\"r\">red<\/b> marbles did your opponent report drawing? ",
            "catchKey": 26,
            "catchResponse": 26,
            "catchTime": 1678912865366,
            "trialTime": 0
        },
        {
            "exptPart": "trial",
            "trialNumber": 31,
            "roleCurrent": "receiver",
            "marblesSampled": 100,
            "probRed": 0.5,
            "practiceLambda": 5,
            "trialLambda": 8.1,
            "instructedLambda": "honest",
            "drawnRed": 79,
            "reportedRed": 88,
            "inferredRed": 85,
            "playerTrialScore": -6,
            "oppTrialScore": 6,
            "playerTotalScore": -211,
            "oppTotalScore": 211,
            "waitTime": 7055.289847730131,
            "responseTime": 1678912908514,
            "catchQuestion": "How many <b class=\"r\">red<\/b> marbles did your opponent report drawing? ",
            "catchKey": -1,
            "catchResponse": -1,
            "catchTime": 1678912865366,
            "trialTime": 0
        },
        {
            "exptPart": "trial",
            "trialNumber": 32,
            "roleCurrent": "receiver",
            "marblesSampled": 100,
            "probRed": 0.5,
            "practiceLambda": 5,
            "trialLambda": 8.1,
            "instructedLambda": "honest",
            "drawnRed": 32,
            "reportedRed": 40,
            "inferredRed": 38,
            "playerTrialScore": -6,
            "oppTrialScore": 6,
            "playerTotalScore": -217,
            "oppTotalScore": 217,
            "waitTime": 5599.99986910283,
            "responseTime": 1678912924684,
            "catchQuestion": "How many <b class=\"r\">red<\/b> marbles did your opponent report drawing? ",
            "catchKey": 40,
            "catchResponse": 40,
            "catchTime": 1678912924685,
            "trialTime": 0
        },
        {
            "exptPart": "trial",
            "trialNumber": 33,
            "roleCurrent": "receiver",
            "marblesSampled": 100,
            "probRed": 0.5,
            "practiceLambda": 5,
            "trialLambda": 8.1,
            "instructedLambda": "honest",
            "drawnRed": 79,
            "reportedRed": 91,
            "inferredRed": 93,
            "playerTrialScore": -14,
            "oppTrialScore": 14,
            "playerTotalScore": -231,
            "oppTotalScore": 231,
            "waitTime": 6372.064948959473,
            "responseTime": 1678913007211,
            "catchQuestion": "How many <b class=\"r\">red<\/b> marbles did your opponent report drawing? ",
            "catchKey": -1,
            "catchResponse": -1,
            "catchTime": 1678912924685,
            "trialTime": 0
        },
        {
            "exptPart": "trial",
            "trialNumber": 34,
            "roleCurrent": "receiver",
            "marblesSampled": 100,
            "probRed": 0.5,
            "practiceLambda": 5,
            "trialLambda": 8.1,
            "instructedLambda": "honest",
            "drawnRed": 53,
            "reportedRed": 63,
            "inferredRed": 67,
            "playerTrialScore": -14,
            "oppTrialScore": 14,
            "playerTotalScore": -245,
            "oppTotalScore": 245,
            "waitTime": 6715.820436502956,
            "responseTime": 1678913023547,
            "catchQuestion": "How many <b class=\"r\">red<\/b> marbles did your opponent report drawing? ",
            "catchKey": -1,
            "catchResponse": -1,
            "catchTime": 1678912924685,
            "trialTime": 0
        },
        {
            "exptPart": "trial",
            "trialNumber": 35,
            "roleCurrent": "receiver",
            "marblesSampled": 100,
            "probRed": 0.5,
            "practiceLambda": 5,
            "trialLambda": 8.1,
            "instructedLambda": "honest",
            "drawnRed": 23,
            "reportedRed": 29,
            "inferredRed": 27,
            "playerTrialScore": -4,
            "oppTrialScore": 4,
            "playerTotalScore": -249,
            "oppTotalScore": 249,
            "waitTime": 7318.670506082522,
            "responseTime": 1678913039135,
            "catchQuestion": "How many <b class=\"r\">red<\/b> marbles did your opponent report drawing? ",
            "catchKey": -1,
            "catchResponse": -1,
            "catchTime": 1678912924685,
            "trialTime": 0
        },
        {
            "exptPart": "trial",
            "trialNumber": 36,
            "roleCurrent": "receiver",
            "marblesSampled": 100,
            "probRed": 0.5,
            "practiceLambda": 5,
            "trialLambda": 8.1,
            "instructedLambda": "honest",
            "drawnRed": 47,
            "reportedRed": 56,
            "inferredRed": 55,
            "playerTrialScore": -8,
            "oppTrialScore": 8,
            "playerTotalScore": -257,
            "oppTotalScore": 257,
            "waitTime": 5948.496404477713,
            "responseTime": 1678913056452,
            "catchQuestion": "How many <b class=\"r\">red<\/b> marbles did your opponent report drawing? ",
            "catchKey": 56,
            "catchResponse": 56,
            "catchTime": 1678913056452,
            "trialTime": 0
        },
        {
            "exptPart": "trial",
            "trialNumber": 37,
            "roleCurrent": "receiver",
            "marblesSampled": 100,
            "probRed": 0.5,
            "practiceLambda": 5,
            "trialLambda": 8.1,
            "instructedLambda": "honest",
            "drawnRed": 51,
            "reportedRed": 59,
            "inferredRed": 56,
            "playerTrialScore": -5,
            "oppTrialScore": 5,
            "playerTotalScore": -262,
            "oppTotalScore": 262,
            "waitTime": 5703.612681902115,
            "responseTime": 1678913192745,
            "catchQuestion": "How many <b class=\"r\">red<\/b> marbles did your opponent report drawing? ",
            "catchKey": -1,
            "catchResponse": -1,
            "catchTime": 1678913056452,
            "trialTime": 0
        },
        {
            "exptPart": "trial",
            "trialNumber": 38,
            "roleCurrent": "receiver",
            "marblesSampled": 100,
            "probRed": 0.5,
            "practiceLambda": 5,
            "trialLambda": 8.1,
            "instructedLambda": "honest",
            "drawnRed": 22,
            "reportedRed": 34,
            "inferredRed": 33,
            "playerTrialScore": -11,
            "oppTrialScore": 11,
            "playerTotalScore": -273,
            "oppTotalScore": 273,
            "waitTime": 5979.777179417036,
            "responseTime": 1678913213074,
            "catchQuestion": "How many <b class=\"r\">red<\/b> marbles did your opponent report drawing? ",
            "catchKey": 34,
            "catchResponse": 34,
            "catchTime": 1678913213074,
            "trialTime": 0
        },
        {
            "exptPart": "trial",
            "trialNumber": 39,
            "roleCurrent": "receiver",
            "marblesSampled": 100,
            "probRed": 0.5,
            "practiceLambda": 5,
            "trialLambda": 8.1,
            "instructedLambda": "honest",
            "drawnRed": 51,
            "reportedRed": 61,
            "inferredRed": 59,
            "playerTrialScore": -8,
            "oppTrialScore": 8,
            "playerTotalScore": -281,
            "oppTotalScore": 281,
            "waitTime": 7404.261476022586,
            "responseTime": 1678913252308,
            "catchQuestion": "How many <b class=\"r\">red<\/b> marbles did your opponent report drawing? ",
            "catchKey": -1,
            "catchResponse": -1,
            "catchTime": 1678913213074,
            "trialTime": 0
        },
        {
            "exptPart": "trial",
            "trialNumber": 40,
            "roleCurrent": "receiver",
            "marblesSampled": 100,
            "probRed": 0.5,
            "practiceLambda": 5,
            "trialLambda": 8.1,
            "instructedLambda": "honest",
            "drawnRed": 40,
            "reportedRed": 51,
            "inferredRed": 53,
            "playerTrialScore": -13,
            "oppTrialScore": 13,
            "playerTotalScore": -294,
            "oppTotalScore": 294,
            "waitTime": 6358.914155983744,
            "responseTime": 1678913264011,
            "catchQuestion": "How many <b class=\"r\">red<\/b> marbles did your opponent report drawing? ",
            "catchKey": -1,
            "catchResponse": -1,
            "catchTime": 1678913264011,
            "trialTime": 0
        },
        {
            "exptPart": "trial",
            "trialNumber": 41,
            "roleCurrent": "receiver",
            "marblesSampled": 100,
            "probRed": 0.5,
            "practiceLambda": 5,
            "trialLambda": 8.1,
            "instructedLambda": "honest",
            "drawnRed": 78,
            "reportedRed": 88,
            "inferredRed": 89,
            "playerTrialScore": -11,
            "oppTrialScore": 11,
            "playerTotalScore": -305,
            "oppTotalScore": 305,
            "waitTime": 5606.114102455518,
            "responseTime": 1678913289226,
            "catchQuestion": "How many <b class=\"r\">red<\/b> marbles did your opponent report drawing? ",
            "catchKey": -1,
            "catchResponse": -1,
            "catchTime": 1678913264011,
            "trialTime": 0
        },
        {
            "exptPart": "trial",
            "trialNumber": 42,
            "roleCurrent": "receiver",
            "marblesSampled": 100,
            "probRed": 0.5,
            "practiceLambda": 5,
            "trialLambda": 8.1,
            "instructedLambda": "honest",
            "drawnRed": 81,
            "reportedRed": 85,
            "inferredRed": 82,
            "playerTrialScore": -1,
            "oppTrialScore": 1,
            "playerTotalScore": -306,
            "oppTotalScore": 306,
            "waitTime": 5567.710309266107,
            "responseTime": 1678913312211,
            "catchQuestion": "How many <b class=\"r\">red<\/b> marbles did your opponent report drawing? ",
            "catchKey": -1,
            "catchResponse": -1,
            "catchTime": 1678913264011,
            "trialTime": 0
        },
        {
            "exptPart": "trial",
            "trialNumber": 43,
            "roleCurrent": "receiver",
            "marblesSampled": 100,
            "probRed": 0.5,
            "practiceLambda": 5,
            "trialLambda": 8.1,
            "instructedLambda": "honest",
            "drawnRed": 35,
            "reportedRed": 43,
            "inferredRed": 46,
            "playerTrialScore": -11,
            "oppTrialScore": 11,
            "playerTotalScore": -317,
            "oppTotalScore": 317,
            "waitTime": 5551.131130665941,
            "responseTime": 1678913336278,
            "catchQuestion": "How many <b class=\"r\">red<\/b> marbles did your opponent report drawing? ",
            "catchKey": -1,
            "catchResponse": -1,
            "catchTime": 1678913264011,
            "trialTime": 0
        },
        {
            "exptPart": "trial",
            "trialNumber": 44,
            "roleCurrent": "receiver",
            "marblesSampled": 100,
            "probRed": 0.5,
            "practiceLambda": 5,
            "trialLambda": 8.1,
            "instructedLambda": "honest",
            "drawnRed": 35,
            "reportedRed": 41,
            "inferredRed": 37,
            "playerTrialScore": -2,
            "oppTrialScore": 2,
            "playerTotalScore": -319,
            "oppTotalScore": 319,
            "waitTime": 5412.621438640407,
            "responseTime": 1678913365887,
            "catchQuestion": "How many <b class=\"r\">red<\/b> marbles did your opponent report drawing? ",
            "catchKey": -1,
            "catchResponse": -1,
            "catchTime": 1678913264011,
            "trialTime": 0
        },
        {
            "exptPart": "trial",
            "trialNumber": 45,
            "roleCurrent": "receiver",
            "marblesSampled": 100,
            "probRed": 0.5,
            "practiceLambda": 5,
            "trialLambda": 8.1,
            "instructedLambda": "honest",
            "drawnRed": 35,
            "reportedRed": 42,
            "inferredRed": 37,
            "playerTrialScore": -2,
            "oppTrialScore": 2,
            "playerTotalScore": -321,
            "oppTotalScore": 321,
            "waitTime": 6073.211509026127,
            "responseTime": 1678913382404,
            "catchQuestion": "How many <b class=\"r\">red<\/b> marbles did your opponent report drawing? ",
            "catchKey": -1,
            "catchResponse": -1,
            "catchTime": 1678913264011,
            "trialTime": 0
        },
        {
            "exptPart": "trial",
            "trialNumber": 46,
            "roleCurrent": "receiver",
            "marblesSampled": 100,
            "probRed": 0.5,
            "practiceLambda": 5,
            "trialLambda": 8.1,
            "instructedLambda": "honest",
            "drawnRed": 63,
            "reportedRed": 75,
            "inferredRed": 72,
            "playerTrialScore": -9,
            "oppTrialScore": 9,
            "playerTotalScore": -330,
            "oppTotalScore": 330,
            "waitTime": 5782.754052904838,
            "responseTime": 1678913418960,
            "catchQuestion": "How many <b class=\"r\">red<\/b> marbles did your opponent report drawing? ",
            "catchKey": -1,
            "catchResponse": -1,
            "catchTime": 1678913264011,
            "trialTime": 0
        },
        {
            "exptPart": "trial",
            "trialNumber": 47,
            "roleCurrent": "receiver",
            "marblesSampled": 100,
            "probRed": 0.5,
            "practiceLambda": 5,
            "trialLambda": 8.1,
            "instructedLambda": "honest",
            "drawnRed": 15,
            "reportedRed": 23,
            "inferredRed": 20,
            "playerTrialScore": -5,
            "oppTrialScore": 5,
            "playerTotalScore": -335,
            "oppTotalScore": 335,
            "waitTime": 5758.9610853688,
            "responseTime": 1678913431105,
            "catchQuestion": "How many <b class=\"r\">red<\/b> marbles did your opponent report drawing? ",
            "catchKey": -1,
            "catchResponse": -1,
            "catchTime": 1678913264011,
            "trialTime": 0
        },
        {
            "exptPart": "trial",
            "trialNumber": 48,
            "roleCurrent": "receiver",
            "marblesSampled": 100,
            "probRed": 0.5,
            "practiceLambda": 5,
            "trialLambda": 8.1,
            "instructedLambda": "honest",
            "drawnRed": 58,
            "reportedRed": 65,
            "inferredRed": 67,
            "playerTrialScore": -9,
            "oppTrialScore": 9,
            "playerTotalScore": -344,
            "oppTotalScore": 344,
            "waitTime": 5241.872738421927,
            "responseTime": 1678913518258,
            "catchQuestion": "How many <b class=\"r\">red<\/b> marbles did your opponent report drawing? ",
            "catchKey": -1,
            "catchResponse": -1,
            "catchTime": 1678913264011,
            "trialTime": 0
        },
        {
            "exptPart": "trial",
            "trialNumber": 49,
            "roleCurrent": "receiver",
            "marblesSampled": 100,
            "probRed": 0.5,
            "practiceLambda": 5,
            "trialLambda": 8.1,
            "instructedLambda": "honest",
            "drawnRed": 59,
            "reportedRed": 69,
            "inferredRed": 65,
            "playerTrialScore": -6,
            "oppTrialScore": 6,
            "playerTotalScore": -350,
            "oppTotalScore": 350,
            "waitTime": 5572.772147248008,
            "responseTime": 1678913530158,
            "catchQuestion": "How many <b class=\"r\">red<\/b> marbles did your opponent report drawing? ",
            "catchKey": -1,
            "catchResponse": -1,
            "catchTime": 1678913264011,
            "trialTime": 0
        },
        {
            "exptPart": "trial",
            "trialNumber": 50,
            "roleCurrent": "receiver",
            "marblesSampled": 100,
            "probRed": 0.5,
            "practiceLambda": 5,
            "trialLambda": 8.1,
            "instructedLambda": "honest",
            "drawnRed": 64,
            "reportedRed": 70,
            "inferredRed": 73,
            "playerTrialScore": -9,
            "oppTrialScore": 9,
            "playerTotalScore": -359,
            "oppTotalScore": 359,
            "waitTime": 5790.570837083982,
            "responseTime": 1678913541102,
            "catchQuestion": "How many <b class=\"r\">red<\/b> marbles did your opponent report drawing? ",
            "catchKey": -1,
            "catchResponse": -1,
            "catchTime": 1678913541102,
            "trialTime": 0
        },
        {
            "exptPart": "trial",
            "trialNumber": 51,
            "roleCurrent": "receiver",
            "marblesSampled": 100,
            "probRed": 0.5,
            "practiceLambda": 5,
            "trialLambda": 8.1,
            "instructedLambda": "honest",
            "drawnRed": 55,
            "reportedRed": 68,
            "inferredRed": 66,
            "playerTrialScore": -11,
            "oppTrialScore": 11,
            "playerTotalScore": -370,
            "oppTotalScore": 370,
            "waitTime": 5330.566674655367,
            "responseTime": 1678913556379,
            "catchQuestion": "How many <b class=\"r\">red<\/b> marbles did your opponent report drawing? ",
            "catchKey": 68,
            "catchResponse": 68,
            "catchTime": 1678913556379,
            "trialTime": 0
        },
        {
            "exptPart": "trial",
            "trialNumber": 52,
            "roleCurrent": "receiver",
            "marblesSampled": 100,
            "probRed": 0.5,
            "practiceLambda": 5,
            "trialLambda": 8.1,
            "instructedLambda": "honest",
            "drawnRed": 63,
            "reportedRed": 72,
            "inferredRed": 71,
            "playerTrialScore": -8,
            "oppTrialScore": 8,
            "playerTotalScore": -378,
            "oppTotalScore": 378,
            "waitTime": 7357.4392154332645,
            "responseTime": 1678913594704,
            "catchQuestion": "How many <b class=\"r\">red<\/b> marbles did your opponent report drawing? ",
            "catchKey": -1,
            "catchResponse": -1,
            "catchTime": 1678913556379,
            "trialTime": 0
        },
        {
            "exptPart": "trial",
            "trialNumber": 53,
            "roleCurrent": "receiver",
            "marblesSampled": 100,
            "probRed": 0.5,
            "practiceLambda": 5,
            "trialLambda": 8.1,
            "instructedLambda": "honest",
            "drawnRed": 32,
            "reportedRed": 41,
            "inferredRed": 43,
            "playerTrialScore": -11,
            "oppTrialScore": 11,
            "playerTotalScore": -389,
            "oppTotalScore": 389,
            "waitTime": 6868.293733706605,
            "responseTime": 1678913608486,
            "catchQuestion": "How many <b class=\"r\">red<\/b> marbles did your opponent report drawing? ",
            "catchKey": -1,
            "catchResponse": -1,
            "catchTime": 1678913556379,
            "trialTime": 0
        },
        {
            "exptPart": "trial",
            "trialNumber": 54,
            "roleCurrent": "receiver",
            "marblesSampled": 100,
            "probRed": 0.5,
            "practiceLambda": 5,
            "trialLambda": 8.1,
            "instructedLambda": "honest",
            "drawnRed": 36,
            "reportedRed": 44,
            "inferredRed": 41,
            "playerTrialScore": -5,
            "oppTrialScore": 5,
            "playerTotalScore": -394,
            "oppTotalScore": 394,
            "waitTime": 5202.2233889090185,
            "responseTime": 1678913620525,
            "catchQuestion": "How many <b class=\"r\">red<\/b> marbles did your opponent report drawing? ",
            "catchKey": -1,
            "catchResponse": -1,
            "catchTime": 1678913556379,
            "trialTime": 0
        },
        {
            "exptPart": "trial",
            "trialNumber": 55,
            "roleCurrent": "receiver",
            "marblesSampled": 100,
            "probRed": 0.5,
            "practiceLambda": 5,
            "trialLambda": 8.1,
            "instructedLambda": "honest",
            "drawnRed": 14,
            "reportedRed": 22,
            "inferredRed": 27,
            "playerTrialScore": -13,
            "oppTrialScore": 13,
            "playerTotalScore": -407,
            "oppTotalScore": 407,
            "waitTime": 6739.426307149725,
            "responseTime": 1678913637092,
            "catchQuestion": "How many <b class=\"r\">red<\/b> marbles did your opponent report drawing? ",
            "catchKey": -1,
            "catchResponse": -1,
            "catchTime": 1678913556379,
            "trialTime": 0
        },
        {
            "exptPart": "trial",
            "trialNumber": 56,
            "roleCurrent": "receiver",
            "marblesSampled": 100,
            "probRed": 0.5,
            "practiceLambda": 5,
            "trialLambda": 8.1,
            "instructedLambda": "honest",
            "drawnRed": 35,
            "reportedRed": 42,
            "inferredRed": 40,
            "playerTrialScore": -5,
            "oppTrialScore": 5,
            "playerTotalScore": -412,
            "oppTotalScore": 412,
            "waitTime": 6058.566771056818,
            "responseTime": 1678913657165,
            "catchQuestion": "How many <b class=\"r\">red<\/b> marbles did your opponent report drawing? ",
            "catchKey": -1,
            "catchResponse": -1,
            "catchTime": 1678913556379,
            "trialTime": 0
        },
        {
            "exptPart": "trial",
            "trialNumber": 57,
            "roleCurrent": "receiver",
            "marblesSampled": 100,
            "probRed": 0.5,
            "practiceLambda": 5,
            "trialLambda": 8.1,
            "instructedLambda": "honest",
            "drawnRed": 55,
            "reportedRed": 66,
            "inferredRed": 63,
            "playerTrialScore": -8,
            "oppTrialScore": 8,
            "playerTotalScore": -420,
            "oppTotalScore": 420,
            "waitTime": 6102.643867808265,
            "responseTime": 1678913678198,
            "catchQuestion": "How many <b class=\"r\">red<\/b> marbles did your opponent report drawing? ",
            "catchKey": -1,
            "catchResponse": -1,
            "catchTime": 1678913556379,
            "trialTime": 0
        },
        {
            "exptPart": "trial",
            "trialNumber": 58,
            "roleCurrent": "receiver",
            "marblesSampled": 100,
            "probRed": 0.5,
            "practiceLambda": 5,
            "trialLambda": 8.1,
            "instructedLambda": "honest",
            "drawnRed": 40,
            "reportedRed": 49,
            "inferredRed": 45,
            "playerTrialScore": -5,
            "oppTrialScore": 5,
            "playerTotalScore": -425,
            "oppTotalScore": 425,
            "waitTime": 5681.642158834161,
            "responseTime": 1678913693976,
            "catchQuestion": "How many <b class=\"r\">red<\/b> marbles did your opponent report drawing? ",
            "catchKey": -1,
            "catchResponse": -1,
            "catchTime": 1678913556379,
            "trialTime": 0
        },
        {
            "exptPart": "trial",
            "trialNumber": 59,
            "roleCurrent": "receiver",
            "marblesSampled": 100,
            "probRed": 0.5,
            "practiceLambda": 5,
            "trialLambda": 8.1,
            "instructedLambda": "honest",
            "drawnRed": 62,
            "reportedRed": 72,
            "inferredRed": 71,
            "playerTrialScore": -9,
            "oppTrialScore": 9,
            "playerTotalScore": -434,
            "oppTotalScore": 434,
            "waitTime": 6821.234620426079,
            "responseTime": 1678913718969,
            "catchQuestion": "How many <b class=\"r\">red<\/b> marbles did your opponent report drawing? ",
            "catchKey": -1,
            "catchResponse": -1,
            "catchTime": 1678913556379,
            "trialTime": 0
        },
        {
            "exptPart": "trial",
            "trialNumber": 60,
            "roleCurrent": "receiver",
            "marblesSampled": 100,
            "probRed": 0.5,
            "practiceLambda": 5,
            "trialLambda": 8.1,
            "instructedLambda": "honest",
            "drawnRed": 50,
            "reportedRed": 61,
            "inferredRed": 65,
            "playerTrialScore": -15,
            "oppTrialScore": 15,
            "playerTotalScore": -449,
            "oppTotalScore": 449,
            "waitTime": 6321.097735280616,
            "responseTime": 1678913731175,
            "catchQuestion": "How many <b class=\"r\">red<\/b> marbles did your opponent report drawing? ",
            "catchKey": -1,
            "catchResponse": -1,
            "catchTime": 1678913731175,
            "trialTime": 0
        },
        {
            "exptPart": "trial",
            "trialNumber": 61,
            "roleCurrent": "receiver",
            "marblesSampled": 100,
            "probRed": 0.5,
            "practiceLambda": 5,
            "trialLambda": 8.1,
            "instructedLambda": "honest",
            "drawnRed": 39,
            "reportedRed": 44,
            "inferredRed": 38,
            "playerTrialScore": -1,
            "oppTrialScore": 0,
            "playerTotalScore": -450,
            "oppTotalScore": 449,
            "waitTime": 6796.49105967212,
            "responseTime": 1678913754443,
            "catchQuestion": "How many <b class=\"r\">red<\/b> marbles did your opponent report drawing? ",
            "catchKey": -1,
            "catchResponse": -1,
            "catchTime": 1678913731175,
            "trialTime": 0
        },
        {
            "exptPart": "trial",
            "trialNumber": 62,
            "roleCurrent": "receiver",
            "marblesSampled": 100,
            "probRed": 0.5,
            "practiceLambda": 5,
            "trialLambda": 8.1,
            "instructedLambda": "honest",
            "drawnRed": 43,
            "reportedRed": 47,
            "inferredRed": 50,
            "playerTrialScore": -7,
            "oppTrialScore": 7,
            "playerTotalScore": -457,
            "oppTotalScore": 456,
            "waitTime": 6883.113656340714,
            "responseTime": 1678913768550,
            "catchQuestion": "How many <b class=\"r\">red<\/b> marbles did your opponent report drawing? ",
            "catchKey": -1,
            "catchResponse": -1,
            "catchTime": 1678913731175,
            "trialTime": 0
        },
        {
            "exptPart": "trial",
            "trialNumber": 63,
            "roleCurrent": "receiver",
            "marblesSampled": 100,
            "probRed": 0.5,
            "practiceLambda": 5,
            "trialLambda": 8.1,
            "instructedLambda": "honest",
            "drawnRed": 43,
            "reportedRed": 50,
            "inferredRed": 45,
            "playerTrialScore": -2,
            "oppTrialScore": 2,
            "playerTotalScore": -459,
            "oppTotalScore": 458,
            "waitTime": 5629.981691586065,
            "responseTime": 1678913780212,
            "catchQuestion": "How many <b class=\"r\">red<\/b> marbles did your opponent report drawing? ",
            "catchKey": -1,
            "catchResponse": -1,
            "catchTime": 1678913731175,
            "trialTime": 0
        },
        {
            "exptPart": "trial",
            "trialNumber": 64,
            "roleCurrent": "receiver",
            "marblesSampled": 100,
            "probRed": 0.5,
            "practiceLambda": 5,
            "trialLambda": 8.1,
            "instructedLambda": "honest",
            "drawnRed": 38,
            "reportedRed": 47,
            "inferredRed": 41,
            "playerTrialScore": -3,
            "oppTrialScore": 3,
            "playerTotalScore": -462,
            "oppTotalScore": 461,
            "waitTime": 7113.242447173912,
            "responseTime": 1678913799244,
            "catchQuestion": "How many <b class=\"r\">red<\/b> marbles did your opponent report drawing? ",
            "catchKey": -1,
            "catchResponse": -1,
            "catchTime": 1678913731175,
            "trialTime": 0
        },
        {
            "exptPart": "trial",
            "trialNumber": 65,
            "roleCurrent": "receiver",
            "marblesSampled": 100,
            "probRed": 0.5,
            "practiceLambda": 5,
            "trialLambda": 8.1,
            "instructedLambda": "honest",
            "drawnRed": 88,
            "reportedRed": 93,
            "inferredRed": 91,
            "playerTrialScore": -3,
            "oppTrialScore": 3,
            "playerTotalScore": -465,
            "oppTotalScore": 464,
            "waitTime": 6853.446011827486,
            "responseTime": 1678913827593,
            "catchQuestion": "How many <b class=\"r\">red<\/b> marbles did your opponent report drawing? ",
            "catchKey": -1,
            "catchResponse": -1,
            "catchTime": 1678913731175,
            "trialTime": 0
        },
        {
            "exptPart": "trial",
            "trialNumber": 66,
            "roleCurrent": "receiver",
            "marblesSampled": 100,
            "probRed": 0.5,
            "practiceLambda": 5,
            "trialLambda": 8.1,
            "instructedLambda": "honest",
            "drawnRed": 46,
            "reportedRed": 57,
            "inferredRed": 50,
            "playerTrialScore": -4,
            "oppTrialScore": 4,
            "playerTotalScore": -469,
            "oppTotalScore": 468,
            "waitTime": 6161.993367654078,
            "responseTime": 1678913840287,
            "catchQuestion": "How many <b class=\"r\">red<\/b> marbles did your opponent report drawing? ",
            "catchKey": -1,
            "catchResponse": -1,
            "catchTime": 1678913731175,
            "trialTime": 0
        },
        {
            "exptPart": "trial",
            "trialNumber": 67,
            "roleCurrent": "receiver",
            "marblesSampled": 100,
            "probRed": 0.5,
            "practiceLambda": 5,
            "trialLambda": 8.1,
            "instructedLambda": "honest",
            "drawnRed": 62,
            "reportedRed": 64,
            "inferredRed": 66,
            "playerTrialScore": -4,
            "oppTrialScore": 4,
            "playerTotalScore": -473,
            "oppTotalScore": 472,
            "waitTime": 5162.5874295140475,
            "responseTime": 1678913853895,
            "catchQuestion": "How many <b class=\"r\">red<\/b> marbles did your opponent report drawing? ",
            "catchKey": -1,
            "catchResponse": -1,
            "catchTime": 1678913731175,
            "trialTime": 0
        },
        {
            "exptPart": "trial",
            "trialNumber": 68,
            "roleCurrent": "receiver",
            "marblesSampled": 100,
            "probRed": 0.5,
            "practiceLambda": 5,
            "trialLambda": 8.1,
            "instructedLambda": "honest",
            "drawnRed": 72,
            "reportedRed": 76,
            "inferredRed": 69,
            "playerTrialScore": -3,
            "oppTrialScore": 0,
            "playerTotalScore": -476,
            "oppTotalScore": 472,
            "waitTime": 6239.5909025903875,
            "responseTime": 1678913870887,
            "catchQuestion": "How many <b class=\"r\">red<\/b> marbles did your opponent report drawing? ",
            "catchKey": -1,
            "catchResponse": -1,
            "catchTime": 1678913731175,
            "trialTime": 0
        },
        {
            "exptPart": "trial",
            "trialNumber": 69,
            "roleCurrent": "receiver",
            "marblesSampled": 100,
            "probRed": 0.5,
            "practiceLambda": 5,
            "trialLambda": 8.1,
            "instructedLambda": "honest",
            "drawnRed": 22,
            "reportedRed": 30,
            "inferredRed": 25,
            "playerTrialScore": -3,
            "oppTrialScore": 3,
            "playerTotalScore": -479,
            "oppTotalScore": 475,
            "waitTime": 5271.2168552907515,
            "responseTime": 1678913883735,
            "catchQuestion": "How many <b class=\"r\">red<\/b> marbles did your opponent report drawing? ",
            "catchKey": -1,
            "catchResponse": -1,
            "catchTime": 1678913731175,
            "trialTime": 0
        },
        {
            "exptPart": "trial",
            "trialNumber": 70,
            "roleCurrent": "receiver",
            "marblesSampled": 100,
            "probRed": 0.5,
            "practiceLambda": 5,
            "trialLambda": 8.1,
            "instructedLambda": "honest",
            "drawnRed": 78,
            "reportedRed": 81,
            "inferredRed": 76,
            "playerTrialScore": -2,
            "oppTrialScore": 0,
            "playerTotalScore": -481,
            "oppTotalScore": 475,
            "waitTime": 5244.369605637798,
            "responseTime": 1678913895700,
            "catchQuestion": "How many <b class=\"r\">red<\/b> marbles did your opponent report drawing? ",
            "catchKey": -1,
            "catchResponse": -1,
            "catchTime": 1678913895700,
            "trialTime": 0
        },
        {
            "exptPart": "trial",
            "trialNumber": 71,
            "roleCurrent": "receiver",
            "marblesSampled": 100,
            "probRed": 0.5,
            "practiceLambda": 5,
            "trialLambda": 8.1,
            "instructedLambda": "honest",
            "drawnRed": 31,
            "reportedRed": 39,
            "inferredRed": 35,
            "playerTrialScore": -4,
            "oppTrialScore": 4,
            "playerTotalScore": -485,
            "oppTotalScore": 479,
            "waitTime": 5466.112107801327,
            "responseTime": 1678913921359,
            "catchQuestion": "How many <b class=\"r\">red<\/b> marbles did your opponent report drawing? ",
            "catchKey": -1,
            "catchResponse": -1,
            "catchTime": 1678913895700,
            "trialTime": 0
        },
        {
            "exptPart": "trial",
            "trialNumber": 72,
            "roleCurrent": "receiver",
            "marblesSampled": 100,
            "probRed": 0.5,
            "practiceLambda": 5,
            "trialLambda": 8.1,
            "instructedLambda": "honest",
            "drawnRed": 59,
            "reportedRed": 64,
            "inferredRed": 67,
            "playerTrialScore": -8,
            "oppTrialScore": 8,
            "playerTotalScore": -493,
            "oppTotalScore": 487,
            "waitTime": 5574.069217069527,
            "responseTime": 1678913931853,
            "catchQuestion": "How many <b class=\"r\">red<\/b> marbles did your opponent report drawing? ",
            "catchKey": -1,
            "catchResponse": -1,
            "catchTime": 1678913895700,
            "trialTime": 0
        },
        {
            "exptPart": "trial",
            "trialNumber": 73,
            "roleCurrent": "receiver",
            "marblesSampled": 100,
            "probRed": 0.5,
            "practiceLambda": 5,
            "trialLambda": 8.1,
            "instructedLambda": "honest",
            "drawnRed": 36,
            "reportedRed": 42,
            "inferredRed": 45,
            "playerTrialScore": -9,
            "oppTrialScore": 9,
            "playerTotalScore": -502,
            "oppTotalScore": 496,
            "waitTime": 6822.2996672252475,
            "responseTime": 1678913944648,
            "catchQuestion": "How many <b class=\"r\">red<\/b> marbles did your opponent report drawing? ",
            "catchKey": -1,
            "catchResponse": -1,
            "catchTime": 1678913895700,
            "trialTime": 0
        },
        {
            "exptPart": "trial",
            "trialNumber": 74,
            "roleCurrent": "receiver",
            "marblesSampled": 100,
            "probRed": 0.5,
            "practiceLambda": 5,
            "trialLambda": 8.1,
            "instructedLambda": "honest",
            "drawnRed": 33,
            "reportedRed": 42,
            "inferredRed": 39,
            "playerTrialScore": -6,
            "oppTrialScore": 6,
            "playerTotalScore": -508,
            "oppTotalScore": 502,
            "waitTime": 7394.75854664932,
            "responseTime": 1678913958761,
            "catchQuestion": "How many <b class=\"r\">red<\/b> marbles did your opponent report drawing? ",
            "catchKey": -1,
            "catchResponse": -1,
            "catchTime": 1678913895700,
            "trialTime": 0
        },
        {
            "exptPart": "trial",
            "trialNumber": 75,
            "roleCurrent": "receiver",
            "marblesSampled": 100,
            "probRed": 0.5,
            "practiceLambda": 5,
            "trialLambda": 8.1,
            "instructedLambda": "honest",
            "drawnRed": 58,
            "reportedRed": 64,
            "inferredRed": 60,
            "playerTrialScore": -2,
            "oppTrialScore": 2,
            "playerTotalScore": -510,
            "oppTotalScore": 504,
            "waitTime": 5737.887594254388,
            "responseTime": 1678913978087,
            "catchQuestion": "How many <b class=\"r\">red<\/b> marbles did your opponent report drawing? ",
            "catchKey": -1,
            "catchResponse": -1,
            "catchTime": 1678913895700,
            "trialTime": 0
        },
        {
            "exptPart": "trial",
            "trialNumber": 76,
            "roleCurrent": "receiver",
            "marblesSampled": 100,
            "probRed": 0.5,
            "practiceLambda": 5,
            "trialLambda": 8.1,
            "instructedLambda": "honest",
            "drawnRed": 33,
            "reportedRed": 38,
            "inferredRed": 35,
            "playerTrialScore": -2,
            "oppTrialScore": 2,
            "playerTotalScore": -512,
            "oppTotalScore": 506,
            "waitTime": 5713.176254392014,
            "responseTime": 1678914017552,
            "catchQuestion": "How many <b class=\"r\">red<\/b> marbles did your opponent report drawing? ",
            "catchKey": -1,
            "catchResponse": -1,
            "catchTime": 1678913895700,
            "trialTime": 0
        },
        {
            "exptPart": "trial",
            "trialNumber": 77,
            "roleCurrent": "receiver",
            "marblesSampled": 100,
            "probRed": 0.5,
            "practiceLambda": 5,
            "trialLambda": 8.1,
            "instructedLambda": "honest",
            "drawnRed": 59,
            "reportedRed": 68,
            "inferredRed": 64,
            "playerTrialScore": -5,
            "oppTrialScore": 5,
            "playerTotalScore": -517,
            "oppTotalScore": 511,
            "waitTime": 5944.259568442525,
            "responseTime": 1678914158512,
            "catchQuestion": "How many <b class=\"r\">red<\/b> marbles did your opponent report drawing? ",
            "catchKey": -1,
            "catchResponse": -1,
            "catchTime": 1678913895700,
            "trialTime": 0
        },
        {
            "exptPart": "trial",
            "trialNumber": 78,
            "roleCurrent": "receiver",
            "marblesSampled": 100,
            "probRed": 0.5,
            "practiceLambda": 5,
            "trialLambda": 8.1,
            "instructedLambda": "honest",
            "drawnRed": 49,
            "reportedRed": 55,
            "inferredRed": 51,
            "playerTrialScore": -2,
            "oppTrialScore": 2,
            "playerTotalScore": -519,
            "oppTotalScore": 513,
            "waitTime": 6024.936545058576,
            "responseTime": 1678914174360,
            "catchQuestion": "How many <b class=\"r\">red<\/b> marbles did your opponent report drawing? ",
            "catchKey": -1,
            "catchResponse": -1,
            "catchTime": 1678913895700,
            "trialTime": 0
        },
        {
            "exptPart": "trial",
            "trialNumber": 79,
            "roleCurrent": "receiver",
            "marblesSampled": 100,
            "probRed": 0.5,
            "practiceLambda": 5,
            "trialLambda": 8.1,
            "instructedLambda": "honest",
            "drawnRed": 63,
            "reportedRed": 70,
            "inferredRed": 64,
            "playerTrialScore": -1,
            "oppTrialScore": 1,
            "playerTotalScore": -520,
            "oppTotalScore": 514,
            "waitTime": 5242.091962920985,
            "responseTime": 1678914191461,
            "catchQuestion": "How many <b class=\"r\">red<\/b> marbles did your opponent report drawing? ",
            "catchKey": -1,
            "catchResponse": -1,
            "catchTime": 1678913895700,
            "trialTime": 0
        },
        {
            "exptPart": "trial",
            "trialNumber": 80,
            "roleCurrent": "receiver",
            "marblesSampled": 100,
            "probRed": 0.5,
            "practiceLambda": 5,
            "trialLambda": 8.1,
            "instructedLambda": "honest",
            "drawnRed": 86,
            "reportedRed": 94,
            "inferredRed": 92,
            "playerTrialScore": -6,
            "oppTrialScore": 6,
            "playerTotalScore": -526,
            "oppTotalScore": 520,
            "waitTime": 6821.16549307429,
            "responseTime": 1678914207035,
            "catchQuestion": "How many <b class=\"r\">red<\/b> marbles did your opponent report drawing? ",
            "catchKey": -1,
            "catchResponse": -1,
            "catchTime": 1678914207035,
            "trialTime": 0
        },
        {
            "exptPart": "trial",
            "trialNumber": 81,
            "roleCurrent": "receiver",
            "marblesSampled": 100,
            "probRed": 0.5,
            "practiceLambda": 5,
            "trialLambda": 8.1,
            "instructedLambda": "honest",
            "drawnRed": 67,
            "reportedRed": 82,
            "inferredRed": 79,
            "playerTrialScore": -12,
            "oppTrialScore": 12,
            "playerTotalScore": -538,
            "oppTotalScore": 532,
            "waitTime": 6755.856885626463,
            "responseTime": 1678914227077,
            "catchQuestion": "How many <b class=\"r\">red<\/b> marbles did your opponent report drawing? ",
            "catchKey": -1,
            "catchResponse": -1,
            "catchTime": 1678914207035,
            "trialTime": 0
        },
        {
            "exptPart": "trial",
            "trialNumber": 82,
            "roleCurrent": "receiver",
            "marblesSampled": 100,
            "probRed": 0.5,
            "practiceLambda": 5,
            "trialLambda": 8.1,
            "instructedLambda": "honest",
            "drawnRed": 29,
            "reportedRed": 39,
            "inferredRed": 34,
            "playerTrialScore": -5,
            "oppTrialScore": 5,
            "playerTotalScore": -543,
            "oppTotalScore": 537,
            "waitTime": 6259.2455183511265,
            "responseTime": 1678914242375,
            "catchQuestion": "How many <b class=\"r\">red<\/b> marbles did your opponent report drawing? ",
            "catchKey": -1,
            "catchResponse": -1,
            "catchTime": 1678914207035,
            "trialTime": 0
        },
        {
            "exptPart": "trial",
            "trialNumber": 83,
            "roleCurrent": "receiver",
            "marblesSampled": 100,
            "probRed": 0.5,
            "practiceLambda": 5,
            "trialLambda": 8.1,
            "instructedLambda": "honest",
            "drawnRed": 38,
            "reportedRed": 45,
            "inferredRed": 41,
            "playerTrialScore": -3,
            "oppTrialScore": 3,
            "playerTotalScore": -546,
            "oppTotalScore": 540,
            "waitTime": 5352.736620331025,
            "responseTime": 1678914260259,
            "catchQuestion": "How many <b class=\"r\">red<\/b> marbles did your opponent report drawing? ",
            "catchKey": -1,
            "catchResponse": -1,
            "catchTime": 1678914207035,
            "trialTime": 0
        },
        {
            "exptPart": "trial",
            "trialNumber": 84,
            "roleCurrent": "receiver",
            "marblesSampled": 100,
            "probRed": 0.5,
            "practiceLambda": 5,
            "trialLambda": 8.1,
            "instructedLambda": "honest",
            "drawnRed": 61,
            "reportedRed": 69,
            "inferredRed": 65,
            "playerTrialScore": -4,
            "oppTrialScore": 4,
            "playerTotalScore": -550,
            "oppTotalScore": 544,
            "waitTime": 5784.45422405785,
            "responseTime": 1678914278274,
            "catchQuestion": "How many <b class=\"r\">red<\/b> marbles did your opponent report drawing? ",
            "catchKey": -1,
            "catchResponse": -1,
            "catchTime": 1678914207035,
            "trialTime": 0
        },
        {
            "exptPart": "trial",
            "trialNumber": 85,
            "roleCurrent": "receiver",
            "marblesSampled": 100,
            "probRed": 0.5,
            "practiceLambda": 5,
            "trialLambda": 8.1,
            "instructedLambda": "honest",
            "drawnRed": 43,
            "reportedRed": 50,
            "inferredRed": 46,
            "playerTrialScore": -3,
            "oppTrialScore": 3,
            "playerTotalScore": -553,
            "oppTotalScore": 547,
            "waitTime": 5879.169021197917,
            "responseTime": 1678914291124,
            "catchQuestion": "How many <b class=\"r\">red<\/b> marbles did your opponent report drawing? ",
            "catchKey": -1,
            "catchResponse": -1,
            "catchTime": 1678914207035,
            "trialTime": 0
        },
        {
            "exptPart": "trial",
            "trialNumber": 86,
            "roleCurrent": "receiver",
            "marblesSampled": 100,
            "probRed": 0.5,
            "practiceLambda": 5,
            "trialLambda": 8.1,
            "instructedLambda": "honest",
            "drawnRed": 56,
            "reportedRed": 67,
            "inferredRed": 69,
            "playerTrialScore": -13,
            "oppTrialScore": 13,
            "playerTotalScore": -566,
            "oppTotalScore": 560,
            "waitTime": 5590.647915176001,
            "responseTime": 1678914309976,
            "catchQuestion": "How many <b class=\"r\">red<\/b> marbles did your opponent report drawing? ",
            "catchKey": -1,
            "catchResponse": -1,
            "catchTime": 1678914207035,
            "trialTime": 0
        },
        {
            "exptPart": "trial",
            "trialNumber": 87,
            "roleCurrent": "receiver",
            "marblesSampled": 100,
            "probRed": 0.5,
            "practiceLambda": 5,
            "trialLambda": 8.1,
            "instructedLambda": "honest",
            "drawnRed": 67,
            "reportedRed": 74,
            "inferredRed": 76,
            "playerTrialScore": -9,
            "oppTrialScore": 9,
            "playerTotalScore": -575,
            "oppTotalScore": 569,
            "waitTime": 7223.897368133642,
            "responseTime": 1678914328389,
            "catchQuestion": "How many <b class=\"r\">red<\/b> marbles did your opponent report drawing? ",
            "catchKey": -1,
            "catchResponse": -1,
            "catchTime": 1678914207035,
            "trialTime": 0
        },
        {
            "exptPart": "trial",
            "trialNumber": 88,
            "roleCurrent": "receiver",
            "marblesSampled": 100,
            "probRed": 0.5,
            "practiceLambda": 5,
            "trialLambda": 8.1,
            "instructedLambda": "honest",
            "drawnRed": 9,
            "reportedRed": 20,
            "inferredRed": 15,
            "playerTrialScore": -6,
            "oppTrialScore": 6,
            "playerTotalScore": -581,
            "oppTotalScore": 575,
            "waitTime": 6263.213027891768,
            "responseTime": 1678914344037,
            "catchQuestion": "How many <b class=\"r\">red<\/b> marbles did your opponent report drawing? ",
            "catchKey": -1,
            "catchResponse": -1,
            "catchTime": 1678914207035,
            "trialTime": 0
        },
        {
            "exptPart": "trial",
            "trialNumber": 89,
            "roleCurrent": "receiver",
            "marblesSampled": 100,
            "probRed": 0.5,
            "practiceLambda": 5,
            "trialLambda": 8.1,
            "instructedLambda": "honest",
            "drawnRed": 15,
            "reportedRed": 21,
            "inferredRed": 23,
            "playerTrialScore": -8,
            "oppTrialScore": 8,
            "playerTotalScore": -589,
            "oppTotalScore": 583,
            "waitTime": 7081.012346751399,
            "responseTime": 1678914360366,
            "catchQuestion": "How many <b class=\"r\">red<\/b> marbles did your opponent report drawing? ",
            "catchKey": -1,
            "catchResponse": -1,
            "catchTime": 1678914207035,
            "trialTime": 0
        },
        {
            "exptPart": "trial",
            "trialNumber": 90,
            "roleCurrent": "receiver",
            "marblesSampled": 100,
            "probRed": 0.5,
            "practiceLambda": 5,
            "trialLambda": 8.1,
            "instructedLambda": "honest",
            "drawnRed": 33,
            "reportedRed": 37,
            "inferredRed": 33,
            "playerTrialScore": 0,
            "oppTrialScore": 0,
            "playerTotalScore": -589,
            "oppTotalScore": 583,
            "waitTime": 7008.1546871126575,
            "responseTime": 1678914375524,
            "catchQuestion": "How many <b class=\"r\">red<\/b> marbles did your opponent report drawing? ",
            "catchKey": -1,
            "catchResponse": -1,
            "catchTime": 1678914375524,
            "trialTime": 0
        },
        {
            "exptPart": "trial",
            "trialNumber": 91,
            "roleCurrent": "receiver",
            "marblesSampled": 100,
            "probRed": 0.5,
            "practiceLambda": 5,
            "trialLambda": 8.1,
            "instructedLambda": "honest",
            "drawnRed": 29,
            "reportedRed": 36,
            "inferredRed": 32,
            "playerTrialScore": -3,
            "oppTrialScore": 3,
            "playerTotalScore": -592,
            "oppTotalScore": 586,
            "waitTime": 5859.158805818455,
            "responseTime": 1678914390881,
            "catchQuestion": "How many <b class=\"r\">red<\/b> marbles did your opponent report drawing? ",
            "catchKey": -1,
            "catchResponse": -1,
            "catchTime": 1678914375524,
            "trialTime": 0
        },
        {
            "exptPart": "trial",
            "trialNumber": 92,
            "roleCurrent": "receiver",
            "marblesSampled": 100,
            "probRed": 0.5,
            "practiceLambda": 5,
            "trialLambda": 8.1,
            "instructedLambda": "honest",
            "drawnRed": 90,
            "reportedRed": 96,
            "inferredRed": 89,
            "playerTrialScore": -1,
            "oppTrialScore": 0,
            "playerTotalScore": -593,
            "oppTotalScore": 586,
            "waitTime": 5757.637062187372,
            "responseTime": 1678914407610,
            "catchQuestion": "How many <b class=\"r\">red<\/b> marbles did your opponent report drawing? ",
            "catchKey": -1,
            "catchResponse": -1,
            "catchTime": 1678914375524,
            "trialTime": 0
        },
        {
            "exptPart": "trial",
            "trialNumber": 93,
            "roleCurrent": "receiver",
            "marblesSampled": 100,
            "probRed": 0.5,
            "practiceLambda": 5,
            "trialLambda": 8.1,
            "instructedLambda": "honest",
            "drawnRed": 41,
            "reportedRed": 47,
            "inferredRed": 42,
            "playerTrialScore": -1,
            "oppTrialScore": 1,
            "playerTotalScore": -594,
            "oppTotalScore": 587,
            "waitTime": 5216.246680529015,
            "responseTime": 1678914419338,
            "catchQuestion": "How many <b class=\"r\">red<\/b> marbles did your opponent report drawing? ",
            "catchKey": -1,
            "catchResponse": -1,
            "catchTime": 1678914375524,
            "trialTime": 0
        },
        {
            "exptPart": "trial",
            "trialNumber": 94,
            "roleCurrent": "receiver",
            "marblesSampled": 100,
            "probRed": 0.5,
            "practiceLambda": 5,
            "trialLambda": 8.1,
            "instructedLambda": "honest",
            "drawnRed": 38,
            "reportedRed": 43,
            "inferredRed": 40,
            "playerTrialScore": -2,
            "oppTrialScore": 2,
            "playerTotalScore": -596,
            "oppTotalScore": 589,
            "waitTime": 5903.796283561613,
            "responseTime": 1678914435204,
            "catchQuestion": "How many <b class=\"r\">red<\/b> marbles did your opponent report drawing? ",
            "catchKey": -1,
            "catchResponse": -1,
            "catchTime": 1678914375524,
            "trialTime": 0
        },
        {
            "exptPart": "trial",
            "trialNumber": 95,
            "roleCurrent": "receiver",
            "marblesSampled": 100,
            "probRed": 0.5,
            "practiceLambda": 5,
            "trialLambda": 8.1,
            "instructedLambda": "honest",
            "drawnRed": 42,
            "reportedRed": 49,
            "inferredRed": 51,
            "playerTrialScore": -9,
            "oppTrialScore": 9,
            "playerTotalScore": -605,
            "oppTotalScore": 598,
            "waitTime": 5661.248101084568,
            "responseTime": 1678914448399,
            "catchQuestion": "How many <b class=\"r\">red<\/b> marbles did your opponent report drawing? ",
            "catchKey": -1,
            "catchResponse": -1,
            "catchTime": 1678914375524,
            "trialTime": 0
        },
        {
            "exptPart": "trial",
            "trialNumber": 96,
            "roleCurrent": "receiver",
            "marblesSampled": 100,
            "probRed": 0.5,
            "practiceLambda": 5,
            "trialLambda": 8.1,
            "instructedLambda": "honest",
            "drawnRed": 30,
            "reportedRed": 45,
            "inferredRed": 44,
            "playerTrialScore": -14,
            "oppTrialScore": 14,
            "playerTotalScore": -619,
            "oppTotalScore": 612,
            "waitTime": 6723.936597892096,
            "responseTime": 1678914462765,
            "catchQuestion": "How many <b class=\"r\">red<\/b> marbles did your opponent report drawing? ",
            "catchKey": 45,
            "catchResponse": 45,
            "catchTime": 1678914462765,
            "trialTime": 0
        },
        {
            "exptPart": "trial",
            "trialNumber": 97,
            "roleCurrent": "receiver",
            "marblesSampled": 100,
            "probRed": 0.5,
            "practiceLambda": 5,
            "trialLambda": 8.1,
            "instructedLambda": "honest",
            "drawnRed": 79,
            "reportedRed": 89,
            "inferredRed": 76,
            "playerTrialScore": -3,
            "oppTrialScore": 0,
            "playerTotalScore": -622,
            "oppTotalScore": 612,
            "waitTime": 5874.069834606302,
            "responseTime": 1678914495120,
            "catchQuestion": "How many <b class=\"r\">red<\/b> marbles did your opponent report drawing? ",
            "catchKey": -1,
            "catchResponse": -1,
            "catchTime": 1678914462765,
            "trialTime": 0
        },
        {
            "exptPart": "trial",
            "trialNumber": 98,
            "roleCurrent": "receiver",
            "marblesSampled": 100,
            "probRed": 0.5,
            "practiceLambda": 5,
            "trialLambda": 8.1,
            "instructedLambda": "honest",
            "drawnRed": 63,
            "reportedRed": 68,
            "inferredRed": 65,
            "playerTrialScore": -2,
            "oppTrialScore": 2,
            "playerTotalScore": -624,
            "oppTotalScore": 614,
            "waitTime": 6256.231362069541,
            "responseTime": 1678914506781,
            "catchQuestion": "How many <b class=\"r\">red<\/b> marbles did your opponent report drawing? ",
            "catchKey": -1,
            "catchResponse": -1,
            "catchTime": 1678914462765,
            "trialTime": 0
        },
        {
            "exptPart": "trial",
            "trialNumber": 99,
            "roleCurrent": "receiver",
            "marblesSampled": 100,
            "probRed": 0.5,
            "practiceLambda": 5,
            "trialLambda": 8.1,
            "instructedLambda": "honest",
            "drawnRed": 44,
            "reportedRed": 54,
            "inferredRed": 57,
            "playerTrialScore": -13,
            "oppTrialScore": 13,
            "playerTotalScore": -637,
            "oppTotalScore": 627,
            "waitTime": 6059.190990111771,
            "responseTime": 1678914520843,
            "catchQuestion": "How many <b class=\"r\">red<\/b> marbles did your opponent report drawing? ",
            "catchKey": -1,
            "catchResponse": -1,
            "catchTime": 1678914462765,
            "trialTime": 0
        },
        {
            "exptPart": "trial",
            "trialNumber": 100,
            "roleCurrent": "receiver",
            "marblesSampled": 100,
            "probRed": 0.5,
            "practiceLambda": 5,
            "trialLambda": 8.1,
            "instructedLambda": "honest",
            "drawnRed": 26,
            "reportedRed": 36,
            "inferredRed": 33,
            "playerTrialScore": -7,
            "oppTrialScore": 7,
            "playerTotalScore": -644,
            "oppTotalScore": 634,
            "waitTime": 5343.842748294423,
            "responseTime": 1678914537919,
            "catchQuestion": "How many <b class=\"r\">red<\/b> marbles did your opponent report drawing? ",
            "catchKey": -1,
            "catchResponse": -1,
            "catchTime": 1678914537919,
            "trialTime": 0
        }
    ]
}