{
    "client": {
        "type": "sona",
        "experiment_id": 2228,
        "credit_token": "b315147ae43241ea9c65086cb510cfb7",
        "survey_code": "42693",
        "sid": "sona-42693",
        "window": {
            "width": 1536,
            "height": 714
        },
        "screen": {
            "width": 1536,
            "height": 864
        },
        "userAgent": "Mozilla\/5.0 (Windows NT 10.0; Win64; x64) AppleWebKit\/537.36 (KHTML, like Gecko) Chrome\/111.0.0.0 Safari\/537.36",
        "score": 0,
        "bonus": 0
    },
    "expt": {
        "saveURL": "submit.simple.php",
        "trials": 100,
        "practiceTrials": 2,
        "marblesSampled": 100,
        "probRed": 0.5,
        "practiceLambdaAI": 5,
        "lambdaAI": 0.3,
        "roles": [
            "sender",
            "receiver"
        ],
        "cost": "unif",
        "goal": "over",
        "oppDishonesty": "honest",
        "catchTrials": [
            7,
            77,
            16,
            58,
            94,
            5,
            95,
            43,
            11,
            66
        ],
        "scoreTotal": {
            "player": -305,
            "opp": 83
        },
        "sona": {
            "experiment_id": 2228,
            "credit_token": "b315147ae43241ea9c65086cb510cfb7"
        },
        "pilot": false,
        "debug": false
    },
    "trials": [
        {
            "exptPart": "practice",
            "trialNumber": 1,
            "roleCurrent": "sender",
            "marblesSampled": 100,
            "probRed": 0.5,
            "practiceLambda": 5,
            "trialLambda": 0.3,
            "instructedLambda": "honest",
            "drawnRed": 54,
            "reportedRed": 42,
            "inferredRed": 40,
            "playerTrialScore": 0,
            "oppTrialScore": -14,
            "playerTotalScore": 0,
            "oppTotalScore": -14,
            "waitTime": 2114.2795153167594,
            "responseTime": 1680758643908,
            "catchQuestion": "How many <b class=\"r\">red<\/b> marbles did you actually draw (before any changes)? ",
            "catchKey": 54,
            "catchResponse": 51,
            "catchTime": 1680758643908,
            "trialTime": 0
        },
        {
            "exptPart": "practice",
            "trialNumber": 2,
            "roleCurrent": "receiver",
            "marblesSampled": 100,
            "probRed": 0.5,
            "practiceLambda": 5,
            "trialLambda": 0.3,
            "instructedLambda": "honest",
            "drawnRed": 38,
            "reportedRed": 43,
            "inferredRed": 40,
            "playerTrialScore": -2,
            "oppTrialScore": 2,
            "playerTotalScore": -2,
            "oppTotalScore": -12,
            "waitTime": 6644.945607329983,
            "responseTime": 1680758708735,
            "catchQuestion": "How many <b class=\"r\">red<\/b> marbles did your opponent report drawing? ",
            "catchKey": 43,
            "catchResponse": 43,
            "catchTime": 1680758708735,
            "trialTime": 0
        },
        {
            "exptPart": "trial",
            "trialNumber": 1,
            "roleCurrent": "receiver",
            "marblesSampled": 100,
            "probRed": 0.5,
            "practiceLambda": 5,
            "trialLambda": 0.3,
            "instructedLambda": "honest",
            "drawnRed": 72,
            "reportedRed": 72,
            "inferredRed": 60,
            "playerTrialScore": -12,
            "oppTrialScore": 0,
            "playerTotalScore": -12,
            "oppTotalScore": 0,
            "waitTime": 5287.831980041936,
            "responseTime": 1680758752853,
            "catchQuestion": "How many <b class=\"r\">red<\/b> marbles did your opponent report drawing? ",
            "catchKey": -1,
            "catchResponse": -1,
            "catchTime": 1680758708735,
            "trialTime": 0
        },
        {
            "exptPart": "trial",
            "trialNumber": 2,
            "roleCurrent": "receiver",
            "marblesSampled": 100,
            "probRed": 0.5,
            "practiceLambda": 5,
            "trialLambda": 0.3,
            "instructedLambda": "honest",
            "drawnRed": 68,
            "reportedRed": 68,
            "inferredRed": 66,
            "playerTrialScore": -2,
            "oppTrialScore": 0,
            "playerTotalScore": -14,
            "oppTotalScore": 0,
            "waitTime": 6563.978362342346,
            "responseTime": 1680758768037,
            "catchQuestion": "How many <b class=\"r\">red<\/b> marbles did your opponent report drawing? ",
            "catchKey": -1,
            "catchResponse": -1,
            "catchTime": 1680758708735,
            "trialTime": 0
        },
        {
            "exptPart": "trial",
            "trialNumber": 3,
            "roleCurrent": "receiver",
            "marblesSampled": 100,
            "probRed": 0.5,
            "practiceLambda": 5,
            "trialLambda": 0.3,
            "instructedLambda": "honest",
            "drawnRed": 63,
            "reportedRed": 63,
            "inferredRed": 62,
            "playerTrialScore": -1,
            "oppTrialScore": 0,
            "playerTotalScore": -15,
            "oppTotalScore": 0,
            "waitTime": 5848.680117761816,
            "responseTime": 1680758780196,
            "catchQuestion": "How many <b class=\"r\">red<\/b> marbles did your opponent report drawing? ",
            "catchKey": -1,
            "catchResponse": -1,
            "catchTime": 1680758708735,
            "trialTime": 0
        },
        {
            "exptPart": "trial",
            "trialNumber": 4,
            "roleCurrent": "receiver",
            "marblesSampled": 100,
            "probRed": 0.5,
            "practiceLambda": 5,
            "trialLambda": 0.3,
            "instructedLambda": "honest",
            "drawnRed": 49,
            "reportedRed": 49,
            "inferredRed": 49,
            "playerTrialScore": 0,
            "oppTrialScore": 0,
            "playerTotalScore": -15,
            "oppTotalScore": 0,
            "waitTime": 6043.017932616778,
            "responseTime": 1680758792419,
            "catchQuestion": "How many <b class=\"r\">red<\/b> marbles did your opponent report drawing? ",
            "catchKey": -1,
            "catchResponse": -1,
            "catchTime": 1680758708735,
            "trialTime": 0
        },
        {
            "exptPart": "trial",
            "trialNumber": 5,
            "roleCurrent": "receiver",
            "marblesSampled": 100,
            "probRed": 0.5,
            "practiceLambda": 5,
            "trialLambda": 0.3,
            "instructedLambda": "honest",
            "drawnRed": 43,
            "reportedRed": 43,
            "inferredRed": 38,
            "playerTrialScore": -5,
            "oppTrialScore": 0,
            "playerTotalScore": -20,
            "oppTotalScore": 0,
            "waitTime": 6817.512089784168,
            "responseTime": 1680758810116,
            "catchQuestion": "How many <b class=\"r\">red<\/b> marbles did your opponent report drawing? ",
            "catchKey": -1,
            "catchResponse": -1,
            "catchTime": 1680758708735,
            "trialTime": 0
        },
        {
            "exptPart": "trial",
            "trialNumber": 6,
            "roleCurrent": "receiver",
            "marblesSampled": 100,
            "probRed": 0.5,
            "practiceLambda": 5,
            "trialLambda": 0.3,
            "instructedLambda": "honest",
            "drawnRed": 84,
            "reportedRed": 84,
            "inferredRed": 75,
            "playerTrialScore": -9,
            "oppTrialScore": 0,
            "playerTotalScore": -29,
            "oppTotalScore": 0,
            "waitTime": 6654.562695716531,
            "responseTime": 1680758823636,
            "catchQuestion": "How many <b class=\"r\">red<\/b> marbles did your opponent report drawing? ",
            "catchKey": 84,
            "catchResponse": 83,
            "catchTime": 1680758823636,
            "trialTime": 0
        },
        {
            "exptPart": "trial",
            "trialNumber": 7,
            "roleCurrent": "receiver",
            "marblesSampled": 100,
            "probRed": 0.5,
            "practiceLambda": 5,
            "trialLambda": 0.3,
            "instructedLambda": "honest",
            "drawnRed": 34,
            "reportedRed": 34,
            "inferredRed": 30,
            "playerTrialScore": -4,
            "oppTrialScore": 0,
            "playerTotalScore": -33,
            "oppTotalScore": 0,
            "waitTime": 5198.145661604196,
            "responseTime": 1680758843331,
            "catchQuestion": "How many <b class=\"r\">red<\/b> marbles did your opponent report drawing? ",
            "catchKey": -1,
            "catchResponse": -1,
            "catchTime": 1680758823636,
            "trialTime": 0
        },
        {
            "exptPart": "trial",
            "trialNumber": 8,
            "roleCurrent": "receiver",
            "marblesSampled": 100,
            "probRed": 0.5,
            "practiceLambda": 5,
            "trialLambda": 0.3,
            "instructedLambda": "honest",
            "drawnRed": 68,
            "reportedRed": 69,
            "inferredRed": 68,
            "playerTrialScore": 0,
            "oppTrialScore": 0,
            "playerTotalScore": -33,
            "oppTotalScore": 0,
            "waitTime": 5619.9527096729535,
            "responseTime": 1680758857348,
            "catchQuestion": "How many <b class=\"r\">red<\/b> marbles did your opponent report drawing? ",
            "catchKey": 69,
            "catchResponse": 69,
            "catchTime": 1680758857348,
            "trialTime": 0
        },
        {
            "exptPart": "trial",
            "trialNumber": 9,
            "roleCurrent": "receiver",
            "marblesSampled": 100,
            "probRed": 0.5,
            "practiceLambda": 5,
            "trialLambda": 0.3,
            "instructedLambda": "honest",
            "drawnRed": 56,
            "reportedRed": 56,
            "inferredRed": 55,
            "playerTrialScore": -1,
            "oppTrialScore": 0,
            "playerTotalScore": -34,
            "oppTotalScore": 0,
            "waitTime": 5615.707157812038,
            "responseTime": 1680758871955,
            "catchQuestion": "How many <b class=\"r\">red<\/b> marbles did your opponent report drawing? ",
            "catchKey": -1,
            "catchResponse": -1,
            "catchTime": 1680758857348,
            "trialTime": 0
        },
        {
            "exptPart": "trial",
            "trialNumber": 10,
            "roleCurrent": "receiver",
            "marblesSampled": 100,
            "probRed": 0.5,
            "practiceLambda": 5,
            "trialLambda": 0.3,
            "instructedLambda": "honest",
            "drawnRed": 38,
            "reportedRed": 38,
            "inferredRed": 33,
            "playerTrialScore": -5,
            "oppTrialScore": 0,
            "playerTotalScore": -39,
            "oppTotalScore": 0,
            "waitTime": 7083.405826230133,
            "responseTime": 1680758882172,
            "catchQuestion": "How many <b class=\"r\">red<\/b> marbles did your opponent report drawing? ",
            "catchKey": -1,
            "catchResponse": -1,
            "catchTime": 1680758882172,
            "trialTime": 0
        },
        {
            "exptPart": "trial",
            "trialNumber": 11,
            "roleCurrent": "receiver",
            "marblesSampled": 100,
            "probRed": 0.5,
            "practiceLambda": 5,
            "trialLambda": 0.3,
            "instructedLambda": "honest",
            "drawnRed": 62,
            "reportedRed": 62,
            "inferredRed": 60,
            "playerTrialScore": -2,
            "oppTrialScore": 0,
            "playerTotalScore": -41,
            "oppTotalScore": 0,
            "waitTime": 5863.627761770287,
            "responseTime": 1680758901219,
            "catchQuestion": "How many <b class=\"r\">red<\/b> marbles did your opponent report drawing? ",
            "catchKey": -1,
            "catchResponse": -1,
            "catchTime": 1680758882172,
            "trialTime": 0
        },
        {
            "exptPart": "trial",
            "trialNumber": 12,
            "roleCurrent": "receiver",
            "marblesSampled": 100,
            "probRed": 0.5,
            "practiceLambda": 5,
            "trialLambda": 0.3,
            "instructedLambda": "honest",
            "drawnRed": 60,
            "reportedRed": 60,
            "inferredRed": 59,
            "playerTrialScore": -1,
            "oppTrialScore": 0,
            "playerTotalScore": -42,
            "oppTotalScore": 0,
            "waitTime": 6047.346274789873,
            "responseTime": 1680758911738,
            "catchQuestion": "How many <b class=\"r\">red<\/b> marbles did your opponent report drawing? ",
            "catchKey": 60,
            "catchResponse": 60,
            "catchTime": 1680758911738,
            "trialTime": 0
        },
        {
            "exptPart": "trial",
            "trialNumber": 13,
            "roleCurrent": "receiver",
            "marblesSampled": 100,
            "probRed": 0.5,
            "practiceLambda": 5,
            "trialLambda": 0.3,
            "instructedLambda": "honest",
            "drawnRed": 46,
            "reportedRed": 46,
            "inferredRed": 46,
            "playerTrialScore": 0,
            "oppTrialScore": 0,
            "playerTotalScore": -42,
            "oppTotalScore": 0,
            "waitTime": 7191.035509377389,
            "responseTime": 1680758927916,
            "catchQuestion": "How many <b class=\"r\">red<\/b> marbles did your opponent report drawing? ",
            "catchKey": -1,
            "catchResponse": -1,
            "catchTime": 1680758911738,
            "trialTime": 0
        },
        {
            "exptPart": "trial",
            "trialNumber": 14,
            "roleCurrent": "receiver",
            "marblesSampled": 100,
            "probRed": 0.5,
            "practiceLambda": 5,
            "trialLambda": 0.3,
            "instructedLambda": "honest",
            "drawnRed": 86,
            "reportedRed": 87,
            "inferredRed": 78,
            "playerTrialScore": -8,
            "oppTrialScore": 0,
            "playerTotalScore": -50,
            "oppTotalScore": 0,
            "waitTime": 7019.331411446468,
            "responseTime": 1680758939947,
            "catchQuestion": "How many <b class=\"r\">red<\/b> marbles did your opponent report drawing? ",
            "catchKey": -1,
            "catchResponse": -1,
            "catchTime": 1680758911738,
            "trialTime": 0
        },
        {
            "exptPart": "trial",
            "trialNumber": 15,
            "roleCurrent": "receiver",
            "marblesSampled": 100,
            "probRed": 0.5,
            "practiceLambda": 5,
            "trialLambda": 0.3,
            "instructedLambda": "honest",
            "drawnRed": 49,
            "reportedRed": 49,
            "inferredRed": 45,
            "playerTrialScore": -4,
            "oppTrialScore": 0,
            "playerTotalScore": -54,
            "oppTotalScore": 0,
            "waitTime": 5434.340072668383,
            "responseTime": 1680758949204,
            "catchQuestion": "How many <b class=\"r\">red<\/b> marbles did your opponent report drawing? ",
            "catchKey": -1,
            "catchResponse": -1,
            "catchTime": 1680758911738,
            "trialTime": 0
        },
        {
            "exptPart": "trial",
            "trialNumber": 16,
            "roleCurrent": "receiver",
            "marblesSampled": 100,
            "probRed": 0.5,
            "practiceLambda": 5,
            "trialLambda": 0.3,
            "instructedLambda": "honest",
            "drawnRed": 40,
            "reportedRed": 40,
            "inferredRed": 39,
            "playerTrialScore": -1,
            "oppTrialScore": 0,
            "playerTotalScore": -55,
            "oppTotalScore": 0,
            "waitTime": 6275.2784442966,
            "responseTime": 1680758960892,
            "catchQuestion": "How many <b class=\"r\">red<\/b> marbles did your opponent report drawing? ",
            "catchKey": -1,
            "catchResponse": -1,
            "catchTime": 1680758911738,
            "trialTime": 0
        },
        {
            "exptPart": "trial",
            "trialNumber": 17,
            "roleCurrent": "receiver",
            "marblesSampled": 100,
            "probRed": 0.5,
            "practiceLambda": 5,
            "trialLambda": 0.3,
            "instructedLambda": "honest",
            "drawnRed": 44,
            "reportedRed": 44,
            "inferredRed": 40,
            "playerTrialScore": -4,
            "oppTrialScore": 0,
            "playerTotalScore": -59,
            "oppTotalScore": 0,
            "waitTime": 6885.577673208882,
            "responseTime": 1680758974147,
            "catchQuestion": "How many <b class=\"r\">red<\/b> marbles did your opponent report drawing? ",
            "catchKey": 44,
            "catchResponse": 44,
            "catchTime": 1680758974147,
            "trialTime": 0
        },
        {
            "exptPart": "trial",
            "trialNumber": 18,
            "roleCurrent": "receiver",
            "marblesSampled": 100,
            "probRed": 0.5,
            "practiceLambda": 5,
            "trialLambda": 0.3,
            "instructedLambda": "honest",
            "drawnRed": 54,
            "reportedRed": 54,
            "inferredRed": 53,
            "playerTrialScore": -1,
            "oppTrialScore": 0,
            "playerTotalScore": -60,
            "oppTotalScore": 0,
            "waitTime": 6411.073365758422,
            "responseTime": 1680758988163,
            "catchQuestion": "How many <b class=\"r\">red<\/b> marbles did your opponent report drawing? ",
            "catchKey": -1,
            "catchResponse": -1,
            "catchTime": 1680758974147,
            "trialTime": 0
        },
        {
            "exptPart": "trial",
            "trialNumber": 19,
            "roleCurrent": "receiver",
            "marblesSampled": 100,
            "probRed": 0.5,
            "practiceLambda": 5,
            "trialLambda": 0.3,
            "instructedLambda": "honest",
            "drawnRed": 27,
            "reportedRed": 27,
            "inferredRed": 27,
            "playerTrialScore": 0,
            "oppTrialScore": 0,
            "playerTotalScore": -60,
            "oppTotalScore": 0,
            "waitTime": 5414.070513818747,
            "responseTime": 1680758997179,
            "catchQuestion": "How many <b class=\"r\">red<\/b> marbles did your opponent report drawing? ",
            "catchKey": -1,
            "catchResponse": -1,
            "catchTime": 1680758974147,
            "trialTime": 0
        },
        {
            "exptPart": "trial",
            "trialNumber": 20,
            "roleCurrent": "receiver",
            "marblesSampled": 100,
            "probRed": 0.5,
            "practiceLambda": 5,
            "trialLambda": 0.3,
            "instructedLambda": "honest",
            "drawnRed": 39,
            "reportedRed": 39,
            "inferredRed": 36,
            "playerTrialScore": -3,
            "oppTrialScore": 0,
            "playerTotalScore": -63,
            "oppTotalScore": 0,
            "waitTime": 5183.391587149498,
            "responseTime": 1680759006843,
            "catchQuestion": "How many <b class=\"r\">red<\/b> marbles did your opponent report drawing? ",
            "catchKey": -1,
            "catchResponse": -1,
            "catchTime": 1680759006843,
            "trialTime": 0
        },
        {
            "exptPart": "trial",
            "trialNumber": 21,
            "roleCurrent": "receiver",
            "marblesSampled": 100,
            "probRed": 0.5,
            "practiceLambda": 5,
            "trialLambda": 0.3,
            "instructedLambda": "honest",
            "drawnRed": 39,
            "reportedRed": 39,
            "inferredRed": 40,
            "playerTrialScore": -1,
            "oppTrialScore": 1,
            "playerTotalScore": -64,
            "oppTotalScore": 1,
            "waitTime": 5398.11958355958,
            "responseTime": 1680759027595,
            "catchQuestion": "How many <b class=\"r\">red<\/b> marbles did your opponent report drawing? ",
            "catchKey": -1,
            "catchResponse": -1,
            "catchTime": 1680759006843,
            "trialTime": 0
        },
        {
            "exptPart": "trial",
            "trialNumber": 22,
            "roleCurrent": "receiver",
            "marblesSampled": 100,
            "probRed": 0.5,
            "practiceLambda": 5,
            "trialLambda": 0.3,
            "instructedLambda": "honest",
            "drawnRed": 69,
            "reportedRed": 69,
            "inferredRed": 60,
            "playerTrialScore": -9,
            "oppTrialScore": 0,
            "playerTotalScore": -73,
            "oppTotalScore": 1,
            "waitTime": 7442.5680116993735,
            "responseTime": 1680759049156,
            "catchQuestion": "How many <b class=\"r\">red<\/b> marbles did your opponent report drawing? ",
            "catchKey": -1,
            "catchResponse": -1,
            "catchTime": 1680759006843,
            "trialTime": 0
        },
        {
            "exptPart": "trial",
            "trialNumber": 23,
            "roleCurrent": "receiver",
            "marblesSampled": 100,
            "probRed": 0.5,
            "practiceLambda": 5,
            "trialLambda": 0.3,
            "instructedLambda": "honest",
            "drawnRed": 60,
            "reportedRed": 60,
            "inferredRed": 60,
            "playerTrialScore": 0,
            "oppTrialScore": 0,
            "playerTotalScore": -73,
            "oppTotalScore": 1,
            "waitTime": 6238.253308045996,
            "responseTime": 1680759063500,
            "catchQuestion": "How many <b class=\"r\">red<\/b> marbles did your opponent report drawing? ",
            "catchKey": -1,
            "catchResponse": -1,
            "catchTime": 1680759006843,
            "trialTime": 0
        },
        {
            "exptPart": "trial",
            "trialNumber": 24,
            "roleCurrent": "receiver",
            "marblesSampled": 100,
            "probRed": 0.5,
            "practiceLambda": 5,
            "trialLambda": 0.3,
            "instructedLambda": "honest",
            "drawnRed": 61,
            "reportedRed": 61,
            "inferredRed": 55,
            "playerTrialScore": -6,
            "oppTrialScore": 0,
            "playerTotalScore": -79,
            "oppTotalScore": 1,
            "waitTime": 6791.228550578469,
            "responseTime": 1680759073381,
            "catchQuestion": "How many <b class=\"r\">red<\/b> marbles did your opponent report drawing? ",
            "catchKey": -1,
            "catchResponse": -1,
            "catchTime": 1680759006843,
            "trialTime": 0
        },
        {
            "exptPart": "trial",
            "trialNumber": 25,
            "roleCurrent": "receiver",
            "marblesSampled": 100,
            "probRed": 0.5,
            "practiceLambda": 5,
            "trialLambda": 0.3,
            "instructedLambda": "honest",
            "drawnRed": 41,
            "reportedRed": 42,
            "inferredRed": 40,
            "playerTrialScore": -1,
            "oppTrialScore": 0,
            "playerTotalScore": -80,
            "oppTotalScore": 1,
            "waitTime": 6153.478553424362,
            "responseTime": 1680759082124,
            "catchQuestion": "How many <b class=\"r\">red<\/b> marbles did your opponent report drawing? ",
            "catchKey": -1,
            "catchResponse": -1,
            "catchTime": 1680759006843,
            "trialTime": 0
        },
        {
            "exptPart": "trial",
            "trialNumber": 26,
            "roleCurrent": "receiver",
            "marblesSampled": 100,
            "probRed": 0.5,
            "practiceLambda": 5,
            "trialLambda": 0.3,
            "instructedLambda": "honest",
            "drawnRed": 78,
            "reportedRed": 78,
            "inferredRed": 80,
            "playerTrialScore": -2,
            "oppTrialScore": 2,
            "playerTotalScore": -82,
            "oppTotalScore": 3,
            "waitTime": 6066.811151394705,
            "responseTime": 1680759092212,
            "catchQuestion": "How many <b class=\"r\">red<\/b> marbles did your opponent report drawing? ",
            "catchKey": -1,
            "catchResponse": -1,
            "catchTime": 1680759006843,
            "trialTime": 0
        },
        {
            "exptPart": "trial",
            "trialNumber": 27,
            "roleCurrent": "receiver",
            "marblesSampled": 100,
            "probRed": 0.5,
            "practiceLambda": 5,
            "trialLambda": 0.3,
            "instructedLambda": "honest",
            "drawnRed": 58,
            "reportedRed": 58,
            "inferredRed": 60,
            "playerTrialScore": -2,
            "oppTrialScore": 2,
            "playerTotalScore": -84,
            "oppTotalScore": 5,
            "waitTime": 6086.780230520355,
            "responseTime": 1680759101595,
            "catchQuestion": "How many <b class=\"r\">red<\/b> marbles did your opponent report drawing? ",
            "catchKey": -1,
            "catchResponse": -1,
            "catchTime": 1680759006843,
            "trialTime": 0
        },
        {
            "exptPart": "trial",
            "trialNumber": 28,
            "roleCurrent": "receiver",
            "marblesSampled": 100,
            "probRed": 0.5,
            "practiceLambda": 5,
            "trialLambda": 0.3,
            "instructedLambda": "honest",
            "drawnRed": 25,
            "reportedRed": 25,
            "inferredRed": 25,
            "playerTrialScore": 0,
            "oppTrialScore": 0,
            "playerTotalScore": -84,
            "oppTotalScore": 5,
            "waitTime": 6571.567281296959,
            "responseTime": 1680759110780,
            "catchQuestion": "How many <b class=\"r\">red<\/b> marbles did your opponent report drawing? ",
            "catchKey": -1,
            "catchResponse": -1,
            "catchTime": 1680759006843,
            "trialTime": 0
        },
        {
            "exptPart": "trial",
            "trialNumber": 29,
            "roleCurrent": "receiver",
            "marblesSampled": 100,
            "probRed": 0.5,
            "practiceLambda": 5,
            "trialLambda": 0.3,
            "instructedLambda": "honest",
            "drawnRed": 27,
            "reportedRed": 27,
            "inferredRed": 27,
            "playerTrialScore": 0,
            "oppTrialScore": 0,
            "playerTotalScore": -84,
            "oppTotalScore": 5,
            "waitTime": 6167.047076367065,
            "responseTime": 1680759120779,
            "catchQuestion": "How many <b class=\"r\">red<\/b> marbles did your opponent report drawing? ",
            "catchKey": -1,
            "catchResponse": -1,
            "catchTime": 1680759006843,
            "trialTime": 0
        },
        {
            "exptPart": "trial",
            "trialNumber": 30,
            "roleCurrent": "receiver",
            "marblesSampled": 100,
            "probRed": 0.5,
            "practiceLambda": 5,
            "trialLambda": 0.3,
            "instructedLambda": "honest",
            "drawnRed": 58,
            "reportedRed": 58,
            "inferredRed": 58,
            "playerTrialScore": 0,
            "oppTrialScore": 0,
            "playerTotalScore": -84,
            "oppTotalScore": 5,
            "waitTime": 6273.098739759027,
            "responseTime": 1680759129676,
            "catchQuestion": "How many <b class=\"r\">red<\/b> marbles did your opponent report drawing? ",
            "catchKey": -1,
            "catchResponse": -1,
            "catchTime": 1680759129676,
            "trialTime": 0
        },
        {
            "exptPart": "trial",
            "trialNumber": 31,
            "roleCurrent": "receiver",
            "marblesSampled": 100,
            "probRed": 0.5,
            "practiceLambda": 5,
            "trialLambda": 0.3,
            "instructedLambda": "honest",
            "drawnRed": 65,
            "reportedRed": 66,
            "inferredRed": 58,
            "playerTrialScore": -7,
            "oppTrialScore": 0,
            "playerTotalScore": -91,
            "oppTotalScore": 5,
            "waitTime": 6411.476169294973,
            "responseTime": 1680759161756,
            "catchQuestion": "How many <b class=\"r\">red<\/b> marbles did your opponent report drawing? ",
            "catchKey": -1,
            "catchResponse": -1,
            "catchTime": 1680759129676,
            "trialTime": 0
        },
        {
            "exptPart": "trial",
            "trialNumber": 32,
            "roleCurrent": "receiver",
            "marblesSampled": 100,
            "probRed": 0.5,
            "practiceLambda": 5,
            "trialLambda": 0.3,
            "instructedLambda": "honest",
            "drawnRed": 45,
            "reportedRed": 45,
            "inferredRed": 38,
            "playerTrialScore": -7,
            "oppTrialScore": 0,
            "playerTotalScore": -98,
            "oppTotalScore": 5,
            "waitTime": 6477.05464069289,
            "responseTime": 1680759173356,
            "catchQuestion": "How many <b class=\"r\">red<\/b> marbles did your opponent report drawing? ",
            "catchKey": -1,
            "catchResponse": -1,
            "catchTime": 1680759129676,
            "trialTime": 0
        },
        {
            "exptPart": "trial",
            "trialNumber": 33,
            "roleCurrent": "receiver",
            "marblesSampled": 100,
            "probRed": 0.5,
            "practiceLambda": 5,
            "trialLambda": 0.3,
            "instructedLambda": "honest",
            "drawnRed": 57,
            "reportedRed": 57,
            "inferredRed": 50,
            "playerTrialScore": -7,
            "oppTrialScore": 0,
            "playerTotalScore": -105,
            "oppTotalScore": 5,
            "waitTime": 5589.253583281925,
            "responseTime": 1680759182987,
            "catchQuestion": "How many <b class=\"r\">red<\/b> marbles did your opponent report drawing? ",
            "catchKey": -1,
            "catchResponse": -1,
            "catchTime": 1680759129676,
            "trialTime": 0
        },
        {
            "exptPart": "trial",
            "trialNumber": 34,
            "roleCurrent": "receiver",
            "marblesSampled": 100,
            "probRed": 0.5,
            "practiceLambda": 5,
            "trialLambda": 0.3,
            "instructedLambda": "honest",
            "drawnRed": 29,
            "reportedRed": 29,
            "inferredRed": 29,
            "playerTrialScore": 0,
            "oppTrialScore": 0,
            "playerTotalScore": -105,
            "oppTotalScore": 5,
            "waitTime": 5220.888762280744,
            "responseTime": 1680759192747,
            "catchQuestion": "How many <b class=\"r\">red<\/b> marbles did your opponent report drawing? ",
            "catchKey": -1,
            "catchResponse": -1,
            "catchTime": 1680759129676,
            "trialTime": 0
        },
        {
            "exptPart": "trial",
            "trialNumber": 35,
            "roleCurrent": "receiver",
            "marblesSampled": 100,
            "probRed": 0.5,
            "practiceLambda": 5,
            "trialLambda": 0.3,
            "instructedLambda": "honest",
            "drawnRed": 52,
            "reportedRed": 53,
            "inferredRed": 45,
            "playerTrialScore": -7,
            "oppTrialScore": 0,
            "playerTotalScore": -112,
            "oppTotalScore": 5,
            "waitTime": 6049.264291851465,
            "responseTime": 1680759203475,
            "catchQuestion": "How many <b class=\"r\">red<\/b> marbles did your opponent report drawing? ",
            "catchKey": -1,
            "catchResponse": -1,
            "catchTime": 1680759129676,
            "trialTime": 0
        },
        {
            "exptPart": "trial",
            "trialNumber": 36,
            "roleCurrent": "receiver",
            "marblesSampled": 100,
            "probRed": 0.5,
            "practiceLambda": 5,
            "trialLambda": 0.3,
            "instructedLambda": "honest",
            "drawnRed": 30,
            "reportedRed": 30,
            "inferredRed": 28,
            "playerTrialScore": -2,
            "oppTrialScore": 0,
            "playerTotalScore": -114,
            "oppTotalScore": 5,
            "waitTime": 7185.288653583454,
            "responseTime": 1680759214139,
            "catchQuestion": "How many <b class=\"r\">red<\/b> marbles did your opponent report drawing? ",
            "catchKey": -1,
            "catchResponse": -1,
            "catchTime": 1680759129676,
            "trialTime": 0
        },
        {
            "exptPart": "trial",
            "trialNumber": 37,
            "roleCurrent": "receiver",
            "marblesSampled": 100,
            "probRed": 0.5,
            "practiceLambda": 5,
            "trialLambda": 0.3,
            "instructedLambda": "honest",
            "drawnRed": 58,
            "reportedRed": 58,
            "inferredRed": 55,
            "playerTrialScore": -3,
            "oppTrialScore": 0,
            "playerTotalScore": -117,
            "oppTotalScore": 5,
            "waitTime": 5468.22542089486,
            "responseTime": 1680759223571,
            "catchQuestion": "How many <b class=\"r\">red<\/b> marbles did your opponent report drawing? ",
            "catchKey": -1,
            "catchResponse": -1,
            "catchTime": 1680759129676,
            "trialTime": 0
        },
        {
            "exptPart": "trial",
            "trialNumber": 38,
            "roleCurrent": "receiver",
            "marblesSampled": 100,
            "probRed": 0.5,
            "practiceLambda": 5,
            "trialLambda": 0.3,
            "instructedLambda": "honest",
            "drawnRed": 76,
            "reportedRed": 76,
            "inferredRed": 66,
            "playerTrialScore": -10,
            "oppTrialScore": 0,
            "playerTotalScore": -127,
            "oppTotalScore": 5,
            "waitTime": 5968.376578039528,
            "responseTime": 1680759233363,
            "catchQuestion": "How many <b class=\"r\">red<\/b> marbles did your opponent report drawing? ",
            "catchKey": -1,
            "catchResponse": -1,
            "catchTime": 1680759129676,
            "trialTime": 0
        },
        {
            "exptPart": "trial",
            "trialNumber": 39,
            "roleCurrent": "receiver",
            "marblesSampled": 100,
            "probRed": 0.5,
            "practiceLambda": 5,
            "trialLambda": 0.3,
            "instructedLambda": "honest",
            "drawnRed": 69,
            "reportedRed": 70,
            "inferredRed": 65,
            "playerTrialScore": -4,
            "oppTrialScore": 0,
            "playerTotalScore": -131,
            "oppTotalScore": 5,
            "waitTime": 5993.814903263748,
            "responseTime": 1680759243259,
            "catchQuestion": "How many <b class=\"r\">red<\/b> marbles did your opponent report drawing? ",
            "catchKey": -1,
            "catchResponse": -1,
            "catchTime": 1680759129676,
            "trialTime": 0
        },
        {
            "exptPart": "trial",
            "trialNumber": 40,
            "roleCurrent": "receiver",
            "marblesSampled": 100,
            "probRed": 0.5,
            "practiceLambda": 5,
            "trialLambda": 0.3,
            "instructedLambda": "honest",
            "drawnRed": 63,
            "reportedRed": 63,
            "inferredRed": 45,
            "playerTrialScore": -18,
            "oppTrialScore": 0,
            "playerTotalScore": -149,
            "oppTotalScore": 5,
            "waitTime": 5654.169864493113,
            "responseTime": 1680759257963,
            "catchQuestion": "How many <b class=\"r\">red<\/b> marbles did your opponent report drawing? ",
            "catchKey": -1,
            "catchResponse": -1,
            "catchTime": 1680759257963,
            "trialTime": 0
        },
        {
            "exptPart": "trial",
            "trialNumber": 41,
            "roleCurrent": "receiver",
            "marblesSampled": 100,
            "probRed": 0.5,
            "practiceLambda": 5,
            "trialLambda": 0.3,
            "instructedLambda": "honest",
            "drawnRed": 34,
            "reportedRed": 34,
            "inferredRed": 34,
            "playerTrialScore": 0,
            "oppTrialScore": 0,
            "playerTotalScore": -149,
            "oppTotalScore": 5,
            "waitTime": 7121.17970281812,
            "responseTime": 1680759276330,
            "catchQuestion": "How many <b class=\"r\">red<\/b> marbles did your opponent report drawing? ",
            "catchKey": -1,
            "catchResponse": -1,
            "catchTime": 1680759257963,
            "trialTime": 0
        },
        {
            "exptPart": "trial",
            "trialNumber": 42,
            "roleCurrent": "receiver",
            "marblesSampled": 100,
            "probRed": 0.5,
            "practiceLambda": 5,
            "trialLambda": 0.3,
            "instructedLambda": "honest",
            "drawnRed": 39,
            "reportedRed": 39,
            "inferredRed": 39,
            "playerTrialScore": 0,
            "oppTrialScore": 0,
            "playerTotalScore": -149,
            "oppTotalScore": 5,
            "waitTime": 6062.757015747023,
            "responseTime": 1680759284730,
            "catchQuestion": "How many <b class=\"r\">red<\/b> marbles did your opponent report drawing? ",
            "catchKey": -1,
            "catchResponse": -1,
            "catchTime": 1680759257963,
            "trialTime": 0
        },
        {
            "exptPart": "trial",
            "trialNumber": 43,
            "roleCurrent": "receiver",
            "marblesSampled": 100,
            "probRed": 0.5,
            "practiceLambda": 5,
            "trialLambda": 0.3,
            "instructedLambda": "honest",
            "drawnRed": 55,
            "reportedRed": 56,
            "inferredRed": 56,
            "playerTrialScore": -1,
            "oppTrialScore": 1,
            "playerTotalScore": -150,
            "oppTotalScore": 6,
            "waitTime": 6140.886269779321,
            "responseTime": 1680759294578,
            "catchQuestion": "How many <b class=\"r\">red<\/b> marbles did your opponent report drawing? ",
            "catchKey": -1,
            "catchResponse": -1,
            "catchTime": 1680759257963,
            "trialTime": 0
        },
        {
            "exptPart": "trial",
            "trialNumber": 44,
            "roleCurrent": "receiver",
            "marblesSampled": 100,
            "probRed": 0.5,
            "practiceLambda": 5,
            "trialLambda": 0.3,
            "instructedLambda": "honest",
            "drawnRed": 19,
            "reportedRed": 19,
            "inferredRed": 19,
            "playerTrialScore": 0,
            "oppTrialScore": 0,
            "playerTotalScore": -150,
            "oppTotalScore": 6,
            "waitTime": 6929.494774271039,
            "responseTime": 1680759304099,
            "catchQuestion": "How many <b class=\"r\">red<\/b> marbles did your opponent report drawing? ",
            "catchKey": 19,
            "catchResponse": 19,
            "catchTime": 1680759304099,
            "trialTime": 0
        },
        {
            "exptPart": "trial",
            "trialNumber": 45,
            "roleCurrent": "receiver",
            "marblesSampled": 100,
            "probRed": 0.5,
            "practiceLambda": 5,
            "trialLambda": 0.3,
            "instructedLambda": "honest",
            "drawnRed": 67,
            "reportedRed": 67,
            "inferredRed": 67,
            "playerTrialScore": 0,
            "oppTrialScore": 0,
            "playerTotalScore": -150,
            "oppTotalScore": 6,
            "waitTime": 5397.728681654236,
            "responseTime": 1680759316827,
            "catchQuestion": "How many <b class=\"r\">red<\/b> marbles did your opponent report drawing? ",
            "catchKey": -1,
            "catchResponse": -1,
            "catchTime": 1680759304099,
            "trialTime": 0
        },
        {
            "exptPart": "trial",
            "trialNumber": 46,
            "roleCurrent": "receiver",
            "marblesSampled": 100,
            "probRed": 0.5,
            "practiceLambda": 5,
            "trialLambda": 0.3,
            "instructedLambda": "honest",
            "drawnRed": 55,
            "reportedRed": 56,
            "inferredRed": 56,
            "playerTrialScore": -1,
            "oppTrialScore": 1,
            "playerTotalScore": -151,
            "oppTotalScore": 7,
            "waitTime": 5286.897624312862,
            "responseTime": 1680759324155,
            "catchQuestion": "How many <b class=\"r\">red<\/b> marbles did your opponent report drawing? ",
            "catchKey": -1,
            "catchResponse": -1,
            "catchTime": 1680759304099,
            "trialTime": 0
        },
        {
            "exptPart": "trial",
            "trialNumber": 47,
            "roleCurrent": "receiver",
            "marblesSampled": 100,
            "probRed": 0.5,
            "practiceLambda": 5,
            "trialLambda": 0.3,
            "instructedLambda": "honest",
            "drawnRed": 17,
            "reportedRed": 17,
            "inferredRed": 17,
            "playerTrialScore": 0,
            "oppTrialScore": 0,
            "playerTotalScore": -151,
            "oppTotalScore": 7,
            "waitTime": 7426.914728074372,
            "responseTime": 1680759333660,
            "catchQuestion": "How many <b class=\"r\">red<\/b> marbles did your opponent report drawing? ",
            "catchKey": -1,
            "catchResponse": -1,
            "catchTime": 1680759304099,
            "trialTime": 0
        },
        {
            "exptPart": "trial",
            "trialNumber": 48,
            "roleCurrent": "receiver",
            "marblesSampled": 100,
            "probRed": 0.5,
            "practiceLambda": 5,
            "trialLambda": 0.3,
            "instructedLambda": "honest",
            "drawnRed": 67,
            "reportedRed": 67,
            "inferredRed": 67,
            "playerTrialScore": 0,
            "oppTrialScore": 0,
            "playerTotalScore": -151,
            "oppTotalScore": 7,
            "waitTime": 5318.236075609893,
            "responseTime": 1680759341307,
            "catchQuestion": "How many <b class=\"r\">red<\/b> marbles did your opponent report drawing? ",
            "catchKey": -1,
            "catchResponse": -1,
            "catchTime": 1680759304099,
            "trialTime": 0
        },
        {
            "exptPart": "trial",
            "trialNumber": 49,
            "roleCurrent": "receiver",
            "marblesSampled": 100,
            "probRed": 0.5,
            "practiceLambda": 5,
            "trialLambda": 0.3,
            "instructedLambda": "honest",
            "drawnRed": 43,
            "reportedRed": 43,
            "inferredRed": 43,
            "playerTrialScore": 0,
            "oppTrialScore": 0,
            "playerTotalScore": -151,
            "oppTotalScore": 7,
            "waitTime": 5518.225940004032,
            "responseTime": 1680759349316,
            "catchQuestion": "How many <b class=\"r\">red<\/b> marbles did your opponent report drawing? ",
            "catchKey": -1,
            "catchResponse": -1,
            "catchTime": 1680759304099,
            "trialTime": 0
        },
        {
            "exptPart": "trial",
            "trialNumber": 50,
            "roleCurrent": "receiver",
            "marblesSampled": 100,
            "probRed": 0.5,
            "practiceLambda": 5,
            "trialLambda": 0.3,
            "instructedLambda": "honest",
            "drawnRed": 54,
            "reportedRed": 55,
            "inferredRed": 55,
            "playerTrialScore": -1,
            "oppTrialScore": 1,
            "playerTotalScore": -152,
            "oppTotalScore": 8,
            "waitTime": 5157.012736413941,
            "responseTime": 1680759356363,
            "catchQuestion": "How many <b class=\"r\">red<\/b> marbles did your opponent report drawing? ",
            "catchKey": -1,
            "catchResponse": -1,
            "catchTime": 1680759356363,
            "trialTime": 0
        },
        {
            "exptPart": "trial",
            "trialNumber": 51,
            "roleCurrent": "receiver",
            "marblesSampled": 100,
            "probRed": 0.5,
            "practiceLambda": 5,
            "trialLambda": 0.3,
            "instructedLambda": "honest",
            "drawnRed": 91,
            "reportedRed": 91,
            "inferredRed": 100,
            "playerTrialScore": -9,
            "oppTrialScore": 9,
            "playerTotalScore": -161,
            "oppTotalScore": 17,
            "waitTime": 6153.027985159664,
            "responseTime": 1680759392908,
            "catchQuestion": "How many <b class=\"r\">red<\/b> marbles did your opponent report drawing? ",
            "catchKey": -1,
            "catchResponse": -1,
            "catchTime": 1680759356363,
            "trialTime": 0
        },
        {
            "exptPart": "trial",
            "trialNumber": 52,
            "roleCurrent": "receiver",
            "marblesSampled": 100,
            "probRed": 0.5,
            "practiceLambda": 5,
            "trialLambda": 0.3,
            "instructedLambda": "honest",
            "drawnRed": 56,
            "reportedRed": 56,
            "inferredRed": 67,
            "playerTrialScore": -11,
            "oppTrialScore": 11,
            "playerTotalScore": -172,
            "oppTotalScore": 28,
            "waitTime": 5275.382366850325,
            "responseTime": 1680759401627,
            "catchQuestion": "How many <b class=\"r\">red<\/b> marbles did your opponent report drawing? ",
            "catchKey": -1,
            "catchResponse": -1,
            "catchTime": 1680759356363,
            "trialTime": 0
        },
        {
            "exptPart": "trial",
            "trialNumber": 53,
            "roleCurrent": "receiver",
            "marblesSampled": 100,
            "probRed": 0.5,
            "practiceLambda": 5,
            "trialLambda": 0.3,
            "instructedLambda": "honest",
            "drawnRed": 27,
            "reportedRed": 27,
            "inferredRed": 30,
            "playerTrialScore": -3,
            "oppTrialScore": 3,
            "playerTotalScore": -175,
            "oppTotalScore": 31,
            "waitTime": 6793.891644748699,
            "responseTime": 1680759412644,
            "catchQuestion": "How many <b class=\"r\">red<\/b> marbles did your opponent report drawing? ",
            "catchKey": -1,
            "catchResponse": -1,
            "catchTime": 1680759356363,
            "trialTime": 0
        },
        {
            "exptPart": "trial",
            "trialNumber": 54,
            "roleCurrent": "receiver",
            "marblesSampled": 100,
            "probRed": 0.5,
            "practiceLambda": 5,
            "trialLambda": 0.3,
            "instructedLambda": "honest",
            "drawnRed": 21,
            "reportedRed": 21,
            "inferredRed": 25,
            "playerTrialScore": -4,
            "oppTrialScore": 4,
            "playerTotalScore": -179,
            "oppTotalScore": 35,
            "waitTime": 5439.605198488326,
            "responseTime": 1680759423419,
            "catchQuestion": "How many <b class=\"r\">red<\/b> marbles did your opponent report drawing? ",
            "catchKey": -1,
            "catchResponse": -1,
            "catchTime": 1680759356363,
            "trialTime": 0
        },
        {
            "exptPart": "trial",
            "trialNumber": 55,
            "roleCurrent": "receiver",
            "marblesSampled": 100,
            "probRed": 0.5,
            "practiceLambda": 5,
            "trialLambda": 0.3,
            "instructedLambda": "honest",
            "drawnRed": 32,
            "reportedRed": 33,
            "inferredRed": 40,
            "playerTrialScore": -8,
            "oppTrialScore": 8,
            "playerTotalScore": -187,
            "oppTotalScore": 43,
            "waitTime": 6176.6697674772,
            "responseTime": 1680759432796,
            "catchQuestion": "How many <b class=\"r\">red<\/b> marbles did your opponent report drawing? ",
            "catchKey": -1,
            "catchResponse": -1,
            "catchTime": 1680759356363,
            "trialTime": 0
        },
        {
            "exptPart": "trial",
            "trialNumber": 56,
            "roleCurrent": "receiver",
            "marblesSampled": 100,
            "probRed": 0.5,
            "practiceLambda": 5,
            "trialLambda": 0.3,
            "instructedLambda": "honest",
            "drawnRed": 53,
            "reportedRed": 53,
            "inferredRed": 60,
            "playerTrialScore": -7,
            "oppTrialScore": 7,
            "playerTotalScore": -194,
            "oppTotalScore": 50,
            "waitTime": 6880.150179248072,
            "responseTime": 1680759470803,
            "catchQuestion": "How many <b class=\"r\">red<\/b> marbles did your opponent report drawing? ",
            "catchKey": -1,
            "catchResponse": -1,
            "catchTime": 1680759356363,
            "trialTime": 0
        },
        {
            "exptPart": "trial",
            "trialNumber": 57,
            "roleCurrent": "receiver",
            "marblesSampled": 100,
            "probRed": 0.5,
            "practiceLambda": 5,
            "trialLambda": 0.3,
            "instructedLambda": "honest",
            "drawnRed": 15,
            "reportedRed": 15,
            "inferredRed": 20,
            "playerTrialScore": -5,
            "oppTrialScore": 5,
            "playerTotalScore": -199,
            "oppTotalScore": 55,
            "waitTime": 6744.599072141392,
            "responseTime": 1680759489371,
            "catchQuestion": "How many <b class=\"r\">red<\/b> marbles did your opponent report drawing? ",
            "catchKey": -1,
            "catchResponse": -1,
            "catchTime": 1680759356363,
            "trialTime": 0
        },
        {
            "exptPart": "trial",
            "trialNumber": 58,
            "roleCurrent": "receiver",
            "marblesSampled": 100,
            "probRed": 0.5,
            "practiceLambda": 5,
            "trialLambda": 0.3,
            "instructedLambda": "honest",
            "drawnRed": 19,
            "reportedRed": 20,
            "inferredRed": 30,
            "playerTrialScore": -11,
            "oppTrialScore": 11,
            "playerTotalScore": -210,
            "oppTotalScore": 66,
            "waitTime": 5192.807366060024,
            "responseTime": 1680759501188,
            "catchQuestion": "How many <b class=\"r\">red<\/b> marbles did your opponent report drawing? ",
            "catchKey": -1,
            "catchResponse": -1,
            "catchTime": 1680759356363,
            "trialTime": 0
        },
        {
            "exptPart": "trial",
            "trialNumber": 59,
            "roleCurrent": "receiver",
            "marblesSampled": 100,
            "probRed": 0.5,
            "practiceLambda": 5,
            "trialLambda": 0.3,
            "instructedLambda": "honest",
            "drawnRed": 20,
            "reportedRed": 20,
            "inferredRed": 25,
            "playerTrialScore": -5,
            "oppTrialScore": 5,
            "playerTotalScore": -215,
            "oppTotalScore": 71,
            "waitTime": 6278.530915886132,
            "responseTime": 1680759511131,
            "catchQuestion": "How many <b class=\"r\">red<\/b> marbles did your opponent report drawing? ",
            "catchKey": 20,
            "catchResponse": 25,
            "catchTime": 1680759511131,
            "trialTime": 0
        },
        {
            "exptPart": "trial",
            "trialNumber": 60,
            "roleCurrent": "receiver",
            "marblesSampled": 100,
            "probRed": 0.5,
            "practiceLambda": 5,
            "trialLambda": 0.3,
            "instructedLambda": "honest",
            "drawnRed": 33,
            "reportedRed": 33,
            "inferredRed": 40,
            "playerTrialScore": -7,
            "oppTrialScore": 7,
            "playerTotalScore": -222,
            "oppTotalScore": 78,
            "waitTime": 7094.645578207189,
            "responseTime": 1680759528956,
            "catchQuestion": "How many <b class=\"r\">red<\/b> marbles did your opponent report drawing? ",
            "catchKey": -1,
            "catchResponse": -1,
            "catchTime": 1680759528956,
            "trialTime": 0
        },
        {
            "exptPart": "trial",
            "trialNumber": 61,
            "roleCurrent": "receiver",
            "marblesSampled": 100,
            "probRed": 0.5,
            "practiceLambda": 5,
            "trialLambda": 0.3,
            "instructedLambda": "honest",
            "drawnRed": 60,
            "reportedRed": 60,
            "inferredRed": 50,
            "playerTrialScore": -10,
            "oppTrialScore": 0,
            "playerTotalScore": -232,
            "oppTotalScore": 78,
            "waitTime": 7048.047812439192,
            "responseTime": 1680759551955,
            "catchQuestion": "How many <b class=\"r\">red<\/b> marbles did your opponent report drawing? ",
            "catchKey": -1,
            "catchResponse": -1,
            "catchTime": 1680759528956,
            "trialTime": 0
        },
        {
            "exptPart": "trial",
            "trialNumber": 62,
            "roleCurrent": "receiver",
            "marblesSampled": 100,
            "probRed": 0.5,
            "practiceLambda": 5,
            "trialLambda": 0.3,
            "instructedLambda": "honest",
            "drawnRed": 58,
            "reportedRed": 58,
            "inferredRed": 55,
            "playerTrialScore": -3,
            "oppTrialScore": 0,
            "playerTotalScore": -235,
            "oppTotalScore": 78,
            "waitTime": 6354.365041462963,
            "responseTime": 1680759561003,
            "catchQuestion": "How many <b class=\"r\">red<\/b> marbles did your opponent report drawing? ",
            "catchKey": -1,
            "catchResponse": -1,
            "catchTime": 1680759528956,
            "trialTime": 0
        },
        {
            "exptPart": "trial",
            "trialNumber": 63,
            "roleCurrent": "receiver",
            "marblesSampled": 100,
            "probRed": 0.5,
            "practiceLambda": 5,
            "trialLambda": 0.3,
            "instructedLambda": "honest",
            "drawnRed": 15,
            "reportedRed": 15,
            "inferredRed": 10,
            "playerTrialScore": -5,
            "oppTrialScore": 0,
            "playerTotalScore": -240,
            "oppTotalScore": 78,
            "waitTime": 5296.318845353862,
            "responseTime": 1680759569172,
            "catchQuestion": "How many <b class=\"r\">red<\/b> marbles did your opponent report drawing? ",
            "catchKey": -1,
            "catchResponse": -1,
            "catchTime": 1680759528956,
            "trialTime": 0
        },
        {
            "exptPart": "trial",
            "trialNumber": 64,
            "roleCurrent": "receiver",
            "marblesSampled": 100,
            "probRed": 0.5,
            "practiceLambda": 5,
            "trialLambda": 0.3,
            "instructedLambda": "honest",
            "drawnRed": 35,
            "reportedRed": 35,
            "inferredRed": 34,
            "playerTrialScore": -1,
            "oppTrialScore": 0,
            "playerTotalScore": -241,
            "oppTotalScore": 78,
            "waitTime": 6389.504931994374,
            "responseTime": 1680759579282,
            "catchQuestion": "How many <b class=\"r\">red<\/b> marbles did your opponent report drawing? ",
            "catchKey": -1,
            "catchResponse": -1,
            "catchTime": 1680759528956,
            "trialTime": 0
        },
        {
            "exptPart": "trial",
            "trialNumber": 65,
            "roleCurrent": "receiver",
            "marblesSampled": 100,
            "probRed": 0.5,
            "practiceLambda": 5,
            "trialLambda": 0.3,
            "instructedLambda": "honest",
            "drawnRed": 25,
            "reportedRed": 25,
            "inferredRed": 20,
            "playerTrialScore": -5,
            "oppTrialScore": 0,
            "playerTotalScore": -246,
            "oppTotalScore": 78,
            "waitTime": 7265.916830523822,
            "responseTime": 1680759589203,
            "catchQuestion": "How many <b class=\"r\">red<\/b> marbles did your opponent report drawing? ",
            "catchKey": -1,
            "catchResponse": -1,
            "catchTime": 1680759528956,
            "trialTime": 0
        },
        {
            "exptPart": "trial",
            "trialNumber": 66,
            "roleCurrent": "receiver",
            "marblesSampled": 100,
            "probRed": 0.5,
            "practiceLambda": 5,
            "trialLambda": 0.3,
            "instructedLambda": "honest",
            "drawnRed": 51,
            "reportedRed": 51,
            "inferredRed": 50,
            "playerTrialScore": -1,
            "oppTrialScore": 0,
            "playerTotalScore": -247,
            "oppTotalScore": 78,
            "waitTime": 6067.262895232598,
            "responseTime": 1680759603387,
            "catchQuestion": "How many <b class=\"r\">red<\/b> marbles did your opponent report drawing? ",
            "catchKey": -1,
            "catchResponse": -1,
            "catchTime": 1680759528956,
            "trialTime": 0
        },
        {
            "exptPart": "trial",
            "trialNumber": 67,
            "roleCurrent": "receiver",
            "marblesSampled": 100,
            "probRed": 0.5,
            "practiceLambda": 5,
            "trialLambda": 0.3,
            "instructedLambda": "honest",
            "drawnRed": 39,
            "reportedRed": 39,
            "inferredRed": 38,
            "playerTrialScore": -1,
            "oppTrialScore": 0,
            "playerTotalScore": -248,
            "oppTotalScore": 78,
            "waitTime": 5337.781975328373,
            "responseTime": 1680759612640,
            "catchQuestion": "How many <b class=\"r\">red<\/b> marbles did your opponent report drawing? ",
            "catchKey": 39,
            "catchResponse": 39,
            "catchTime": 1680759612641,
            "trialTime": 0
        },
        {
            "exptPart": "trial",
            "trialNumber": 68,
            "roleCurrent": "receiver",
            "marblesSampled": 100,
            "probRed": 0.5,
            "practiceLambda": 5,
            "trialLambda": 0.3,
            "instructedLambda": "honest",
            "drawnRed": 40,
            "reportedRed": 40,
            "inferredRed": 38,
            "playerTrialScore": -2,
            "oppTrialScore": 0,
            "playerTotalScore": -250,
            "oppTotalScore": 78,
            "waitTime": 5815.069713931132,
            "responseTime": 1680759627069,
            "catchQuestion": "How many <b class=\"r\">red<\/b> marbles did your opponent report drawing? ",
            "catchKey": -1,
            "catchResponse": -1,
            "catchTime": 1680759612641,
            "trialTime": 0
        },
        {
            "exptPart": "trial",
            "trialNumber": 69,
            "roleCurrent": "receiver",
            "marblesSampled": 100,
            "probRed": 0.5,
            "practiceLambda": 5,
            "trialLambda": 0.3,
            "instructedLambda": "honest",
            "drawnRed": 71,
            "reportedRed": 72,
            "inferredRed": 68,
            "playerTrialScore": -3,
            "oppTrialScore": 0,
            "playerTotalScore": -253,
            "oppTotalScore": 78,
            "waitTime": 6951.182118999859,
            "responseTime": 1680759638042,
            "catchQuestion": "How many <b class=\"r\">red<\/b> marbles did your opponent report drawing? ",
            "catchKey": -1,
            "catchResponse": -1,
            "catchTime": 1680759612641,
            "trialTime": 0
        },
        {
            "exptPart": "trial",
            "trialNumber": 70,
            "roleCurrent": "receiver",
            "marblesSampled": 100,
            "probRed": 0.5,
            "practiceLambda": 5,
            "trialLambda": 0.3,
            "instructedLambda": "honest",
            "drawnRed": 51,
            "reportedRed": 51,
            "inferredRed": 48,
            "playerTrialScore": -3,
            "oppTrialScore": 0,
            "playerTotalScore": -256,
            "oppTotalScore": 78,
            "waitTime": 5626.091032945906,
            "responseTime": 1680759648028,
            "catchQuestion": "How many <b class=\"r\">red<\/b> marbles did your opponent report drawing? ",
            "catchKey": -1,
            "catchResponse": -1,
            "catchTime": 1680759648028,
            "trialTime": 0
        },
        {
            "exptPart": "trial",
            "trialNumber": 71,
            "roleCurrent": "receiver",
            "marblesSampled": 100,
            "probRed": 0.5,
            "practiceLambda": 5,
            "trialLambda": 0.3,
            "instructedLambda": "honest",
            "drawnRed": 87,
            "reportedRed": 87,
            "inferredRed": 86,
            "playerTrialScore": -1,
            "oppTrialScore": 0,
            "playerTotalScore": -257,
            "oppTotalScore": 78,
            "waitTime": 7038.034886981221,
            "responseTime": 1680759668491,
            "catchQuestion": "How many <b class=\"r\">red<\/b> marbles did your opponent report drawing? ",
            "catchKey": -1,
            "catchResponse": -1,
            "catchTime": 1680759648028,
            "trialTime": 0
        },
        {
            "exptPart": "trial",
            "trialNumber": 72,
            "roleCurrent": "receiver",
            "marblesSampled": 100,
            "probRed": 0.5,
            "practiceLambda": 5,
            "trialLambda": 0.3,
            "instructedLambda": "honest",
            "drawnRed": 43,
            "reportedRed": 43,
            "inferredRed": 42,
            "playerTrialScore": -1,
            "oppTrialScore": 0,
            "playerTotalScore": -258,
            "oppTotalScore": 78,
            "waitTime": 7477.2066984648945,
            "responseTime": 1680759678826,
            "catchQuestion": "How many <b class=\"r\">red<\/b> marbles did your opponent report drawing? ",
            "catchKey": -1,
            "catchResponse": -1,
            "catchTime": 1680759648028,
            "trialTime": 0
        },
        {
            "exptPart": "trial",
            "trialNumber": 73,
            "roleCurrent": "receiver",
            "marblesSampled": 100,
            "probRed": 0.5,
            "practiceLambda": 5,
            "trialLambda": 0.3,
            "instructedLambda": "honest",
            "drawnRed": 13,
            "reportedRed": 13,
            "inferredRed": 12,
            "playerTrialScore": -1,
            "oppTrialScore": 0,
            "playerTotalScore": -259,
            "oppTotalScore": 78,
            "waitTime": 5645.489414240232,
            "responseTime": 1680759688844,
            "catchQuestion": "How many <b class=\"r\">red<\/b> marbles did your opponent report drawing? ",
            "catchKey": -1,
            "catchResponse": -1,
            "catchTime": 1680759648028,
            "trialTime": 0
        },
        {
            "exptPart": "trial",
            "trialNumber": 74,
            "roleCurrent": "receiver",
            "marblesSampled": 100,
            "probRed": 0.5,
            "practiceLambda": 5,
            "trialLambda": 0.3,
            "instructedLambda": "honest",
            "drawnRed": 33,
            "reportedRed": 34,
            "inferredRed": 3,
            "playerTrialScore": -30,
            "oppTrialScore": 0,
            "playerTotalScore": -289,
            "oppTotalScore": 78,
            "waitTime": 6691.479295806689,
            "responseTime": 1680759698330,
            "catchQuestion": "How many <b class=\"r\">red<\/b> marbles did your opponent report drawing? ",
            "catchKey": -1,
            "catchResponse": -1,
            "catchTime": 1680759648028,
            "trialTime": 0
        },
        {
            "exptPart": "trial",
            "trialNumber": 75,
            "roleCurrent": "receiver",
            "marblesSampled": 100,
            "probRed": 0.5,
            "practiceLambda": 5,
            "trialLambda": 0.3,
            "instructedLambda": "honest",
            "drawnRed": 39,
            "reportedRed": 39,
            "inferredRed": 37,
            "playerTrialScore": -2,
            "oppTrialScore": 0,
            "playerTotalScore": -291,
            "oppTotalScore": 78,
            "waitTime": 6235.451880388792,
            "responseTime": 1680759708075,
            "catchQuestion": "How many <b class=\"r\">red<\/b> marbles did your opponent report drawing? ",
            "catchKey": -1,
            "catchResponse": -1,
            "catchTime": 1680759648028,
            "trialTime": 0
        },
        {
            "exptPart": "trial",
            "trialNumber": 76,
            "roleCurrent": "receiver",
            "marblesSampled": 100,
            "probRed": 0.5,
            "practiceLambda": 5,
            "trialLambda": 0.3,
            "instructedLambda": "honest",
            "drawnRed": 73,
            "reportedRed": 73,
            "inferredRed": 72,
            "playerTrialScore": -1,
            "oppTrialScore": 0,
            "playerTotalScore": -292,
            "oppTotalScore": 78,
            "waitTime": 5213.885489850019,
            "responseTime": 1680759718139,
            "catchQuestion": "How many <b class=\"r\">red<\/b> marbles did your opponent report drawing? ",
            "catchKey": -1,
            "catchResponse": -1,
            "catchTime": 1680759648028,
            "trialTime": 0
        },
        {
            "exptPart": "trial",
            "trialNumber": 77,
            "roleCurrent": "receiver",
            "marblesSampled": 100,
            "probRed": 0.5,
            "practiceLambda": 5,
            "trialLambda": 0.3,
            "instructedLambda": "honest",
            "drawnRed": 51,
            "reportedRed": 51,
            "inferredRed": 51,
            "playerTrialScore": 0,
            "oppTrialScore": 0,
            "playerTotalScore": -292,
            "oppTotalScore": 78,
            "waitTime": 5394.490781253555,
            "responseTime": 1680759727690,
            "catchQuestion": "How many <b class=\"r\">red<\/b> marbles did your opponent report drawing? ",
            "catchKey": -1,
            "catchResponse": -1,
            "catchTime": 1680759648028,
            "trialTime": 0
        },
        {
            "exptPart": "trial",
            "trialNumber": 78,
            "roleCurrent": "receiver",
            "marblesSampled": 100,
            "probRed": 0.5,
            "practiceLambda": 5,
            "trialLambda": 0.3,
            "instructedLambda": "honest",
            "drawnRed": 19,
            "reportedRed": 20,
            "inferredRed": 18,
            "playerTrialScore": -1,
            "oppTrialScore": 0,
            "playerTotalScore": -293,
            "oppTotalScore": 78,
            "waitTime": 5321.916743622172,
            "responseTime": 1680759739674,
            "catchQuestion": "How many <b class=\"r\">red<\/b> marbles did your opponent report drawing? ",
            "catchKey": 20,
            "catchResponse": 20,
            "catchTime": 1680759739674,
            "trialTime": 0
        },
        {
            "exptPart": "trial",
            "trialNumber": 79,
            "roleCurrent": "receiver",
            "marblesSampled": 100,
            "probRed": 0.5,
            "practiceLambda": 5,
            "trialLambda": 0.3,
            "instructedLambda": "honest",
            "drawnRed": 47,
            "reportedRed": 48,
            "inferredRed": 47,
            "playerTrialScore": 0,
            "oppTrialScore": 0,
            "playerTotalScore": -293,
            "oppTotalScore": 78,
            "waitTime": 5417.029765718906,
            "responseTime": 1680759756611,
            "catchQuestion": "How many <b class=\"r\">red<\/b> marbles did your opponent report drawing? ",
            "catchKey": -1,
            "catchResponse": -1,
            "catchTime": 1680759739674,
            "trialTime": 0
        },
        {
            "exptPart": "trial",
            "trialNumber": 80,
            "roleCurrent": "receiver",
            "marblesSampled": 100,
            "probRed": 0.5,
            "practiceLambda": 5,
            "trialLambda": 0.3,
            "instructedLambda": "honest",
            "drawnRed": 70,
            "reportedRed": 70,
            "inferredRed": 68,
            "playerTrialScore": -2,
            "oppTrialScore": 0,
            "playerTotalScore": -295,
            "oppTotalScore": 78,
            "waitTime": 5675.294481146972,
            "responseTime": 1680759764874,
            "catchQuestion": "How many <b class=\"r\">red<\/b> marbles did your opponent report drawing? ",
            "catchKey": -1,
            "catchResponse": -1,
            "catchTime": 1680759764874,
            "trialTime": 0
        },
        {
            "exptPart": "trial",
            "trialNumber": 81,
            "roleCurrent": "receiver",
            "marblesSampled": 100,
            "probRed": 0.5,
            "practiceLambda": 5,
            "trialLambda": 0.3,
            "instructedLambda": "honest",
            "drawnRed": 43,
            "reportedRed": 43,
            "inferredRed": 43,
            "playerTrialScore": 0,
            "oppTrialScore": 0,
            "playerTotalScore": -295,
            "oppTotalScore": 78,
            "waitTime": 5196.1166571244285,
            "responseTime": 1680759778731,
            "catchQuestion": "How many <b class=\"r\">red<\/b> marbles did your opponent report drawing? ",
            "catchKey": -1,
            "catchResponse": -1,
            "catchTime": 1680759764874,
            "trialTime": 0
        },
        {
            "exptPart": "trial",
            "trialNumber": 82,
            "roleCurrent": "receiver",
            "marblesSampled": 100,
            "probRed": 0.5,
            "practiceLambda": 5,
            "trialLambda": 0.3,
            "instructedLambda": "honest",
            "drawnRed": 68,
            "reportedRed": 69,
            "inferredRed": 68,
            "playerTrialScore": 0,
            "oppTrialScore": 0,
            "playerTotalScore": -295,
            "oppTotalScore": 78,
            "waitTime": 6553.092386247569,
            "responseTime": 1680759788650,
            "catchQuestion": "How many <b class=\"r\">red<\/b> marbles did your opponent report drawing? ",
            "catchKey": -1,
            "catchResponse": -1,
            "catchTime": 1680759764874,
            "trialTime": 0
        },
        {
            "exptPart": "trial",
            "trialNumber": 83,
            "roleCurrent": "receiver",
            "marblesSampled": 100,
            "probRed": 0.5,
            "practiceLambda": 5,
            "trialLambda": 0.3,
            "instructedLambda": "honest",
            "drawnRed": 19,
            "reportedRed": 19,
            "inferredRed": 19,
            "playerTrialScore": 0,
            "oppTrialScore": 0,
            "playerTotalScore": -295,
            "oppTotalScore": 78,
            "waitTime": 6459.489815379102,
            "responseTime": 1680759796978,
            "catchQuestion": "How many <b class=\"r\">red<\/b> marbles did your opponent report drawing? ",
            "catchKey": -1,
            "catchResponse": -1,
            "catchTime": 1680759764874,
            "trialTime": 0
        },
        {
            "exptPart": "trial",
            "trialNumber": 84,
            "roleCurrent": "receiver",
            "marblesSampled": 100,
            "probRed": 0.5,
            "practiceLambda": 5,
            "trialLambda": 0.3,
            "instructedLambda": "honest",
            "drawnRed": 21,
            "reportedRed": 21,
            "inferredRed": 21,
            "playerTrialScore": 0,
            "oppTrialScore": 0,
            "playerTotalScore": -295,
            "oppTotalScore": 78,
            "waitTime": 5365.441396760036,
            "responseTime": 1680759804522,
            "catchQuestion": "How many <b class=\"r\">red<\/b> marbles did your opponent report drawing? ",
            "catchKey": -1,
            "catchResponse": -1,
            "catchTime": 1680759764874,
            "trialTime": 0
        },
        {
            "exptPart": "trial",
            "trialNumber": 85,
            "roleCurrent": "receiver",
            "marblesSampled": 100,
            "probRed": 0.5,
            "practiceLambda": 5,
            "trialLambda": 0.3,
            "instructedLambda": "honest",
            "drawnRed": 70,
            "reportedRed": 70,
            "inferredRed": 70,
            "playerTrialScore": 0,
            "oppTrialScore": 0,
            "playerTotalScore": -295,
            "oppTotalScore": 78,
            "waitTime": 5581.379849718132,
            "responseTime": 1680759813361,
            "catchQuestion": "How many <b class=\"r\">red<\/b> marbles did your opponent report drawing? ",
            "catchKey": -1,
            "catchResponse": -1,
            "catchTime": 1680759764874,
            "trialTime": 0
        },
        {
            "exptPart": "trial",
            "trialNumber": 86,
            "roleCurrent": "receiver",
            "marblesSampled": 100,
            "probRed": 0.5,
            "practiceLambda": 5,
            "trialLambda": 0.3,
            "instructedLambda": "honest",
            "drawnRed": 32,
            "reportedRed": 32,
            "inferredRed": 32,
            "playerTrialScore": 0,
            "oppTrialScore": 0,
            "playerTotalScore": -295,
            "oppTotalScore": 78,
            "waitTime": 6084.024013989913,
            "responseTime": 1680759821899,
            "catchQuestion": "How many <b class=\"r\">red<\/b> marbles did your opponent report drawing? ",
            "catchKey": -1,
            "catchResponse": -1,
            "catchTime": 1680759764874,
            "trialTime": 0
        },
        {
            "exptPart": "trial",
            "trialNumber": 87,
            "roleCurrent": "receiver",
            "marblesSampled": 100,
            "probRed": 0.5,
            "practiceLambda": 5,
            "trialLambda": 0.3,
            "instructedLambda": "honest",
            "drawnRed": 28,
            "reportedRed": 29,
            "inferredRed": 29,
            "playerTrialScore": -1,
            "oppTrialScore": 1,
            "playerTotalScore": -296,
            "oppTotalScore": 79,
            "waitTime": 5425.5437347631005,
            "responseTime": 1680759830394,
            "catchQuestion": "How many <b class=\"r\">red<\/b> marbles did your opponent report drawing? ",
            "catchKey": -1,
            "catchResponse": -1,
            "catchTime": 1680759764874,
            "trialTime": 0
        },
        {
            "exptPart": "trial",
            "trialNumber": 88,
            "roleCurrent": "receiver",
            "marblesSampled": 100,
            "probRed": 0.5,
            "practiceLambda": 5,
            "trialLambda": 0.3,
            "instructedLambda": "honest",
            "drawnRed": 81,
            "reportedRed": 82,
            "inferredRed": 82,
            "playerTrialScore": -1,
            "oppTrialScore": 1,
            "playerTotalScore": -297,
            "oppTotalScore": 80,
            "waitTime": 5931.288443457853,
            "responseTime": 1680759840138,
            "catchQuestion": "How many <b class=\"r\">red<\/b> marbles did your opponent report drawing? ",
            "catchKey": -1,
            "catchResponse": -1,
            "catchTime": 1680759764874,
            "trialTime": 0
        },
        {
            "exptPart": "trial",
            "trialNumber": 89,
            "roleCurrent": "receiver",
            "marblesSampled": 100,
            "probRed": 0.5,
            "practiceLambda": 5,
            "trialLambda": 0.3,
            "instructedLambda": "honest",
            "drawnRed": 35,
            "reportedRed": 35,
            "inferredRed": 35,
            "playerTrialScore": 0,
            "oppTrialScore": 0,
            "playerTotalScore": -297,
            "oppTotalScore": 80,
            "waitTime": 6939.475562453956,
            "responseTime": 1680759849250,
            "catchQuestion": "How many <b class=\"r\">red<\/b> marbles did your opponent report drawing? ",
            "catchKey": -1,
            "catchResponse": -1,
            "catchTime": 1680759764874,
            "trialTime": 0
        },
        {
            "exptPart": "trial",
            "trialNumber": 90,
            "roleCurrent": "receiver",
            "marblesSampled": 100,
            "probRed": 0.5,
            "practiceLambda": 5,
            "trialLambda": 0.3,
            "instructedLambda": "honest",
            "drawnRed": 37,
            "reportedRed": 38,
            "inferredRed": 38,
            "playerTrialScore": -1,
            "oppTrialScore": 1,
            "playerTotalScore": -298,
            "oppTotalScore": 81,
            "waitTime": 5429.1619363646405,
            "responseTime": 1680759856642,
            "catchQuestion": "How many <b class=\"r\">red<\/b> marbles did your opponent report drawing? ",
            "catchKey": -1,
            "catchResponse": -1,
            "catchTime": 1680759856642,
            "trialTime": 0
        },
        {
            "exptPart": "trial",
            "trialNumber": 91,
            "roleCurrent": "receiver",
            "marblesSampled": 100,
            "probRed": 0.5,
            "practiceLambda": 5,
            "trialLambda": 0.3,
            "instructedLambda": "honest",
            "drawnRed": 48,
            "reportedRed": 49,
            "inferredRed": 49,
            "playerTrialScore": -1,
            "oppTrialScore": 1,
            "playerTotalScore": -299,
            "oppTotalScore": 82,
            "waitTime": 7229.116131720962,
            "responseTime": 1680759871746,
            "catchQuestion": "How many <b class=\"r\">red<\/b> marbles did your opponent report drawing? ",
            "catchKey": -1,
            "catchResponse": -1,
            "catchTime": 1680759856642,
            "trialTime": 0
        },
        {
            "exptPart": "trial",
            "trialNumber": 92,
            "roleCurrent": "receiver",
            "marblesSampled": 100,
            "probRed": 0.5,
            "practiceLambda": 5,
            "trialLambda": 0.3,
            "instructedLambda": "honest",
            "drawnRed": 54,
            "reportedRed": 54,
            "inferredRed": 54,
            "playerTrialScore": 0,
            "oppTrialScore": 0,
            "playerTotalScore": -299,
            "oppTotalScore": 82,
            "waitTime": 5133.8942532051915,
            "responseTime": 1680759879386,
            "catchQuestion": "How many <b class=\"r\">red<\/b> marbles did your opponent report drawing? ",
            "catchKey": -1,
            "catchResponse": -1,
            "catchTime": 1680759856642,
            "trialTime": 0
        },
        {
            "exptPart": "trial",
            "trialNumber": 93,
            "roleCurrent": "receiver",
            "marblesSampled": 100,
            "probRed": 0.5,
            "practiceLambda": 5,
            "trialLambda": 0.3,
            "instructedLambda": "honest",
            "drawnRed": 84,
            "reportedRed": 85,
            "inferredRed": 84,
            "playerTrialScore": 0,
            "oppTrialScore": 0,
            "playerTotalScore": -299,
            "oppTotalScore": 82,
            "waitTime": 5269.9928841375495,
            "responseTime": 1680759892667,
            "catchQuestion": "How many <b class=\"r\">red<\/b> marbles did your opponent report drawing? ",
            "catchKey": -1,
            "catchResponse": -1,
            "catchTime": 1680759856642,
            "trialTime": 0
        },
        {
            "exptPart": "trial",
            "trialNumber": 94,
            "roleCurrent": "receiver",
            "marblesSampled": 100,
            "probRed": 0.5,
            "practiceLambda": 5,
            "trialLambda": 0.3,
            "instructedLambda": "honest",
            "drawnRed": 55,
            "reportedRed": 55,
            "inferredRed": 54,
            "playerTrialScore": -1,
            "oppTrialScore": 0,
            "playerTotalScore": -300,
            "oppTotalScore": 82,
            "waitTime": 5568.379232957541,
            "responseTime": 1680759900931,
            "catchQuestion": "How many <b class=\"r\">red<\/b> marbles did your opponent report drawing? ",
            "catchKey": -1,
            "catchResponse": -1,
            "catchTime": 1680759856642,
            "trialTime": 0
        },
        {
            "exptPart": "trial",
            "trialNumber": 95,
            "roleCurrent": "receiver",
            "marblesSampled": 100,
            "probRed": 0.5,
            "practiceLambda": 5,
            "trialLambda": 0.3,
            "instructedLambda": "honest",
            "drawnRed": 77,
            "reportedRed": 77,
            "inferredRed": 76,
            "playerTrialScore": -1,
            "oppTrialScore": 0,
            "playerTotalScore": -301,
            "oppTotalScore": 82,
            "waitTime": 5524.5891949837,
            "responseTime": 1680759909571,
            "catchQuestion": "How many <b class=\"r\">red<\/b> marbles did your opponent report drawing? ",
            "catchKey": 77,
            "catchResponse": 77,
            "catchTime": 1680759909571,
            "trialTime": 0
        },
        {
            "exptPart": "trial",
            "trialNumber": 96,
            "roleCurrent": "receiver",
            "marblesSampled": 100,
            "probRed": 0.5,
            "practiceLambda": 5,
            "trialLambda": 0.3,
            "instructedLambda": "honest",
            "drawnRed": 83,
            "reportedRed": 83,
            "inferredRed": 83,
            "playerTrialScore": 0,
            "oppTrialScore": 0,
            "playerTotalScore": -301,
            "oppTotalScore": 82,
            "waitTime": 5361.1011478946075,
            "responseTime": 1680759924723,
            "catchQuestion": "How many <b class=\"r\">red<\/b> marbles did your opponent report drawing? ",
            "catchKey": 83,
            "catchResponse": 83,
            "catchTime": 1680759924723,
            "trialTime": 0
        },
        {
            "exptPart": "trial",
            "trialNumber": 97,
            "roleCurrent": "receiver",
            "marblesSampled": 100,
            "probRed": 0.5,
            "practiceLambda": 5,
            "trialLambda": 0.3,
            "instructedLambda": "honest",
            "drawnRed": 31,
            "reportedRed": 32,
            "inferredRed": 30,
            "playerTrialScore": -1,
            "oppTrialScore": 0,
            "playerTotalScore": -302,
            "oppTotalScore": 82,
            "waitTime": 5710.762573758477,
            "responseTime": 1680759937530,
            "catchQuestion": "How many <b class=\"r\">red<\/b> marbles did your opponent report drawing? ",
            "catchKey": -1,
            "catchResponse": -1,
            "catchTime": 1680759924723,
            "trialTime": 0
        },
        {
            "exptPart": "trial",
            "trialNumber": 98,
            "roleCurrent": "receiver",
            "marblesSampled": 100,
            "probRed": 0.5,
            "practiceLambda": 5,
            "trialLambda": 0.3,
            "instructedLambda": "honest",
            "drawnRed": 40,
            "reportedRed": 40,
            "inferredRed": 38,
            "playerTrialScore": -2,
            "oppTrialScore": 0,
            "playerTotalScore": -304,
            "oppTotalScore": 82,
            "waitTime": 5660.669710765632,
            "responseTime": 1680759945898,
            "catchQuestion": "How many <b class=\"r\">red<\/b> marbles did your opponent report drawing? ",
            "catchKey": -1,
            "catchResponse": -1,
            "catchTime": 1680759924723,
            "trialTime": 0
        },
        {
            "exptPart": "trial",
            "trialNumber": 99,
            "roleCurrent": "receiver",
            "marblesSampled": 100,
            "probRed": 0.5,
            "practiceLambda": 5,
            "trialLambda": 0.3,
            "instructedLambda": "honest",
            "drawnRed": 65,
            "reportedRed": 66,
            "inferredRed": 66,
            "playerTrialScore": -1,
            "oppTrialScore": 1,
            "playerTotalScore": -305,
            "oppTotalScore": 83,
            "waitTime": 5426.112040143578,
            "responseTime": 1680759956490,
            "catchQuestion": "How many <b class=\"r\">red<\/b> marbles did your opponent report drawing? ",
            "catchKey": -1,
            "catchResponse": -1,
            "catchTime": 1680759924723,
            "trialTime": 0
        },
        {
            "exptPart": "trial",
            "trialNumber": 100,
            "roleCurrent": "receiver",
            "marblesSampled": 100,
            "probRed": 0.5,
            "practiceLambda": 5,
            "trialLambda": 0.3,
            "instructedLambda": "honest",
            "drawnRed": 18,
            "reportedRed": 19,
            "inferredRed": 18,
            "playerTrialScore": 0,
            "oppTrialScore": 0,
            "playerTotalScore": -305,
            "oppTotalScore": 83,
            "waitTime": 5346.906772260726,
            "responseTime": 1680759964417,
            "catchQuestion": "How many <b class=\"r\">red<\/b> marbles did your opponent report drawing? ",
            "catchKey": -1,
            "catchResponse": -1,
            "catchTime": 1680759964417,
            "trialTime": 0
        }
    ]
}