{
    "client": {
        "type": "sona",
        "experiment_id": 2228,
        "credit_token": "b315147ae43241ea9c65086cb510cfb7",
        "survey_code": "36216",
        "sid": "sona-36216",
        "window": {
            "width": 1440,
            "height": 689
        },
        "screen": {
            "width": 1440,
            "height": 900
        },
        "userAgent": "Mozilla\/5.0 (Macintosh; Intel Mac OS X 10_15_7) AppleWebKit\/537.36 (KHTML, like Gecko) Chrome\/111.0.0.0 Safari\/537.36",
        "score": 0,
        "bonus": 0
    },
    "expt": {
        "saveURL": "submit.simple.php",
        "trials": 100,
        "practiceTrials": 2,
        "marblesSampled": 100,
        "probRed": 0.5,
        "practiceLambdaAI": 5,
        "lambdaAI": 21.9,
        "roles": [
            "sender",
            "receiver"
        ],
        "cost": "unif",
        "goal": "over",
        "oppDishonesty": "dishonest_big",
        "catchTrials": [
            30,
            92,
            91,
            29,
            24,
            8,
            12,
            61,
            85,
            55
        ],
        "scoreTotal": {
            "player": -3577,
            "opp": 277
        },
        "sona": {
            "experiment_id": 2228,
            "credit_token": "b315147ae43241ea9c65086cb510cfb7"
        },
        "pilot": false,
        "debug": false
    },
    "trials": [
        {
            "exptPart": "practice",
            "trialNumber": 1,
            "roleCurrent": "sender",
            "marblesSampled": 100,
            "probRed": 0.5,
            "practiceLambda": 5,
            "trialLambda": 21.9,
            "instructedLambda": "dishonest_big",
            "drawnRed": 40,
            "reportedRed": 40,
            "inferredRed": 39,
            "playerTrialScore": 0,
            "oppTrialScore": -1,
            "playerTotalScore": 0,
            "oppTotalScore": -1,
            "waitTime": 2270.0156702458416,
            "responseTime": 1680818380468,
            "catchQuestion": "How many <b class=\"r\">red<\/b> marbles did you actually draw (before any changes)? ",
            "catchKey": 40,
            "catchResponse": 40,
            "catchTime": 1680818380469,
            "trialTime": 0
        },
        {
            "exptPart": "practice",
            "trialNumber": 2,
            "roleCurrent": "receiver",
            "marblesSampled": 100,
            "probRed": 0.5,
            "practiceLambda": 5,
            "trialLambda": 21.9,
            "instructedLambda": "dishonest_big",
            "drawnRed": 4,
            "reportedRed": 7,
            "inferredRed": 40,
            "playerTrialScore": -36,
            "oppTrialScore": 36,
            "playerTotalScore": -36,
            "oppTotalScore": 35,
            "waitTime": 6780.365905003562,
            "responseTime": 1680818423716,
            "catchQuestion": "How many <b class=\"r\">red<\/b> marbles did your opponent report drawing? ",
            "catchKey": 7,
            "catchResponse": 7,
            "catchTime": 1680818423716,
            "trialTime": 0
        },
        {
            "exptPart": "trial",
            "trialNumber": 1,
            "roleCurrent": "receiver",
            "marblesSampled": 100,
            "probRed": 0.5,
            "practiceLambda": 5,
            "trialLambda": 21.9,
            "instructedLambda": "dishonest_big",
            "drawnRed": 41,
            "reportedRed": 66,
            "inferredRed": 50,
            "playerTrialScore": -9,
            "oppTrialScore": 9,
            "playerTotalScore": -9,
            "oppTotalScore": 9,
            "waitTime": 5680.150598510849,
            "responseTime": 1680818455682,
            "catchQuestion": "How many <b class=\"r\">red<\/b> marbles did your opponent report drawing? ",
            "catchKey": -1,
            "catchResponse": -1,
            "catchTime": 1680818423716,
            "trialTime": 0
        },
        {
            "exptPart": "trial",
            "trialNumber": 2,
            "roleCurrent": "receiver",
            "marblesSampled": 100,
            "probRed": 0.5,
            "practiceLambda": 5,
            "trialLambda": 21.9,
            "instructedLambda": "dishonest_big",
            "drawnRed": 27,
            "reportedRed": 49,
            "inferredRed": 50,
            "playerTrialScore": -23,
            "oppTrialScore": 23,
            "playerTotalScore": -32,
            "oppTotalScore": 32,
            "waitTime": 5683.951949588674,
            "responseTime": 1680818469866,
            "catchQuestion": "How many <b class=\"r\">red<\/b> marbles did your opponent report drawing? ",
            "catchKey": -1,
            "catchResponse": -1,
            "catchTime": 1680818423716,
            "trialTime": 0
        },
        {
            "exptPart": "trial",
            "trialNumber": 3,
            "roleCurrent": "receiver",
            "marblesSampled": 100,
            "probRed": 0.5,
            "practiceLambda": 5,
            "trialLambda": 21.9,
            "instructedLambda": "dishonest_big",
            "drawnRed": 57,
            "reportedRed": 79,
            "inferredRed": 70,
            "playerTrialScore": -13,
            "oppTrialScore": 13,
            "playerTotalScore": -45,
            "oppTotalScore": 45,
            "waitTime": 5987.927934612918,
            "responseTime": 1680818482816,
            "catchQuestion": "How many <b class=\"r\">red<\/b> marbles did your opponent report drawing? ",
            "catchKey": -1,
            "catchResponse": -1,
            "catchTime": 1680818423716,
            "trialTime": 0
        },
        {
            "exptPart": "trial",
            "trialNumber": 4,
            "roleCurrent": "receiver",
            "marblesSampled": 100,
            "probRed": 0.5,
            "practiceLambda": 5,
            "trialLambda": 21.9,
            "instructedLambda": "dishonest_big",
            "drawnRed": 62,
            "reportedRed": 87,
            "inferredRed": 80,
            "playerTrialScore": -18,
            "oppTrialScore": 18,
            "playerTotalScore": -63,
            "oppTotalScore": 63,
            "waitTime": 6492.741434943289,
            "responseTime": 1680818494684,
            "catchQuestion": "How many <b class=\"r\">red<\/b> marbles did your opponent report drawing? ",
            "catchKey": -1,
            "catchResponse": -1,
            "catchTime": 1680818423716,
            "trialTime": 0
        },
        {
            "exptPart": "trial",
            "trialNumber": 5,
            "roleCurrent": "receiver",
            "marblesSampled": 100,
            "probRed": 0.5,
            "practiceLambda": 5,
            "trialLambda": 21.9,
            "instructedLambda": "dishonest_big",
            "drawnRed": 63,
            "reportedRed": 87,
            "inferredRed": 80,
            "playerTrialScore": -17,
            "oppTrialScore": 17,
            "playerTotalScore": -80,
            "oppTotalScore": 80,
            "waitTime": 6113.928090341373,
            "responseTime": 1680818548632,
            "catchQuestion": "How many <b class=\"r\">red<\/b> marbles did your opponent report drawing? ",
            "catchKey": -1,
            "catchResponse": -1,
            "catchTime": 1680818423716,
            "trialTime": 0
        },
        {
            "exptPart": "trial",
            "trialNumber": 6,
            "roleCurrent": "receiver",
            "marblesSampled": 100,
            "probRed": 0.5,
            "practiceLambda": 5,
            "trialLambda": 21.9,
            "instructedLambda": "dishonest_big",
            "drawnRed": 69,
            "reportedRed": 89,
            "inferredRed": 8,
            "playerTrialScore": -61,
            "oppTrialScore": 0,
            "playerTotalScore": -141,
            "oppTotalScore": 80,
            "waitTime": 6741.508914780854,
            "responseTime": 1680818685463,
            "catchQuestion": "How many <b class=\"r\">red<\/b> marbles did your opponent report drawing? ",
            "catchKey": -1,
            "catchResponse": -1,
            "catchTime": 1680818423716,
            "trialTime": 0
        },
        {
            "exptPart": "trial",
            "trialNumber": 7,
            "roleCurrent": "receiver",
            "marblesSampled": 100,
            "probRed": 0.5,
            "practiceLambda": 5,
            "trialLambda": 21.9,
            "instructedLambda": "dishonest_big",
            "drawnRed": 80,
            "reportedRed": 100,
            "inferredRed": 60,
            "playerTrialScore": -20,
            "oppTrialScore": 0,
            "playerTotalScore": -161,
            "oppTotalScore": 80,
            "waitTime": 5997.8974088741725,
            "responseTime": 1680818699979,
            "catchQuestion": "How many <b class=\"r\">red<\/b> marbles did your opponent report drawing? ",
            "catchKey": -1,
            "catchResponse": -1,
            "catchTime": 1680818423716,
            "trialTime": 0
        },
        {
            "exptPart": "trial",
            "trialNumber": 8,
            "roleCurrent": "receiver",
            "marblesSampled": 100,
            "probRed": 0.5,
            "practiceLambda": 5,
            "trialLambda": 21.9,
            "instructedLambda": "dishonest_big",
            "drawnRed": 60,
            "reportedRed": 85,
            "inferredRed": 80,
            "playerTrialScore": -20,
            "oppTrialScore": 20,
            "playerTotalScore": -181,
            "oppTotalScore": 100,
            "waitTime": 5810.12271320059,
            "responseTime": 1680818708413,
            "catchQuestion": "How many <b class=\"r\">red<\/b> marbles did your opponent report drawing? ",
            "catchKey": -1,
            "catchResponse": -1,
            "catchTime": 1680818423716,
            "trialTime": 0
        },
        {
            "exptPart": "trial",
            "trialNumber": 9,
            "roleCurrent": "receiver",
            "marblesSampled": 100,
            "probRed": 0.5,
            "practiceLambda": 5,
            "trialLambda": 21.9,
            "instructedLambda": "dishonest_big",
            "drawnRed": 24,
            "reportedRed": 44,
            "inferredRed": 40,
            "playerTrialScore": -16,
            "oppTrialScore": 16,
            "playerTotalScore": -197,
            "oppTotalScore": 116,
            "waitTime": 6477.997463995749,
            "responseTime": 1680818717513,
            "catchQuestion": "How many <b class=\"r\">red<\/b> marbles did your opponent report drawing? ",
            "catchKey": 44,
            "catchResponse": 44,
            "catchTime": 1680818717513,
            "trialTime": 0
        },
        {
            "exptPart": "trial",
            "trialNumber": 10,
            "roleCurrent": "receiver",
            "marblesSampled": 100,
            "probRed": 0.5,
            "practiceLambda": 5,
            "trialLambda": 21.9,
            "instructedLambda": "dishonest_big",
            "drawnRed": 51,
            "reportedRed": 77,
            "inferredRed": 70,
            "playerTrialScore": -19,
            "oppTrialScore": 19,
            "playerTotalScore": -216,
            "oppTotalScore": 135,
            "waitTime": 5701.481627874175,
            "responseTime": 1680818731179,
            "catchQuestion": "How many <b class=\"r\">red<\/b> marbles did your opponent report drawing? ",
            "catchKey": -1,
            "catchResponse": -1,
            "catchTime": 1680818731179,
            "trialTime": 0
        },
        {
            "exptPart": "trial",
            "trialNumber": 11,
            "roleCurrent": "receiver",
            "marblesSampled": 100,
            "probRed": 0.5,
            "practiceLambda": 5,
            "trialLambda": 21.9,
            "instructedLambda": "dishonest_big",
            "drawnRed": 34,
            "reportedRed": 53,
            "inferredRed": 20,
            "playerTrialScore": -14,
            "oppTrialScore": 0,
            "playerTotalScore": -230,
            "oppTotalScore": 135,
            "waitTime": 5715.057851585218,
            "responseTime": 1680818743828,
            "catchQuestion": "How many <b class=\"r\">red<\/b> marbles did your opponent report drawing? ",
            "catchKey": -1,
            "catchResponse": -1,
            "catchTime": 1680818731179,
            "trialTime": 0
        },
        {
            "exptPart": "trial",
            "trialNumber": 12,
            "roleCurrent": "receiver",
            "marblesSampled": 100,
            "probRed": 0.5,
            "practiceLambda": 5,
            "trialLambda": 21.9,
            "instructedLambda": "dishonest_big",
            "drawnRed": 47,
            "reportedRed": 70,
            "inferredRed": 30,
            "playerTrialScore": -17,
            "oppTrialScore": 0,
            "playerTotalScore": -247,
            "oppTotalScore": 135,
            "waitTime": 7336.2120594349,
            "responseTime": 1680818754080,
            "catchQuestion": "How many <b class=\"r\">red<\/b> marbles did your opponent report drawing? ",
            "catchKey": -1,
            "catchResponse": -1,
            "catchTime": 1680818731179,
            "trialTime": 0
        },
        {
            "exptPart": "trial",
            "trialNumber": 13,
            "roleCurrent": "receiver",
            "marblesSampled": 100,
            "probRed": 0.5,
            "practiceLambda": 5,
            "trialLambda": 21.9,
            "instructedLambda": "dishonest_big",
            "drawnRed": 43,
            "reportedRed": 62,
            "inferredRed": 20,
            "playerTrialScore": -23,
            "oppTrialScore": 0,
            "playerTotalScore": -270,
            "oppTotalScore": 135,
            "waitTime": 6465.04630254784,
            "responseTime": 1680818763178,
            "catchQuestion": "How many <b class=\"r\">red<\/b> marbles did your opponent report drawing? ",
            "catchKey": 62,
            "catchResponse": 60,
            "catchTime": 1680818763178,
            "trialTime": 0
        },
        {
            "exptPart": "trial",
            "trialNumber": 14,
            "roleCurrent": "receiver",
            "marblesSampled": 100,
            "probRed": 0.5,
            "practiceLambda": 5,
            "trialLambda": 21.9,
            "instructedLambda": "dishonest_big",
            "drawnRed": 11,
            "reportedRed": 30,
            "inferredRed": 40,
            "playerTrialScore": -29,
            "oppTrialScore": 29,
            "playerTotalScore": -299,
            "oppTotalScore": 164,
            "waitTime": 5373.419973004218,
            "responseTime": 1680818779262,
            "catchQuestion": "How many <b class=\"r\">red<\/b> marbles did your opponent report drawing? ",
            "catchKey": -1,
            "catchResponse": -1,
            "catchTime": 1680818763178,
            "trialTime": 0
        },
        {
            "exptPart": "trial",
            "trialNumber": 15,
            "roleCurrent": "receiver",
            "marblesSampled": 100,
            "probRed": 0.5,
            "practiceLambda": 5,
            "trialLambda": 21.9,
            "instructedLambda": "dishonest_big",
            "drawnRed": 73,
            "reportedRed": 98,
            "inferredRed": 40,
            "playerTrialScore": -33,
            "oppTrialScore": 0,
            "playerTotalScore": -332,
            "oppTotalScore": 164,
            "waitTime": 5480.40201806105,
            "responseTime": 1680818789212,
            "catchQuestion": "How many <b class=\"r\">red<\/b> marbles did your opponent report drawing? ",
            "catchKey": -1,
            "catchResponse": -1,
            "catchTime": 1680818763178,
            "trialTime": 0
        },
        {
            "exptPart": "trial",
            "trialNumber": 16,
            "roleCurrent": "receiver",
            "marblesSampled": 100,
            "probRed": 0.5,
            "practiceLambda": 5,
            "trialLambda": 21.9,
            "instructedLambda": "dishonest_big",
            "drawnRed": 32,
            "reportedRed": 54,
            "inferredRed": 15,
            "playerTrialScore": -17,
            "oppTrialScore": 0,
            "playerTotalScore": -349,
            "oppTotalScore": 164,
            "waitTime": 5292.32770410983,
            "responseTime": 1680818801611,
            "catchQuestion": "How many <b class=\"r\">red<\/b> marbles did your opponent report drawing? ",
            "catchKey": -1,
            "catchResponse": -1,
            "catchTime": 1680818763178,
            "trialTime": 0
        },
        {
            "exptPart": "trial",
            "trialNumber": 17,
            "roleCurrent": "receiver",
            "marblesSampled": 100,
            "probRed": 0.5,
            "practiceLambda": 5,
            "trialLambda": 21.9,
            "instructedLambda": "dishonest_big",
            "drawnRed": 27,
            "reportedRed": 56,
            "inferredRed": 30,
            "playerTrialScore": -3,
            "oppTrialScore": 3,
            "playerTotalScore": -352,
            "oppTotalScore": 167,
            "waitTime": 7003.495304408452,
            "responseTime": 1680818824577,
            "catchQuestion": "How many <b class=\"r\">red<\/b> marbles did your opponent report drawing? ",
            "catchKey": -1,
            "catchResponse": -1,
            "catchTime": 1680818763178,
            "trialTime": 0
        },
        {
            "exptPart": "trial",
            "trialNumber": 18,
            "roleCurrent": "receiver",
            "marblesSampled": 100,
            "probRed": 0.5,
            "practiceLambda": 5,
            "trialLambda": 21.9,
            "instructedLambda": "dishonest_big",
            "drawnRed": 79,
            "reportedRed": 100,
            "inferredRed": 50,
            "playerTrialScore": -29,
            "oppTrialScore": 0,
            "playerTotalScore": -381,
            "oppTotalScore": 167,
            "waitTime": 5815.674252069696,
            "responseTime": 1680818834712,
            "catchQuestion": "How many <b class=\"r\">red<\/b> marbles did your opponent report drawing? ",
            "catchKey": -1,
            "catchResponse": -1,
            "catchTime": 1680818763178,
            "trialTime": 0
        },
        {
            "exptPart": "trial",
            "trialNumber": 19,
            "roleCurrent": "receiver",
            "marblesSampled": 100,
            "probRed": 0.5,
            "practiceLambda": 5,
            "trialLambda": 21.9,
            "instructedLambda": "dishonest_big",
            "drawnRed": 44,
            "reportedRed": 62,
            "inferredRed": 60,
            "playerTrialScore": -16,
            "oppTrialScore": 16,
            "playerTotalScore": -397,
            "oppTotalScore": 183,
            "waitTime": 6285.490998892157,
            "responseTime": 1680818850293,
            "catchQuestion": "How many <b class=\"r\">red<\/b> marbles did your opponent report drawing? ",
            "catchKey": -1,
            "catchResponse": -1,
            "catchTime": 1680818763178,
            "trialTime": 0
        },
        {
            "exptPart": "trial",
            "trialNumber": 20,
            "roleCurrent": "receiver",
            "marblesSampled": 100,
            "probRed": 0.5,
            "practiceLambda": 5,
            "trialLambda": 21.9,
            "instructedLambda": "dishonest_big",
            "drawnRed": 53,
            "reportedRed": 71,
            "inferredRed": 80,
            "playerTrialScore": -27,
            "oppTrialScore": 27,
            "playerTotalScore": -424,
            "oppTotalScore": 210,
            "waitTime": 7335.767569117227,
            "responseTime": 1680818902596,
            "catchQuestion": "How many <b class=\"r\">red<\/b> marbles did your opponent report drawing? ",
            "catchKey": -1,
            "catchResponse": -1,
            "catchTime": 1680818902596,
            "trialTime": 0
        },
        {
            "exptPart": "trial",
            "trialNumber": 21,
            "roleCurrent": "receiver",
            "marblesSampled": 100,
            "probRed": 0.5,
            "practiceLambda": 5,
            "trialLambda": 21.9,
            "instructedLambda": "dishonest_big",
            "drawnRed": 66,
            "reportedRed": 93,
            "inferredRed": 40,
            "playerTrialScore": -26,
            "oppTrialScore": 0,
            "playerTotalScore": -450,
            "oppTotalScore": 210,
            "waitTime": 6222.577482398332,
            "responseTime": 1680818958009,
            "catchQuestion": "How many <b class=\"r\">red<\/b> marbles did your opponent report drawing? ",
            "catchKey": -1,
            "catchResponse": -1,
            "catchTime": 1680818902596,
            "trialTime": 0
        },
        {
            "exptPart": "trial",
            "trialNumber": 22,
            "roleCurrent": "receiver",
            "marblesSampled": 100,
            "probRed": 0.5,
            "practiceLambda": 5,
            "trialLambda": 21.9,
            "instructedLambda": "dishonest_big",
            "drawnRed": 61,
            "reportedRed": 89,
            "inferredRed": 40,
            "playerTrialScore": -21,
            "oppTrialScore": 0,
            "playerTotalScore": -471,
            "oppTotalScore": 210,
            "waitTime": 7347.22207261962,
            "responseTime": 1680818967959,
            "catchQuestion": "How many <b class=\"r\">red<\/b> marbles did your opponent report drawing? ",
            "catchKey": -1,
            "catchResponse": -1,
            "catchTime": 1680818902596,
            "trialTime": 0
        },
        {
            "exptPart": "trial",
            "trialNumber": 23,
            "roleCurrent": "receiver",
            "marblesSampled": 100,
            "probRed": 0.5,
            "practiceLambda": 5,
            "trialLambda": 21.9,
            "instructedLambda": "dishonest_big",
            "drawnRed": 68,
            "reportedRed": 100,
            "inferredRed": 40,
            "playerTrialScore": -28,
            "oppTrialScore": 0,
            "playerTotalScore": -499,
            "oppTotalScore": 210,
            "waitTime": 5277.488968349648,
            "responseTime": 1680818975808,
            "catchQuestion": "How many <b class=\"r\">red<\/b> marbles did your opponent report drawing? ",
            "catchKey": -1,
            "catchResponse": -1,
            "catchTime": 1680818902596,
            "trialTime": 0
        },
        {
            "exptPart": "trial",
            "trialNumber": 24,
            "roleCurrent": "receiver",
            "marblesSampled": 100,
            "probRed": 0.5,
            "practiceLambda": 5,
            "trialLambda": 21.9,
            "instructedLambda": "dishonest_big",
            "drawnRed": 52,
            "reportedRed": 81,
            "inferredRed": 40,
            "playerTrialScore": -12,
            "oppTrialScore": 0,
            "playerTotalScore": -511,
            "oppTotalScore": 210,
            "waitTime": 5167.673280558922,
            "responseTime": 1680818984542,
            "catchQuestion": "How many <b class=\"r\">red<\/b> marbles did your opponent report drawing? ",
            "catchKey": -1,
            "catchResponse": -1,
            "catchTime": 1680818902596,
            "trialTime": 0
        },
        {
            "exptPart": "trial",
            "trialNumber": 25,
            "roleCurrent": "receiver",
            "marblesSampled": 100,
            "probRed": 0.5,
            "practiceLambda": 5,
            "trialLambda": 21.9,
            "instructedLambda": "dishonest_big",
            "drawnRed": 37,
            "reportedRed": 59,
            "inferredRed": 40,
            "playerTrialScore": -3,
            "oppTrialScore": 3,
            "playerTotalScore": -514,
            "oppTotalScore": 213,
            "waitTime": 5948.1266884989145,
            "responseTime": 1680818994141,
            "catchQuestion": "How many <b class=\"r\">red<\/b> marbles did your opponent report drawing? ",
            "catchKey": 59,
            "catchResponse": 59,
            "catchTime": 1680818994141,
            "trialTime": 0
        },
        {
            "exptPart": "trial",
            "trialNumber": 26,
            "roleCurrent": "receiver",
            "marblesSampled": 100,
            "probRed": 0.5,
            "practiceLambda": 5,
            "trialLambda": 21.9,
            "instructedLambda": "dishonest_big",
            "drawnRed": 35,
            "reportedRed": 58,
            "inferredRed": 0,
            "playerTrialScore": -35,
            "oppTrialScore": 0,
            "playerTotalScore": -549,
            "oppTotalScore": 213,
            "waitTime": 6978.480527669355,
            "responseTime": 1680819018324,
            "catchQuestion": "How many <b class=\"r\">red<\/b> marbles did your opponent report drawing? ",
            "catchKey": -1,
            "catchResponse": -1,
            "catchTime": 1680818994141,
            "trialTime": 0
        },
        {
            "exptPart": "trial",
            "trialNumber": 27,
            "roleCurrent": "receiver",
            "marblesSampled": 100,
            "probRed": 0.5,
            "practiceLambda": 5,
            "trialLambda": 21.9,
            "instructedLambda": "dishonest_big",
            "drawnRed": 31,
            "reportedRed": 48,
            "inferredRed": 40,
            "playerTrialScore": -9,
            "oppTrialScore": 9,
            "playerTotalScore": -558,
            "oppTotalScore": 222,
            "waitTime": 6877.34612864784,
            "responseTime": 1680819026942,
            "catchQuestion": "How many <b class=\"r\">red<\/b> marbles did your opponent report drawing? ",
            "catchKey": -1,
            "catchResponse": -1,
            "catchTime": 1680818994141,
            "trialTime": 0
        },
        {
            "exptPart": "trial",
            "trialNumber": 28,
            "roleCurrent": "receiver",
            "marblesSampled": 100,
            "probRed": 0.5,
            "practiceLambda": 5,
            "trialLambda": 21.9,
            "instructedLambda": "dishonest_big",
            "drawnRed": 52,
            "reportedRed": 71,
            "inferredRed": 40,
            "playerTrialScore": -12,
            "oppTrialScore": 0,
            "playerTotalScore": -570,
            "oppTotalScore": 222,
            "waitTime": 6341.526069541724,
            "responseTime": 1680819036307,
            "catchQuestion": "How many <b class=\"r\">red<\/b> marbles did your opponent report drawing? ",
            "catchKey": -1,
            "catchResponse": -1,
            "catchTime": 1680818994141,
            "trialTime": 0
        },
        {
            "exptPart": "trial",
            "trialNumber": 29,
            "roleCurrent": "receiver",
            "marblesSampled": 100,
            "probRed": 0.5,
            "practiceLambda": 5,
            "trialLambda": 21.9,
            "instructedLambda": "dishonest_big",
            "drawnRed": 69,
            "reportedRed": 87,
            "inferredRed": 40,
            "playerTrialScore": -29,
            "oppTrialScore": 0,
            "playerTotalScore": -599,
            "oppTotalScore": 222,
            "waitTime": 5381.5136652933925,
            "responseTime": 1680819046040,
            "catchQuestion": "How many <b class=\"r\">red<\/b> marbles did your opponent report drawing? ",
            "catchKey": -1,
            "catchResponse": -1,
            "catchTime": 1680818994141,
            "trialTime": 0
        },
        {
            "exptPart": "trial",
            "trialNumber": 30,
            "roleCurrent": "receiver",
            "marblesSampled": 100,
            "probRed": 0.5,
            "practiceLambda": 5,
            "trialLambda": 21.9,
            "instructedLambda": "dishonest_big",
            "drawnRed": 26,
            "reportedRed": 46,
            "inferredRed": 40,
            "playerTrialScore": -14,
            "oppTrialScore": 14,
            "playerTotalScore": -613,
            "oppTotalScore": 236,
            "waitTime": 5201.532181822662,
            "responseTime": 1680819066041,
            "catchQuestion": "How many <b class=\"r\">red<\/b> marbles did your opponent report drawing? ",
            "catchKey": 46,
            "catchResponse": 39,
            "catchTime": 1680819066041,
            "trialTime": 0
        },
        {
            "exptPart": "trial",
            "trialNumber": 31,
            "roleCurrent": "receiver",
            "marblesSampled": 100,
            "probRed": 0.5,
            "practiceLambda": 5,
            "trialLambda": 21.9,
            "instructedLambda": "dishonest_big",
            "drawnRed": 66,
            "reportedRed": 91,
            "inferredRed": 30,
            "playerTrialScore": -36,
            "oppTrialScore": 0,
            "playerTotalScore": -649,
            "oppTotalScore": 236,
            "waitTime": 6339.572940588519,
            "responseTime": 1680819089989,
            "catchQuestion": "How many <b class=\"r\">red<\/b> marbles did your opponent report drawing? ",
            "catchKey": 91,
            "catchResponse": 90,
            "catchTime": 1680819089990,
            "trialTime": 0
        },
        {
            "exptPart": "trial",
            "trialNumber": 32,
            "roleCurrent": "receiver",
            "marblesSampled": 100,
            "probRed": 0.5,
            "practiceLambda": 5,
            "trialLambda": 21.9,
            "instructedLambda": "dishonest_big",
            "drawnRed": 44,
            "reportedRed": 59,
            "inferredRed": 40,
            "playerTrialScore": -4,
            "oppTrialScore": 0,
            "playerTotalScore": -653,
            "oppTotalScore": 236,
            "waitTime": 6248.998961524754,
            "responseTime": 1680819105506,
            "catchQuestion": "How many <b class=\"r\">red<\/b> marbles did your opponent report drawing? ",
            "catchKey": -1,
            "catchResponse": -1,
            "catchTime": 1680819089990,
            "trialTime": 0
        },
        {
            "exptPart": "trial",
            "trialNumber": 33,
            "roleCurrent": "receiver",
            "marblesSampled": 100,
            "probRed": 0.5,
            "practiceLambda": 5,
            "trialLambda": 21.9,
            "instructedLambda": "dishonest_big",
            "drawnRed": 58,
            "reportedRed": 81,
            "inferredRed": 40,
            "playerTrialScore": -18,
            "oppTrialScore": 0,
            "playerTotalScore": -671,
            "oppTotalScore": 236,
            "waitTime": 5428.319566802067,
            "responseTime": 1680819113640,
            "catchQuestion": "How many <b class=\"r\">red<\/b> marbles did your opponent report drawing? ",
            "catchKey": -1,
            "catchResponse": -1,
            "catchTime": 1680819089990,
            "trialTime": 0
        },
        {
            "exptPart": "trial",
            "trialNumber": 34,
            "roleCurrent": "receiver",
            "marblesSampled": 100,
            "probRed": 0.5,
            "practiceLambda": 5,
            "trialLambda": 21.9,
            "instructedLambda": "dishonest_big",
            "drawnRed": 60,
            "reportedRed": 85,
            "inferredRed": 40,
            "playerTrialScore": -20,
            "oppTrialScore": 0,
            "playerTotalScore": -691,
            "oppTotalScore": 236,
            "waitTime": 5559.448533847999,
            "responseTime": 1680819121389,
            "catchQuestion": "How many <b class=\"r\">red<\/b> marbles did your opponent report drawing? ",
            "catchKey": -1,
            "catchResponse": -1,
            "catchTime": 1680819089990,
            "trialTime": 0
        },
        {
            "exptPart": "trial",
            "trialNumber": 35,
            "roleCurrent": "receiver",
            "marblesSampled": 100,
            "probRed": 0.5,
            "practiceLambda": 5,
            "trialLambda": 21.9,
            "instructedLambda": "dishonest_big",
            "drawnRed": 73,
            "reportedRed": 98,
            "inferredRed": 40,
            "playerTrialScore": -33,
            "oppTrialScore": 0,
            "playerTotalScore": -724,
            "oppTotalScore": 236,
            "waitTime": 7335.0613454526865,
            "responseTime": 1680819130956,
            "catchQuestion": "How many <b class=\"r\">red<\/b> marbles did your opponent report drawing? ",
            "catchKey": -1,
            "catchResponse": -1,
            "catchTime": 1680819089990,
            "trialTime": 0
        },
        {
            "exptPart": "trial",
            "trialNumber": 36,
            "roleCurrent": "receiver",
            "marblesSampled": 100,
            "probRed": 0.5,
            "practiceLambda": 5,
            "trialLambda": 21.9,
            "instructedLambda": "dishonest_big",
            "drawnRed": 88,
            "reportedRed": 100,
            "inferredRed": 40,
            "playerTrialScore": -48,
            "oppTrialScore": 0,
            "playerTotalScore": -772,
            "oppTotalScore": 236,
            "waitTime": 7349.137639565628,
            "responseTime": 1680819140355,
            "catchQuestion": "How many <b class=\"r\">red<\/b> marbles did your opponent report drawing? ",
            "catchKey": -1,
            "catchResponse": -1,
            "catchTime": 1680819089990,
            "trialTime": 0
        },
        {
            "exptPart": "trial",
            "trialNumber": 37,
            "roleCurrent": "receiver",
            "marblesSampled": 100,
            "probRed": 0.5,
            "practiceLambda": 5,
            "trialLambda": 21.9,
            "instructedLambda": "dishonest_big",
            "drawnRed": 39,
            "reportedRed": 58,
            "inferredRed": 23,
            "playerTrialScore": -16,
            "oppTrialScore": 0,
            "playerTotalScore": -788,
            "oppTotalScore": 236,
            "waitTime": 5149.080264229082,
            "responseTime": 1680819147489,
            "catchQuestion": "How many <b class=\"r\">red<\/b> marbles did your opponent report drawing? ",
            "catchKey": -1,
            "catchResponse": -1,
            "catchTime": 1680819089990,
            "trialTime": 0
        },
        {
            "exptPart": "trial",
            "trialNumber": 38,
            "roleCurrent": "receiver",
            "marblesSampled": 100,
            "probRed": 0.5,
            "practiceLambda": 5,
            "trialLambda": 21.9,
            "instructedLambda": "dishonest_big",
            "drawnRed": 46,
            "reportedRed": 63,
            "inferredRed": 24,
            "playerTrialScore": -22,
            "oppTrialScore": 0,
            "playerTotalScore": -810,
            "oppTotalScore": 236,
            "waitTime": 6311.965742776454,
            "responseTime": 1680819155622,
            "catchQuestion": "How many <b class=\"r\">red<\/b> marbles did your opponent report drawing? ",
            "catchKey": -1,
            "catchResponse": -1,
            "catchTime": 1680819089990,
            "trialTime": 0
        },
        {
            "exptPart": "trial",
            "trialNumber": 39,
            "roleCurrent": "receiver",
            "marblesSampled": 100,
            "probRed": 0.5,
            "practiceLambda": 5,
            "trialLambda": 21.9,
            "instructedLambda": "dishonest_big",
            "drawnRed": 30,
            "reportedRed": 46,
            "inferredRed": 45,
            "playerTrialScore": -15,
            "oppTrialScore": 15,
            "playerTotalScore": -825,
            "oppTotalScore": 251,
            "waitTime": 7305.236059577129,
            "responseTime": 1680819164973,
            "catchQuestion": "How many <b class=\"r\">red<\/b> marbles did your opponent report drawing? ",
            "catchKey": -1,
            "catchResponse": -1,
            "catchTime": 1680819089990,
            "trialTime": 0
        },
        {
            "exptPart": "trial",
            "trialNumber": 40,
            "roleCurrent": "receiver",
            "marblesSampled": 100,
            "probRed": 0.5,
            "practiceLambda": 5,
            "trialLambda": 21.9,
            "instructedLambda": "dishonest_big",
            "drawnRed": 81,
            "reportedRed": 100,
            "inferredRed": 23,
            "playerTrialScore": -58,
            "oppTrialScore": 0,
            "playerTotalScore": -883,
            "oppTotalScore": 251,
            "waitTime": 7377.2296954396315,
            "responseTime": 1680819173971,
            "catchQuestion": "How many <b class=\"r\">red<\/b> marbles did your opponent report drawing? ",
            "catchKey": -1,
            "catchResponse": -1,
            "catchTime": 1680819173971,
            "trialTime": 0
        },
        {
            "exptPart": "trial",
            "trialNumber": 41,
            "roleCurrent": "receiver",
            "marblesSampled": 100,
            "probRed": 0.5,
            "practiceLambda": 5,
            "trialLambda": 21.9,
            "instructedLambda": "dishonest_big",
            "drawnRed": 22,
            "reportedRed": 35,
            "inferredRed": 0,
            "playerTrialScore": -22,
            "oppTrialScore": 0,
            "playerTotalScore": -905,
            "oppTotalScore": 251,
            "waitTime": 6951.987451123012,
            "responseTime": 1680819185389,
            "catchQuestion": "How many <b class=\"r\">red<\/b> marbles did your opponent report drawing? ",
            "catchKey": -1,
            "catchResponse": -1,
            "catchTime": 1680819173971,
            "trialTime": 0
        },
        {
            "exptPart": "trial",
            "trialNumber": 42,
            "roleCurrent": "receiver",
            "marblesSampled": 100,
            "probRed": 0.5,
            "practiceLambda": 5,
            "trialLambda": 21.9,
            "instructedLambda": "dishonest_big",
            "drawnRed": 83,
            "reportedRed": 100,
            "inferredRed": 3,
            "playerTrialScore": -80,
            "oppTrialScore": 0,
            "playerTotalScore": -985,
            "oppTotalScore": 251,
            "waitTime": 6807.432113218965,
            "responseTime": 1680819195371,
            "catchQuestion": "How many <b class=\"r\">red<\/b> marbles did your opponent report drawing? ",
            "catchKey": -1,
            "catchResponse": -1,
            "catchTime": 1680819173971,
            "trialTime": 0
        },
        {
            "exptPart": "trial",
            "trialNumber": 43,
            "roleCurrent": "receiver",
            "marblesSampled": 100,
            "probRed": 0.5,
            "practiceLambda": 5,
            "trialLambda": 21.9,
            "instructedLambda": "dishonest_big",
            "drawnRed": 58,
            "reportedRed": 76,
            "inferredRed": 3,
            "playerTrialScore": -55,
            "oppTrialScore": 0,
            "playerTotalScore": -1040,
            "oppTotalScore": 251,
            "waitTime": 6477.6120867341,
            "responseTime": 1680819203805,
            "catchQuestion": "How many <b class=\"r\">red<\/b> marbles did your opponent report drawing? ",
            "catchKey": -1,
            "catchResponse": -1,
            "catchTime": 1680819173971,
            "trialTime": 0
        },
        {
            "exptPart": "trial",
            "trialNumber": 44,
            "roleCurrent": "receiver",
            "marblesSampled": 100,
            "probRed": 0.5,
            "practiceLambda": 5,
            "trialLambda": 21.9,
            "instructedLambda": "dishonest_big",
            "drawnRed": 44,
            "reportedRed": 63,
            "inferredRed": 3,
            "playerTrialScore": -41,
            "oppTrialScore": 0,
            "playerTotalScore": -1081,
            "oppTotalScore": 251,
            "waitTime": 5595.650902130302,
            "responseTime": 1680819211289,
            "catchQuestion": "How many <b class=\"r\">red<\/b> marbles did your opponent report drawing? ",
            "catchKey": -1,
            "catchResponse": -1,
            "catchTime": 1680819173971,
            "trialTime": 0
        },
        {
            "exptPart": "trial",
            "trialNumber": 45,
            "roleCurrent": "receiver",
            "marblesSampled": 100,
            "probRed": 0.5,
            "practiceLambda": 5,
            "trialLambda": 21.9,
            "instructedLambda": "dishonest_big",
            "drawnRed": 66,
            "reportedRed": 89,
            "inferredRed": 3,
            "playerTrialScore": -63,
            "oppTrialScore": 0,
            "playerTotalScore": -1144,
            "oppTotalScore": 251,
            "waitTime": 6184.739727998781,
            "responseTime": 1680819219454,
            "catchQuestion": "How many <b class=\"r\">red<\/b> marbles did your opponent report drawing? ",
            "catchKey": -1,
            "catchResponse": -1,
            "catchTime": 1680819173971,
            "trialTime": 0
        },
        {
            "exptPart": "trial",
            "trialNumber": 46,
            "roleCurrent": "receiver",
            "marblesSampled": 100,
            "probRed": 0.5,
            "practiceLambda": 5,
            "trialLambda": 21.9,
            "instructedLambda": "dishonest_big",
            "drawnRed": 19,
            "reportedRed": 45,
            "inferredRed": 3,
            "playerTrialScore": -16,
            "oppTrialScore": 0,
            "playerTotalScore": -1160,
            "oppTotalScore": 251,
            "waitTime": 5854.468099745135,
            "responseTime": 1680819226887,
            "catchQuestion": "How many <b class=\"r\">red<\/b> marbles did your opponent report drawing? ",
            "catchKey": -1,
            "catchResponse": -1,
            "catchTime": 1680819173971,
            "trialTime": 0
        },
        {
            "exptPart": "trial",
            "trialNumber": 47,
            "roleCurrent": "receiver",
            "marblesSampled": 100,
            "probRed": 0.5,
            "practiceLambda": 5,
            "trialLambda": 21.9,
            "instructedLambda": "dishonest_big",
            "drawnRed": 36,
            "reportedRed": 68,
            "inferredRed": 3,
            "playerTrialScore": -33,
            "oppTrialScore": 0,
            "playerTotalScore": -1193,
            "oppTotalScore": 251,
            "waitTime": 5587.3057831107,
            "responseTime": 1680819234387,
            "catchQuestion": "How many <b class=\"r\">red<\/b> marbles did your opponent report drawing? ",
            "catchKey": -1,
            "catchResponse": -1,
            "catchTime": 1680819173971,
            "trialTime": 0
        },
        {
            "exptPart": "trial",
            "trialNumber": 48,
            "roleCurrent": "receiver",
            "marblesSampled": 100,
            "probRed": 0.5,
            "practiceLambda": 5,
            "trialLambda": 21.9,
            "instructedLambda": "dishonest_big",
            "drawnRed": 31,
            "reportedRed": 57,
            "inferredRed": 3,
            "playerTrialScore": -28,
            "oppTrialScore": 0,
            "playerTotalScore": -1221,
            "oppTotalScore": 251,
            "waitTime": 6327.627180600617,
            "responseTime": 1680819243272,
            "catchQuestion": "How many <b class=\"r\">red<\/b> marbles did your opponent report drawing? ",
            "catchKey": -1,
            "catchResponse": -1,
            "catchTime": 1680819173971,
            "trialTime": 0
        },
        {
            "exptPart": "trial",
            "trialNumber": 49,
            "roleCurrent": "receiver",
            "marblesSampled": 100,
            "probRed": 0.5,
            "practiceLambda": 5,
            "trialLambda": 21.9,
            "instructedLambda": "dishonest_big",
            "drawnRed": 51,
            "reportedRed": 72,
            "inferredRed": 3,
            "playerTrialScore": -48,
            "oppTrialScore": 0,
            "playerTotalScore": -1269,
            "oppTotalScore": 251,
            "waitTime": 6510.675064295977,
            "responseTime": 1680819252104,
            "catchQuestion": "How many <b class=\"r\">red<\/b> marbles did your opponent report drawing? ",
            "catchKey": -1,
            "catchResponse": -1,
            "catchTime": 1680819173971,
            "trialTime": 0
        },
        {
            "exptPart": "trial",
            "trialNumber": 50,
            "roleCurrent": "receiver",
            "marblesSampled": 100,
            "probRed": 0.5,
            "practiceLambda": 5,
            "trialLambda": 21.9,
            "instructedLambda": "dishonest_big",
            "drawnRed": 74,
            "reportedRed": 98,
            "inferredRed": 3,
            "playerTrialScore": -71,
            "oppTrialScore": 0,
            "playerTotalScore": -1340,
            "oppTotalScore": 251,
            "waitTime": 6854.369263603842,
            "responseTime": 1680819260738,
            "catchQuestion": "How many <b class=\"r\">red<\/b> marbles did your opponent report drawing? ",
            "catchKey": -1,
            "catchResponse": -1,
            "catchTime": 1680819260738,
            "trialTime": 0
        },
        {
            "exptPart": "trial",
            "trialNumber": 51,
            "roleCurrent": "receiver",
            "marblesSampled": 100,
            "probRed": 0.5,
            "practiceLambda": 5,
            "trialLambda": 21.9,
            "instructedLambda": "dishonest_big",
            "drawnRed": 59,
            "reportedRed": 86,
            "inferredRed": 3,
            "playerTrialScore": -56,
            "oppTrialScore": 0,
            "playerTotalScore": -1396,
            "oppTotalScore": 251,
            "waitTime": 5663.521036790002,
            "responseTime": 1680819269120,
            "catchQuestion": "How many <b class=\"r\">red<\/b> marbles did your opponent report drawing? ",
            "catchKey": -1,
            "catchResponse": -1,
            "catchTime": 1680819260738,
            "trialTime": 0
        },
        {
            "exptPart": "trial",
            "trialNumber": 52,
            "roleCurrent": "receiver",
            "marblesSampled": 100,
            "probRed": 0.5,
            "practiceLambda": 5,
            "trialLambda": 21.9,
            "instructedLambda": "dishonest_big",
            "drawnRed": 37,
            "reportedRed": 58,
            "inferredRed": 3,
            "playerTrialScore": -34,
            "oppTrialScore": 0,
            "playerTotalScore": -1430,
            "oppTotalScore": 251,
            "waitTime": 7165.565777463411,
            "responseTime": 1680819277787,
            "catchQuestion": "How many <b class=\"r\">red<\/b> marbles did your opponent report drawing? ",
            "catchKey": -1,
            "catchResponse": -1,
            "catchTime": 1680819260738,
            "trialTime": 0
        },
        {
            "exptPart": "trial",
            "trialNumber": 53,
            "roleCurrent": "receiver",
            "marblesSampled": 100,
            "probRed": 0.5,
            "practiceLambda": 5,
            "trialLambda": 21.9,
            "instructedLambda": "dishonest_big",
            "drawnRed": 56,
            "reportedRed": 80,
            "inferredRed": 4,
            "playerTrialScore": -52,
            "oppTrialScore": 0,
            "playerTotalScore": -1482,
            "oppTotalScore": 251,
            "waitTime": 6805.33851395258,
            "responseTime": 1680819285988,
            "catchQuestion": "How many <b class=\"r\">red<\/b> marbles did your opponent report drawing? ",
            "catchKey": -1,
            "catchResponse": -1,
            "catchTime": 1680819260738,
            "trialTime": 0
        },
        {
            "exptPart": "trial",
            "trialNumber": 54,
            "roleCurrent": "receiver",
            "marblesSampled": 100,
            "probRed": 0.5,
            "practiceLambda": 5,
            "trialLambda": 21.9,
            "instructedLambda": "dishonest_big",
            "drawnRed": 69,
            "reportedRed": 89,
            "inferredRed": 4,
            "playerTrialScore": -65,
            "oppTrialScore": 0,
            "playerTotalScore": -1547,
            "oppTotalScore": 251,
            "waitTime": 5728.649927745653,
            "responseTime": 1680819294537,
            "catchQuestion": "How many <b class=\"r\">red<\/b> marbles did your opponent report drawing? ",
            "catchKey": -1,
            "catchResponse": -1,
            "catchTime": 1680819260738,
            "trialTime": 0
        },
        {
            "exptPart": "trial",
            "trialNumber": 55,
            "roleCurrent": "receiver",
            "marblesSampled": 100,
            "probRed": 0.5,
            "practiceLambda": 5,
            "trialLambda": 21.9,
            "instructedLambda": "dishonest_big",
            "drawnRed": 48,
            "reportedRed": 77,
            "inferredRed": 3,
            "playerTrialScore": -45,
            "oppTrialScore": 0,
            "playerTotalScore": -1592,
            "oppTotalScore": 251,
            "waitTime": 5645.157260263996,
            "responseTime": 1680819308439,
            "catchQuestion": "How many <b class=\"r\">red<\/b> marbles did your opponent report drawing? ",
            "catchKey": -1,
            "catchResponse": -1,
            "catchTime": 1680819260738,
            "trialTime": 0
        },
        {
            "exptPart": "trial",
            "trialNumber": 56,
            "roleCurrent": "receiver",
            "marblesSampled": 100,
            "probRed": 0.5,
            "practiceLambda": 5,
            "trialLambda": 21.9,
            "instructedLambda": "dishonest_big",
            "drawnRed": 6,
            "reportedRed": 23,
            "inferredRed": 4,
            "playerTrialScore": -2,
            "oppTrialScore": 0,
            "playerTotalScore": -1594,
            "oppTotalScore": 251,
            "waitTime": 6493.811282931524,
            "responseTime": 1680819317753,
            "catchQuestion": "How many <b class=\"r\">red<\/b> marbles did your opponent report drawing? ",
            "catchKey": 23,
            "catchResponse": 73,
            "catchTime": 1680819317754,
            "trialTime": 0
        },
        {
            "exptPart": "trial",
            "trialNumber": 57,
            "roleCurrent": "receiver",
            "marblesSampled": 100,
            "probRed": 0.5,
            "practiceLambda": 5,
            "trialLambda": 21.9,
            "instructedLambda": "dishonest_big",
            "drawnRed": 74,
            "reportedRed": 90,
            "inferredRed": 3,
            "playerTrialScore": -71,
            "oppTrialScore": 0,
            "playerTotalScore": -1665,
            "oppTotalScore": 251,
            "waitTime": 5927.677611581345,
            "responseTime": 1680819333887,
            "catchQuestion": "How many <b class=\"r\">red<\/b> marbles did your opponent report drawing? ",
            "catchKey": -1,
            "catchResponse": -1,
            "catchTime": 1680819317754,
            "trialTime": 0
        },
        {
            "exptPart": "trial",
            "trialNumber": 58,
            "roleCurrent": "receiver",
            "marblesSampled": 100,
            "probRed": 0.5,
            "practiceLambda": 5,
            "trialLambda": 21.9,
            "instructedLambda": "dishonest_big",
            "drawnRed": 84,
            "reportedRed": 100,
            "inferredRed": 3,
            "playerTrialScore": -81,
            "oppTrialScore": 0,
            "playerTotalScore": -1746,
            "oppTotalScore": 251,
            "waitTime": 6931.877639638793,
            "responseTime": 1680819342802,
            "catchQuestion": "How many <b class=\"r\">red<\/b> marbles did your opponent report drawing? ",
            "catchKey": -1,
            "catchResponse": -1,
            "catchTime": 1680819317754,
            "trialTime": 0
        },
        {
            "exptPart": "trial",
            "trialNumber": 59,
            "roleCurrent": "receiver",
            "marblesSampled": 100,
            "probRed": 0.5,
            "practiceLambda": 5,
            "trialLambda": 21.9,
            "instructedLambda": "dishonest_big",
            "drawnRed": 54,
            "reportedRed": 69,
            "inferredRed": 3,
            "playerTrialScore": -51,
            "oppTrialScore": 0,
            "playerTotalScore": -1797,
            "oppTotalScore": 251,
            "waitTime": 5252.917770199294,
            "responseTime": 1680819352436,
            "catchQuestion": "How many <b class=\"r\">red<\/b> marbles did your opponent report drawing? ",
            "catchKey": -1,
            "catchResponse": -1,
            "catchTime": 1680819317754,
            "trialTime": 0
        },
        {
            "exptPart": "trial",
            "trialNumber": 60,
            "roleCurrent": "receiver",
            "marblesSampled": 100,
            "probRed": 0.5,
            "practiceLambda": 5,
            "trialLambda": 21.9,
            "instructedLambda": "dishonest_big",
            "drawnRed": 74,
            "reportedRed": 95,
            "inferredRed": 3,
            "playerTrialScore": -71,
            "oppTrialScore": 0,
            "playerTotalScore": -1868,
            "oppTotalScore": 251,
            "waitTime": 7354.824840528439,
            "responseTime": 1680819361552,
            "catchQuestion": "How many <b class=\"r\">red<\/b> marbles did your opponent report drawing? ",
            "catchKey": -1,
            "catchResponse": -1,
            "catchTime": 1680819361552,
            "trialTime": 0
        },
        {
            "exptPart": "trial",
            "trialNumber": 61,
            "roleCurrent": "receiver",
            "marblesSampled": 100,
            "probRed": 0.5,
            "practiceLambda": 5,
            "trialLambda": 21.9,
            "instructedLambda": "dishonest_big",
            "drawnRed": 21,
            "reportedRed": 52,
            "inferredRed": 3,
            "playerTrialScore": -18,
            "oppTrialScore": 0,
            "playerTotalScore": -1886,
            "oppTotalScore": 251,
            "waitTime": 6844.577591521773,
            "responseTime": 1680819370902,
            "catchQuestion": "How many <b class=\"r\">red<\/b> marbles did your opponent report drawing? ",
            "catchKey": -1,
            "catchResponse": -1,
            "catchTime": 1680819361552,
            "trialTime": 0
        },
        {
            "exptPart": "trial",
            "trialNumber": 62,
            "roleCurrent": "receiver",
            "marblesSampled": 100,
            "probRed": 0.5,
            "practiceLambda": 5,
            "trialLambda": 21.9,
            "instructedLambda": "dishonest_big",
            "drawnRed": 71,
            "reportedRed": 91,
            "inferredRed": 3,
            "playerTrialScore": -68,
            "oppTrialScore": 0,
            "playerTotalScore": -1954,
            "oppTotalScore": 251,
            "waitTime": 6105.818442178705,
            "responseTime": 1680819379569,
            "catchQuestion": "How many <b class=\"r\">red<\/b> marbles did your opponent report drawing? ",
            "catchKey": 91,
            "catchResponse": 91,
            "catchTime": 1680819379569,
            "trialTime": 0
        },
        {
            "exptPart": "trial",
            "trialNumber": 63,
            "roleCurrent": "receiver",
            "marblesSampled": 100,
            "probRed": 0.5,
            "practiceLambda": 5,
            "trialLambda": 21.9,
            "instructedLambda": "dishonest_big",
            "drawnRed": 38,
            "reportedRed": 65,
            "inferredRed": 3,
            "playerTrialScore": -35,
            "oppTrialScore": 0,
            "playerTotalScore": -1989,
            "oppTotalScore": 251,
            "waitTime": 5415.653268624343,
            "responseTime": 1680819390368,
            "catchQuestion": "How many <b class=\"r\">red<\/b> marbles did your opponent report drawing? ",
            "catchKey": -1,
            "catchResponse": -1,
            "catchTime": 1680819379569,
            "trialTime": 0
        },
        {
            "exptPart": "trial",
            "trialNumber": 64,
            "roleCurrent": "receiver",
            "marblesSampled": 100,
            "probRed": 0.5,
            "practiceLambda": 5,
            "trialLambda": 21.9,
            "instructedLambda": "dishonest_big",
            "drawnRed": 32,
            "reportedRed": 64,
            "inferredRed": 4,
            "playerTrialScore": -28,
            "oppTrialScore": 0,
            "playerTotalScore": -2017,
            "oppTotalScore": 251,
            "waitTime": 6143.526054929826,
            "responseTime": 1680819411735,
            "catchQuestion": "How many <b class=\"r\">red<\/b> marbles did your opponent report drawing? ",
            "catchKey": -1,
            "catchResponse": -1,
            "catchTime": 1680819379569,
            "trialTime": 0
        },
        {
            "exptPart": "trial",
            "trialNumber": 65,
            "roleCurrent": "receiver",
            "marblesSampled": 100,
            "probRed": 0.5,
            "practiceLambda": 5,
            "trialLambda": 21.9,
            "instructedLambda": "dishonest_big",
            "drawnRed": 22,
            "reportedRed": 43,
            "inferredRed": 4,
            "playerTrialScore": -18,
            "oppTrialScore": 0,
            "playerTotalScore": -2035,
            "oppTotalScore": 251,
            "waitTime": 6881.910826297693,
            "responseTime": 1680819421652,
            "catchQuestion": "How many <b class=\"r\">red<\/b> marbles did your opponent report drawing? ",
            "catchKey": -1,
            "catchResponse": -1,
            "catchTime": 1680819379569,
            "trialTime": 0
        },
        {
            "exptPart": "trial",
            "trialNumber": 66,
            "roleCurrent": "receiver",
            "marblesSampled": 100,
            "probRed": 0.5,
            "practiceLambda": 5,
            "trialLambda": 21.9,
            "instructedLambda": "dishonest_big",
            "drawnRed": 36,
            "reportedRed": 54,
            "inferredRed": 4,
            "playerTrialScore": -32,
            "oppTrialScore": 0,
            "playerTotalScore": -2067,
            "oppTotalScore": 251,
            "waitTime": 7029.313654546879,
            "responseTime": 1680819433485,
            "catchQuestion": "How many <b class=\"r\">red<\/b> marbles did your opponent report drawing? ",
            "catchKey": -1,
            "catchResponse": -1,
            "catchTime": 1680819379569,
            "trialTime": 0
        },
        {
            "exptPart": "trial",
            "trialNumber": 67,
            "roleCurrent": "receiver",
            "marblesSampled": 100,
            "probRed": 0.5,
            "practiceLambda": 5,
            "trialLambda": 21.9,
            "instructedLambda": "dishonest_big",
            "drawnRed": 24,
            "reportedRed": 45,
            "inferredRed": 2,
            "playerTrialScore": -22,
            "oppTrialScore": 0,
            "playerTotalScore": -2089,
            "oppTotalScore": 251,
            "waitTime": 6661.30916003126,
            "responseTime": 1680819443968,
            "catchQuestion": "How many <b class=\"r\">red<\/b> marbles did your opponent report drawing? ",
            "catchKey": -1,
            "catchResponse": -1,
            "catchTime": 1680819379569,
            "trialTime": 0
        },
        {
            "exptPart": "trial",
            "trialNumber": 68,
            "roleCurrent": "receiver",
            "marblesSampled": 100,
            "probRed": 0.5,
            "practiceLambda": 5,
            "trialLambda": 21.9,
            "instructedLambda": "dishonest_big",
            "drawnRed": 75,
            "reportedRed": 90,
            "inferredRed": 23,
            "playerTrialScore": -52,
            "oppTrialScore": 0,
            "playerTotalScore": -2141,
            "oppTotalScore": 251,
            "waitTime": 5565.076715703454,
            "responseTime": 1680819451735,
            "catchQuestion": "How many <b class=\"r\">red<\/b> marbles did your opponent report drawing? ",
            "catchKey": -1,
            "catchResponse": -1,
            "catchTime": 1680819379569,
            "trialTime": 0
        },
        {
            "exptPart": "trial",
            "trialNumber": 69,
            "roleCurrent": "receiver",
            "marblesSampled": 100,
            "probRed": 0.5,
            "practiceLambda": 5,
            "trialLambda": 21.9,
            "instructedLambda": "dishonest_big",
            "drawnRed": 64,
            "reportedRed": 83,
            "inferredRed": 90,
            "playerTrialScore": -26,
            "oppTrialScore": 26,
            "playerTotalScore": -2167,
            "oppTotalScore": 277,
            "waitTime": 6277.2774528471255,
            "responseTime": 1680819461185,
            "catchQuestion": "How many <b class=\"r\">red<\/b> marbles did your opponent report drawing? ",
            "catchKey": -1,
            "catchResponse": -1,
            "catchTime": 1680819379569,
            "trialTime": 0
        },
        {
            "exptPart": "trial",
            "trialNumber": 70,
            "roleCurrent": "receiver",
            "marblesSampled": 100,
            "probRed": 0.5,
            "practiceLambda": 5,
            "trialLambda": 21.9,
            "instructedLambda": "dishonest_big",
            "drawnRed": 27,
            "reportedRed": 57,
            "inferredRed": 3,
            "playerTrialScore": -24,
            "oppTrialScore": 0,
            "playerTotalScore": -2191,
            "oppTotalScore": 277,
            "waitTime": 5313.123651594871,
            "responseTime": 1680819467851,
            "catchQuestion": "How many <b class=\"r\">red<\/b> marbles did your opponent report drawing? ",
            "catchKey": -1,
            "catchResponse": -1,
            "catchTime": 1680819467851,
            "trialTime": 0
        },
        {
            "exptPart": "trial",
            "trialNumber": 71,
            "roleCurrent": "receiver",
            "marblesSampled": 100,
            "probRed": 0.5,
            "practiceLambda": 5,
            "trialLambda": 21.9,
            "instructedLambda": "dishonest_big",
            "drawnRed": 67,
            "reportedRed": 85,
            "inferredRed": 3,
            "playerTrialScore": -64,
            "oppTrialScore": 0,
            "playerTotalScore": -2255,
            "oppTotalScore": 277,
            "waitTime": 6700.609659901015,
            "responseTime": 1680819478034,
            "catchQuestion": "How many <b class=\"r\">red<\/b> marbles did your opponent report drawing? ",
            "catchKey": -1,
            "catchResponse": -1,
            "catchTime": 1680819467851,
            "trialTime": 0
        },
        {
            "exptPart": "trial",
            "trialNumber": 72,
            "roleCurrent": "receiver",
            "marblesSampled": 100,
            "probRed": 0.5,
            "practiceLambda": 5,
            "trialLambda": 21.9,
            "instructedLambda": "dishonest_big",
            "drawnRed": 15,
            "reportedRed": 33,
            "inferredRed": 3,
            "playerTrialScore": -12,
            "oppTrialScore": 0,
            "playerTotalScore": -2267,
            "oppTotalScore": 277,
            "waitTime": 6438.5172672454955,
            "responseTime": 1680819494017,
            "catchQuestion": "How many <b class=\"r\">red<\/b> marbles did your opponent report drawing? ",
            "catchKey": -1,
            "catchResponse": -1,
            "catchTime": 1680819467851,
            "trialTime": 0
        },
        {
            "exptPart": "trial",
            "trialNumber": 73,
            "roleCurrent": "receiver",
            "marblesSampled": 100,
            "probRed": 0.5,
            "practiceLambda": 5,
            "trialLambda": 21.9,
            "instructedLambda": "dishonest_big",
            "drawnRed": 30,
            "reportedRed": 53,
            "inferredRed": 3,
            "playerTrialScore": -27,
            "oppTrialScore": 0,
            "playerTotalScore": -2294,
            "oppTotalScore": 277,
            "waitTime": 6162.160960328399,
            "responseTime": 1680819502166,
            "catchQuestion": "How many <b class=\"r\">red<\/b> marbles did your opponent report drawing? ",
            "catchKey": -1,
            "catchResponse": -1,
            "catchTime": 1680819467851,
            "trialTime": 0
        },
        {
            "exptPart": "trial",
            "trialNumber": 74,
            "roleCurrent": "receiver",
            "marblesSampled": 100,
            "probRed": 0.5,
            "practiceLambda": 5,
            "trialLambda": 21.9,
            "instructedLambda": "dishonest_big",
            "drawnRed": 71,
            "reportedRed": 87,
            "inferredRed": 5,
            "playerTrialScore": -66,
            "oppTrialScore": 0,
            "playerTotalScore": -2360,
            "oppTotalScore": 277,
            "waitTime": 6700.3105053340405,
            "responseTime": 1680819511366,
            "catchQuestion": "How many <b class=\"r\">red<\/b> marbles did your opponent report drawing? ",
            "catchKey": -1,
            "catchResponse": -1,
            "catchTime": 1680819467851,
            "trialTime": 0
        },
        {
            "exptPart": "trial",
            "trialNumber": 75,
            "roleCurrent": "receiver",
            "marblesSampled": 100,
            "probRed": 0.5,
            "practiceLambda": 5,
            "trialLambda": 21.9,
            "instructedLambda": "dishonest_big",
            "drawnRed": 56,
            "reportedRed": 85,
            "inferredRed": 5,
            "playerTrialScore": -51,
            "oppTrialScore": 0,
            "playerTotalScore": -2411,
            "oppTotalScore": 277,
            "waitTime": 6333.9640765430195,
            "responseTime": 1680819520351,
            "catchQuestion": "How many <b class=\"r\">red<\/b> marbles did your opponent report drawing? ",
            "catchKey": -1,
            "catchResponse": -1,
            "catchTime": 1680819467851,
            "trialTime": 0
        },
        {
            "exptPart": "trial",
            "trialNumber": 76,
            "roleCurrent": "receiver",
            "marblesSampled": 100,
            "probRed": 0.5,
            "practiceLambda": 5,
            "trialLambda": 21.9,
            "instructedLambda": "dishonest_big",
            "drawnRed": 37,
            "reportedRed": 62,
            "inferredRed": 4,
            "playerTrialScore": -33,
            "oppTrialScore": 0,
            "playerTotalScore": -2444,
            "oppTotalScore": 277,
            "waitTime": 6025.884473466981,
            "responseTime": 1680819528267,
            "catchQuestion": "How many <b class=\"r\">red<\/b> marbles did your opponent report drawing? ",
            "catchKey": -1,
            "catchResponse": -1,
            "catchTime": 1680819467851,
            "trialTime": 0
        },
        {
            "exptPart": "trial",
            "trialNumber": 77,
            "roleCurrent": "receiver",
            "marblesSampled": 100,
            "probRed": 0.5,
            "practiceLambda": 5,
            "trialLambda": 21.9,
            "instructedLambda": "dishonest_big",
            "drawnRed": 54,
            "reportedRed": 76,
            "inferredRed": 4,
            "playerTrialScore": -50,
            "oppTrialScore": 0,
            "playerTotalScore": -2494,
            "oppTotalScore": 277,
            "waitTime": 5903.127004115135,
            "responseTime": 1680819535699,
            "catchQuestion": "How many <b class=\"r\">red<\/b> marbles did your opponent report drawing? ",
            "catchKey": -1,
            "catchResponse": -1,
            "catchTime": 1680819467851,
            "trialTime": 0
        },
        {
            "exptPart": "trial",
            "trialNumber": 78,
            "roleCurrent": "receiver",
            "marblesSampled": 100,
            "probRed": 0.5,
            "practiceLambda": 5,
            "trialLambda": 21.9,
            "instructedLambda": "dishonest_big",
            "drawnRed": 63,
            "reportedRed": 91,
            "inferredRed": 4,
            "playerTrialScore": -59,
            "oppTrialScore": 0,
            "playerTotalScore": -2553,
            "oppTotalScore": 277,
            "waitTime": 7199.774519603965,
            "responseTime": 1680819544316,
            "catchQuestion": "How many <b class=\"r\">red<\/b> marbles did your opponent report drawing? ",
            "catchKey": -1,
            "catchResponse": -1,
            "catchTime": 1680819467851,
            "trialTime": 0
        },
        {
            "exptPart": "trial",
            "trialNumber": 79,
            "roleCurrent": "receiver",
            "marblesSampled": 100,
            "probRed": 0.5,
            "practiceLambda": 5,
            "trialLambda": 21.9,
            "instructedLambda": "dishonest_big",
            "drawnRed": 31,
            "reportedRed": 50,
            "inferredRed": 4,
            "playerTrialScore": -27,
            "oppTrialScore": 0,
            "playerTotalScore": -2580,
            "oppTotalScore": 277,
            "waitTime": 6145.004979322512,
            "responseTime": 1680819553699,
            "catchQuestion": "How many <b class=\"r\">red<\/b> marbles did your opponent report drawing? ",
            "catchKey": -1,
            "catchResponse": -1,
            "catchTime": 1680819467851,
            "trialTime": 0
        },
        {
            "exptPart": "trial",
            "trialNumber": 80,
            "roleCurrent": "receiver",
            "marblesSampled": 100,
            "probRed": 0.5,
            "practiceLambda": 5,
            "trialLambda": 21.9,
            "instructedLambda": "dishonest_big",
            "drawnRed": 35,
            "reportedRed": 62,
            "inferredRed": 4,
            "playerTrialScore": -31,
            "oppTrialScore": 0,
            "playerTotalScore": -2611,
            "oppTotalScore": 277,
            "waitTime": 5653.117858907853,
            "responseTime": 1680819562916,
            "catchQuestion": "How many <b class=\"r\">red<\/b> marbles did your opponent report drawing? ",
            "catchKey": -1,
            "catchResponse": -1,
            "catchTime": 1680819562916,
            "trialTime": 0
        },
        {
            "exptPart": "trial",
            "trialNumber": 81,
            "roleCurrent": "receiver",
            "marblesSampled": 100,
            "probRed": 0.5,
            "practiceLambda": 5,
            "trialLambda": 21.9,
            "instructedLambda": "dishonest_big",
            "drawnRed": 19,
            "reportedRed": 41,
            "inferredRed": 4,
            "playerTrialScore": -15,
            "oppTrialScore": 0,
            "playerTotalScore": -2626,
            "oppTotalScore": 277,
            "waitTime": 7095.463482856932,
            "responseTime": 1680819572599,
            "catchQuestion": "How many <b class=\"r\">red<\/b> marbles did your opponent report drawing? ",
            "catchKey": -1,
            "catchResponse": -1,
            "catchTime": 1680819562916,
            "trialTime": 0
        },
        {
            "exptPart": "trial",
            "trialNumber": 82,
            "roleCurrent": "receiver",
            "marblesSampled": 100,
            "probRed": 0.5,
            "practiceLambda": 5,
            "trialLambda": 21.9,
            "instructedLambda": "dishonest_big",
            "drawnRed": 45,
            "reportedRed": 66,
            "inferredRed": 3,
            "playerTrialScore": -42,
            "oppTrialScore": 0,
            "playerTotalScore": -2668,
            "oppTotalScore": 277,
            "waitTime": 5234.360031964668,
            "responseTime": 1680819579666,
            "catchQuestion": "How many <b class=\"r\">red<\/b> marbles did your opponent report drawing? ",
            "catchKey": -1,
            "catchResponse": -1,
            "catchTime": 1680819562916,
            "trialTime": 0
        },
        {
            "exptPart": "trial",
            "trialNumber": 83,
            "roleCurrent": "receiver",
            "marblesSampled": 100,
            "probRed": 0.5,
            "practiceLambda": 5,
            "trialLambda": 21.9,
            "instructedLambda": "dishonest_big",
            "drawnRed": 38,
            "reportedRed": 52,
            "inferredRed": 4,
            "playerTrialScore": -34,
            "oppTrialScore": 0,
            "playerTotalScore": -2702,
            "oppTotalScore": 277,
            "waitTime": 6710.68120654241,
            "responseTime": 1680819589382,
            "catchQuestion": "How many <b class=\"r\">red<\/b> marbles did your opponent report drawing? ",
            "catchKey": -1,
            "catchResponse": -1,
            "catchTime": 1680819562916,
            "trialTime": 0
        },
        {
            "exptPart": "trial",
            "trialNumber": 84,
            "roleCurrent": "receiver",
            "marblesSampled": 100,
            "probRed": 0.5,
            "practiceLambda": 5,
            "trialLambda": 21.9,
            "instructedLambda": "dishonest_big",
            "drawnRed": 62,
            "reportedRed": 89,
            "inferredRed": 5,
            "playerTrialScore": -57,
            "oppTrialScore": 0,
            "playerTotalScore": -2759,
            "oppTotalScore": 277,
            "waitTime": 5934.631863916973,
            "responseTime": 1680819597615,
            "catchQuestion": "How many <b class=\"r\">red<\/b> marbles did your opponent report drawing? ",
            "catchKey": -1,
            "catchResponse": -1,
            "catchTime": 1680819562916,
            "trialTime": 0
        },
        {
            "exptPart": "trial",
            "trialNumber": 85,
            "roleCurrent": "receiver",
            "marblesSampled": 100,
            "probRed": 0.5,
            "practiceLambda": 5,
            "trialLambda": 21.9,
            "instructedLambda": "dishonest_big",
            "drawnRed": 92,
            "reportedRed": 100,
            "inferredRed": 4,
            "playerTrialScore": -88,
            "oppTrialScore": 0,
            "playerTotalScore": -2847,
            "oppTotalScore": 277,
            "waitTime": 5317.212325538016,
            "responseTime": 1680819604749,
            "catchQuestion": "How many <b class=\"r\">red<\/b> marbles did your opponent report drawing? ",
            "catchKey": -1,
            "catchResponse": -1,
            "catchTime": 1680819562916,
            "trialTime": 0
        },
        {
            "exptPart": "trial",
            "trialNumber": 86,
            "roleCurrent": "receiver",
            "marblesSampled": 100,
            "probRed": 0.5,
            "practiceLambda": 5,
            "trialLambda": 21.9,
            "instructedLambda": "dishonest_big",
            "drawnRed": 76,
            "reportedRed": 100,
            "inferredRed": 4,
            "playerTrialScore": -72,
            "oppTrialScore": 0,
            "playerTotalScore": -2919,
            "oppTotalScore": 277,
            "waitTime": 5404.625923156488,
            "responseTime": 1680819612466,
            "catchQuestion": "How many <b class=\"r\">red<\/b> marbles did your opponent report drawing? ",
            "catchKey": 100,
            "catchResponse": 100,
            "catchTime": 1680819612466,
            "trialTime": 0
        },
        {
            "exptPart": "trial",
            "trialNumber": 87,
            "roleCurrent": "receiver",
            "marblesSampled": 100,
            "probRed": 0.5,
            "practiceLambda": 5,
            "trialLambda": 21.9,
            "instructedLambda": "dishonest_big",
            "drawnRed": 61,
            "reportedRed": 79,
            "inferredRed": 4,
            "playerTrialScore": -57,
            "oppTrialScore": 0,
            "playerTotalScore": -2976,
            "oppTotalScore": 277,
            "waitTime": 6214.641501709575,
            "responseTime": 1680819625282,
            "catchQuestion": "How many <b class=\"r\">red<\/b> marbles did your opponent report drawing? ",
            "catchKey": -1,
            "catchResponse": -1,
            "catchTime": 1680819612466,
            "trialTime": 0
        },
        {
            "exptPart": "trial",
            "trialNumber": 88,
            "roleCurrent": "receiver",
            "marblesSampled": 100,
            "probRed": 0.5,
            "practiceLambda": 5,
            "trialLambda": 21.9,
            "instructedLambda": "dishonest_big",
            "drawnRed": 62,
            "reportedRed": 95,
            "inferredRed": 4,
            "playerTrialScore": -58,
            "oppTrialScore": 0,
            "playerTotalScore": -3034,
            "oppTotalScore": 277,
            "waitTime": 5374.728468612191,
            "responseTime": 1680819632431,
            "catchQuestion": "How many <b class=\"r\">red<\/b> marbles did your opponent report drawing? ",
            "catchKey": -1,
            "catchResponse": -1,
            "catchTime": 1680819612466,
            "trialTime": 0
        },
        {
            "exptPart": "trial",
            "trialNumber": 89,
            "roleCurrent": "receiver",
            "marblesSampled": 100,
            "probRed": 0.5,
            "practiceLambda": 5,
            "trialLambda": 21.9,
            "instructedLambda": "dishonest_big",
            "drawnRed": 32,
            "reportedRed": 53,
            "inferredRed": 4,
            "playerTrialScore": -28,
            "oppTrialScore": 0,
            "playerTotalScore": -3062,
            "oppTotalScore": 277,
            "waitTime": 6185.86194298491,
            "responseTime": 1680819640548,
            "catchQuestion": "How many <b class=\"r\">red<\/b> marbles did your opponent report drawing? ",
            "catchKey": -1,
            "catchResponse": -1,
            "catchTime": 1680819612466,
            "trialTime": 0
        },
        {
            "exptPart": "trial",
            "trialNumber": 90,
            "roleCurrent": "receiver",
            "marblesSampled": 100,
            "probRed": 0.5,
            "practiceLambda": 5,
            "trialLambda": 21.9,
            "instructedLambda": "dishonest_big",
            "drawnRed": 63,
            "reportedRed": 86,
            "inferredRed": 4,
            "playerTrialScore": -59,
            "oppTrialScore": 0,
            "playerTotalScore": -3121,
            "oppTotalScore": 277,
            "waitTime": 7134.86479065896,
            "responseTime": 1680819649950,
            "catchQuestion": "How many <b class=\"r\">red<\/b> marbles did your opponent report drawing? ",
            "catchKey": -1,
            "catchResponse": -1,
            "catchTime": 1680819649950,
            "trialTime": 0
        },
        {
            "exptPart": "trial",
            "trialNumber": 91,
            "roleCurrent": "receiver",
            "marblesSampled": 100,
            "probRed": 0.5,
            "practiceLambda": 5,
            "trialLambda": 21.9,
            "instructedLambda": "dishonest_big",
            "drawnRed": 52,
            "reportedRed": 75,
            "inferredRed": 4,
            "playerTrialScore": -48,
            "oppTrialScore": 0,
            "playerTotalScore": -3169,
            "oppTotalScore": 277,
            "waitTime": 5307.231001329887,
            "responseTime": 1680819658048,
            "catchQuestion": "How many <b class=\"r\">red<\/b> marbles did your opponent report drawing? ",
            "catchKey": -1,
            "catchResponse": -1,
            "catchTime": 1680819649950,
            "trialTime": 0
        },
        {
            "exptPart": "trial",
            "trialNumber": 92,
            "roleCurrent": "receiver",
            "marblesSampled": 100,
            "probRed": 0.5,
            "practiceLambda": 5,
            "trialLambda": 21.9,
            "instructedLambda": "dishonest_big",
            "drawnRed": 57,
            "reportedRed": 84,
            "inferredRed": 4,
            "playerTrialScore": -53,
            "oppTrialScore": 0,
            "playerTotalScore": -3222,
            "oppTotalScore": 277,
            "waitTime": 7118.383428161778,
            "responseTime": 1680819666581,
            "catchQuestion": "How many <b class=\"r\">red<\/b> marbles did your opponent report drawing? ",
            "catchKey": 84,
            "catchResponse": 84,
            "catchTime": 1680819666581,
            "trialTime": 0
        },
        {
            "exptPart": "trial",
            "trialNumber": 93,
            "roleCurrent": "receiver",
            "marblesSampled": 100,
            "probRed": 0.5,
            "practiceLambda": 5,
            "trialLambda": 21.9,
            "instructedLambda": "dishonest_big",
            "drawnRed": 22,
            "reportedRed": 45,
            "inferredRed": 4,
            "playerTrialScore": -18,
            "oppTrialScore": 0,
            "playerTotalScore": -3240,
            "oppTotalScore": 277,
            "waitTime": 5167.84734467234,
            "responseTime": 1680819678964,
            "catchQuestion": "How many <b class=\"r\">red<\/b> marbles did your opponent report drawing? ",
            "catchKey": 45,
            "catchResponse": 90,
            "catchTime": 1680819678964,
            "trialTime": 0
        },
        {
            "exptPart": "trial",
            "trialNumber": 94,
            "roleCurrent": "receiver",
            "marblesSampled": 100,
            "probRed": 0.5,
            "practiceLambda": 5,
            "trialLambda": 21.9,
            "instructedLambda": "dishonest_big",
            "drawnRed": 26,
            "reportedRed": 41,
            "inferredRed": 4,
            "playerTrialScore": -22,
            "oppTrialScore": 0,
            "playerTotalScore": -3262,
            "oppTotalScore": 277,
            "waitTime": 5383.149158294932,
            "responseTime": 1680819696131,
            "catchQuestion": "How many <b class=\"r\">red<\/b> marbles did your opponent report drawing? ",
            "catchKey": -1,
            "catchResponse": -1,
            "catchTime": 1680819678964,
            "trialTime": 0
        },
        {
            "exptPart": "trial",
            "trialNumber": 95,
            "roleCurrent": "receiver",
            "marblesSampled": 100,
            "probRed": 0.5,
            "practiceLambda": 5,
            "trialLambda": 21.9,
            "instructedLambda": "dishonest_big",
            "drawnRed": 15,
            "reportedRed": 45,
            "inferredRed": 4,
            "playerTrialScore": -11,
            "oppTrialScore": 0,
            "playerTotalScore": -3273,
            "oppTotalScore": 277,
            "waitTime": 5676.455592369486,
            "responseTime": 1680819714847,
            "catchQuestion": "How many <b class=\"r\">red<\/b> marbles did your opponent report drawing? ",
            "catchKey": -1,
            "catchResponse": -1,
            "catchTime": 1680819678964,
            "trialTime": 0
        },
        {
            "exptPart": "trial",
            "trialNumber": 96,
            "roleCurrent": "receiver",
            "marblesSampled": 100,
            "probRed": 0.5,
            "practiceLambda": 5,
            "trialLambda": 21.9,
            "instructedLambda": "dishonest_big",
            "drawnRed": 80,
            "reportedRed": 100,
            "inferredRed": 4,
            "playerTrialScore": -76,
            "oppTrialScore": 0,
            "playerTotalScore": -3349,
            "oppTotalScore": 277,
            "waitTime": 7131.690060708569,
            "responseTime": 1680819723280,
            "catchQuestion": "How many <b class=\"r\">red<\/b> marbles did your opponent report drawing? ",
            "catchKey": -1,
            "catchResponse": -1,
            "catchTime": 1680819678964,
            "trialTime": 0
        },
        {
            "exptPart": "trial",
            "trialNumber": 97,
            "roleCurrent": "receiver",
            "marblesSampled": 100,
            "probRed": 0.5,
            "practiceLambda": 5,
            "trialLambda": 21.9,
            "instructedLambda": "dishonest_big",
            "drawnRed": 63,
            "reportedRed": 81,
            "inferredRed": 4,
            "playerTrialScore": -59,
            "oppTrialScore": 0,
            "playerTotalScore": -3408,
            "oppTotalScore": 277,
            "waitTime": 5439.813538190156,
            "responseTime": 1680819730963,
            "catchQuestion": "How many <b class=\"r\">red<\/b> marbles did your opponent report drawing? ",
            "catchKey": -1,
            "catchResponse": -1,
            "catchTime": 1680819678964,
            "trialTime": 0
        },
        {
            "exptPart": "trial",
            "trialNumber": 98,
            "roleCurrent": "receiver",
            "marblesSampled": 100,
            "probRed": 0.5,
            "practiceLambda": 5,
            "trialLambda": 21.9,
            "instructedLambda": "dishonest_big",
            "drawnRed": 57,
            "reportedRed": 78,
            "inferredRed": 4,
            "playerTrialScore": -53,
            "oppTrialScore": 0,
            "playerTotalScore": -3461,
            "oppTotalScore": 277,
            "waitTime": 5847.617386991609,
            "responseTime": 1680819739181,
            "catchQuestion": "How many <b class=\"r\">red<\/b> marbles did your opponent report drawing? ",
            "catchKey": -1,
            "catchResponse": -1,
            "catchTime": 1680819678964,
            "trialTime": 0
        },
        {
            "exptPart": "trial",
            "trialNumber": 99,
            "roleCurrent": "receiver",
            "marblesSampled": 100,
            "probRed": 0.5,
            "practiceLambda": 5,
            "trialLambda": 21.9,
            "instructedLambda": "dishonest_big",
            "drawnRed": 66,
            "reportedRed": 91,
            "inferredRed": 4,
            "playerTrialScore": -62,
            "oppTrialScore": 0,
            "playerTotalScore": -3523,
            "oppTotalScore": 277,
            "waitTime": 5300.42814267561,
            "responseTime": 1680819745964,
            "catchQuestion": "How many <b class=\"r\">red<\/b> marbles did your opponent report drawing? ",
            "catchKey": -1,
            "catchResponse": -1,
            "catchTime": 1680819678964,
            "trialTime": 0
        },
        {
            "exptPart": "trial",
            "trialNumber": 100,
            "roleCurrent": "receiver",
            "marblesSampled": 100,
            "probRed": 0.5,
            "practiceLambda": 5,
            "trialLambda": 21.9,
            "instructedLambda": "dishonest_big",
            "drawnRed": 58,
            "reportedRed": 84,
            "inferredRed": 4,
            "playerTrialScore": -54,
            "oppTrialScore": 0,
            "playerTotalScore": -3577,
            "oppTotalScore": 277,
            "waitTime": 6411.835705659022,
            "responseTime": 1680819753479,
            "catchQuestion": "How many <b class=\"r\">red<\/b> marbles did your opponent report drawing? ",
            "catchKey": -1,
            "catchResponse": -1,
            "catchTime": 1680819753479,
            "trialTime": 0
        }
    ]
}