{
    "client": {
        "type": "sona",
        "experiment_id": 2228,
        "credit_token": "b315147ae43241ea9c65086cb510cfb7",
        "survey_code": "48335",
        "sid": "sona-48335",
        "window": {
            "width": 1440,
            "height": 695
        },
        "screen": {
            "width": 1440,
            "height": 900
        },
        "userAgent": "Mozilla\/5.0 (Macintosh; Intel Mac OS X 10_15_7) AppleWebKit\/537.36 (KHTML, like Gecko) Chrome\/111.0.0.0 Safari\/537.36",
        "score": 0,
        "bonus": 0
    },
    "expt": {
        "saveURL": "submit.simple.php",
        "trials": 100,
        "practiceTrials": 2,
        "marblesSampled": 100,
        "probRed": 0.5,
        "practiceLambdaAI": 5,
        "lambdaAI": 8.1,
        "roles": [
            "sender",
            "receiver"
        ],
        "cost": "unif",
        "goal": "over",
        "oppDishonesty": "dishonest_small",
        "catchTrials": [
            9,
            23,
            90,
            40,
            36,
            43,
            13,
            96,
            4,
            72
        ],
        "scoreTotal": {
            "player": -1459,
            "opp": 481
        },
        "sona": {
            "experiment_id": 2228,
            "credit_token": "b315147ae43241ea9c65086cb510cfb7"
        },
        "pilot": false,
        "debug": false
    },
    "trials": [
        {
            "exptPart": "practice",
            "trialNumber": 1,
            "roleCurrent": "sender",
            "marblesSampled": 100,
            "probRed": 0.5,
            "practiceLambda": 5,
            "trialLambda": 8.1,
            "instructedLambda": "dishonest_small",
            "drawnRed": 55,
            "reportedRed": 43,
            "inferredRed": 39,
            "playerTrialScore": 0,
            "oppTrialScore": -16,
            "playerTotalScore": 0,
            "oppTotalScore": -16,
            "waitTime": 2157.4982643140734,
            "responseTime": 1680839466651,
            "catchQuestion": "How many <b class=\"r\">red<\/b> marbles did you actually draw (before any changes)? ",
            "catchKey": 55,
            "catchResponse": 56,
            "catchTime": 1680839466652,
            "trialTime": 0
        },
        {
            "exptPart": "practice",
            "trialNumber": 2,
            "roleCurrent": "receiver",
            "marblesSampled": 100,
            "probRed": 0.5,
            "practiceLambda": 5,
            "trialLambda": 8.1,
            "instructedLambda": "dishonest_small",
            "drawnRed": 15,
            "reportedRed": 19,
            "inferredRed": 33,
            "playerTrialScore": -18,
            "oppTrialScore": 18,
            "playerTotalScore": -18,
            "oppTotalScore": 2,
            "waitTime": 5509.414381421122,
            "responseTime": 1680839534085,
            "catchQuestion": "How many <b class=\"r\">red<\/b> marbles did your opponent report drawing? ",
            "catchKey": 19,
            "catchResponse": 16,
            "catchTime": 1680839534085,
            "trialTime": 0
        },
        {
            "exptPart": "trial",
            "trialNumber": 1,
            "roleCurrent": "receiver",
            "marblesSampled": 100,
            "probRed": 0.5,
            "practiceLambda": 5,
            "trialLambda": 8.1,
            "instructedLambda": "dishonest_small",
            "drawnRed": 70,
            "reportedRed": 78,
            "inferredRed": 56,
            "playerTrialScore": -14,
            "oppTrialScore": 0,
            "playerTotalScore": -14,
            "oppTotalScore": 0,
            "waitTime": 6026.13176262595,
            "responseTime": 1680839573588,
            "catchQuestion": "How many <b class=\"r\">red<\/b> marbles did your opponent report drawing? ",
            "catchKey": -1,
            "catchResponse": -1,
            "catchTime": 1680839534085,
            "trialTime": 0
        },
        {
            "exptPart": "trial",
            "trialNumber": 2,
            "roleCurrent": "receiver",
            "marblesSampled": 100,
            "probRed": 0.5,
            "practiceLambda": 5,
            "trialLambda": 8.1,
            "instructedLambda": "dishonest_small",
            "drawnRed": 58,
            "reportedRed": 67,
            "inferredRed": 57,
            "playerTrialScore": -1,
            "oppTrialScore": 0,
            "playerTotalScore": -15,
            "oppTotalScore": 0,
            "waitTime": 5460.240456485348,
            "responseTime": 1680839586735,
            "catchQuestion": "How many <b class=\"r\">red<\/b> marbles did your opponent report drawing? ",
            "catchKey": -1,
            "catchResponse": -1,
            "catchTime": 1680839534085,
            "trialTime": 0
        },
        {
            "exptPart": "trial",
            "trialNumber": 3,
            "roleCurrent": "receiver",
            "marblesSampled": 100,
            "probRed": 0.5,
            "practiceLambda": 5,
            "trialLambda": 8.1,
            "instructedLambda": "dishonest_small",
            "drawnRed": 22,
            "reportedRed": 29,
            "inferredRed": 16,
            "playerTrialScore": -6,
            "oppTrialScore": 0,
            "playerTotalScore": -21,
            "oppTotalScore": 0,
            "waitTime": 7030.815650458455,
            "responseTime": 1680839606085,
            "catchQuestion": "How many <b class=\"r\">red<\/b> marbles did your opponent report drawing? ",
            "catchKey": -1,
            "catchResponse": -1,
            "catchTime": 1680839534085,
            "trialTime": 0
        },
        {
            "exptPart": "trial",
            "trialNumber": 4,
            "roleCurrent": "receiver",
            "marblesSampled": 100,
            "probRed": 0.5,
            "practiceLambda": 5,
            "trialLambda": 8.1,
            "instructedLambda": "dishonest_small",
            "drawnRed": 64,
            "reportedRed": 73,
            "inferredRed": 56,
            "playerTrialScore": -8,
            "oppTrialScore": 0,
            "playerTotalScore": -29,
            "oppTotalScore": 0,
            "waitTime": 5280.105965228368,
            "responseTime": 1680839616633,
            "catchQuestion": "How many <b class=\"r\">red<\/b> marbles did your opponent report drawing? ",
            "catchKey": -1,
            "catchResponse": -1,
            "catchTime": 1680839534085,
            "trialTime": 0
        },
        {
            "exptPart": "trial",
            "trialNumber": 5,
            "roleCurrent": "receiver",
            "marblesSampled": 100,
            "probRed": 0.5,
            "practiceLambda": 5,
            "trialLambda": 8.1,
            "instructedLambda": "dishonest_small",
            "drawnRed": 50,
            "reportedRed": 59,
            "inferredRed": 42,
            "playerTrialScore": -8,
            "oppTrialScore": 0,
            "playerTotalScore": -37,
            "oppTotalScore": 0,
            "waitTime": 5388.524998833032,
            "responseTime": 1680839628735,
            "catchQuestion": "How many <b class=\"r\">red<\/b> marbles did your opponent report drawing? ",
            "catchKey": 59,
            "catchResponse": 16,
            "catchTime": 1680839628736,
            "trialTime": 0
        },
        {
            "exptPart": "trial",
            "trialNumber": 6,
            "roleCurrent": "receiver",
            "marblesSampled": 100,
            "probRed": 0.5,
            "practiceLambda": 5,
            "trialLambda": 8.1,
            "instructedLambda": "dishonest_small",
            "drawnRed": 60,
            "reportedRed": 73,
            "inferredRed": 58,
            "playerTrialScore": -2,
            "oppTrialScore": 0,
            "playerTotalScore": -39,
            "oppTotalScore": 0,
            "waitTime": 6194.603118391228,
            "responseTime": 1680839656501,
            "catchQuestion": "How many <b class=\"r\">red<\/b> marbles did your opponent report drawing? ",
            "catchKey": -1,
            "catchResponse": -1,
            "catchTime": 1680839628736,
            "trialTime": 0
        },
        {
            "exptPart": "trial",
            "trialNumber": 7,
            "roleCurrent": "receiver",
            "marblesSampled": 100,
            "probRed": 0.5,
            "practiceLambda": 5,
            "trialLambda": 8.1,
            "instructedLambda": "dishonest_small",
            "drawnRed": 50,
            "reportedRed": 57,
            "inferredRed": 48,
            "playerTrialScore": -2,
            "oppTrialScore": 0,
            "playerTotalScore": -41,
            "oppTotalScore": 0,
            "waitTime": 5854.0324332630735,
            "responseTime": 1680839666268,
            "catchQuestion": "How many <b class=\"r\">red<\/b> marbles did your opponent report drawing? ",
            "catchKey": -1,
            "catchResponse": -1,
            "catchTime": 1680839628736,
            "trialTime": 0
        },
        {
            "exptPart": "trial",
            "trialNumber": 8,
            "roleCurrent": "receiver",
            "marblesSampled": 100,
            "probRed": 0.5,
            "practiceLambda": 5,
            "trialLambda": 8.1,
            "instructedLambda": "dishonest_small",
            "drawnRed": 64,
            "reportedRed": 73,
            "inferredRed": 56,
            "playerTrialScore": -8,
            "oppTrialScore": 0,
            "playerTotalScore": -49,
            "oppTotalScore": 0,
            "waitTime": 5263.766866603462,
            "responseTime": 1680839676218,
            "catchQuestion": "How many <b class=\"r\">red<\/b> marbles did your opponent report drawing? ",
            "catchKey": -1,
            "catchResponse": -1,
            "catchTime": 1680839628736,
            "trialTime": 0
        },
        {
            "exptPart": "trial",
            "trialNumber": 9,
            "roleCurrent": "receiver",
            "marblesSampled": 100,
            "probRed": 0.5,
            "practiceLambda": 5,
            "trialLambda": 8.1,
            "instructedLambda": "dishonest_small",
            "drawnRed": 43,
            "reportedRed": 56,
            "inferredRed": 55,
            "playerTrialScore": -12,
            "oppTrialScore": 12,
            "playerTotalScore": -61,
            "oppTotalScore": 12,
            "waitTime": 5301.468943064357,
            "responseTime": 1680839684852,
            "catchQuestion": "How many <b class=\"r\">red<\/b> marbles did your opponent report drawing? ",
            "catchKey": -1,
            "catchResponse": -1,
            "catchTime": 1680839628736,
            "trialTime": 0
        },
        {
            "exptPart": "trial",
            "trialNumber": 10,
            "roleCurrent": "receiver",
            "marblesSampled": 100,
            "probRed": 0.5,
            "practiceLambda": 5,
            "trialLambda": 8.1,
            "instructedLambda": "dishonest_small",
            "drawnRed": 54,
            "reportedRed": 60,
            "inferredRed": 49,
            "playerTrialScore": -5,
            "oppTrialScore": 0,
            "playerTotalScore": -66,
            "oppTotalScore": 12,
            "waitTime": 6836.47861073403,
            "responseTime": 1680839696735,
            "catchQuestion": "How many <b class=\"r\">red<\/b> marbles did your opponent report drawing? ",
            "catchKey": 60,
            "catchResponse": 56,
            "catchTime": 1680839696736,
            "trialTime": 0
        },
        {
            "exptPart": "trial",
            "trialNumber": 11,
            "roleCurrent": "receiver",
            "marblesSampled": 100,
            "probRed": 0.5,
            "practiceLambda": 5,
            "trialLambda": 8.1,
            "instructedLambda": "dishonest_small",
            "drawnRed": 12,
            "reportedRed": 21,
            "inferredRed": 21,
            "playerTrialScore": -9,
            "oppTrialScore": 9,
            "playerTotalScore": -75,
            "oppTotalScore": 21,
            "waitTime": 6999.366700740213,
            "responseTime": 1680839732301,
            "catchQuestion": "How many <b class=\"r\">red<\/b> marbles did your opponent report drawing? ",
            "catchKey": -1,
            "catchResponse": -1,
            "catchTime": 1680839696736,
            "trialTime": 0
        },
        {
            "exptPart": "trial",
            "trialNumber": 12,
            "roleCurrent": "receiver",
            "marblesSampled": 100,
            "probRed": 0.5,
            "practiceLambda": 5,
            "trialLambda": 8.1,
            "instructedLambda": "dishonest_small",
            "drawnRed": 55,
            "reportedRed": 64,
            "inferredRed": 62,
            "playerTrialScore": -7,
            "oppTrialScore": 7,
            "playerTotalScore": -82,
            "oppTotalScore": 28,
            "waitTime": 6839.315074661054,
            "responseTime": 1680839747201,
            "catchQuestion": "How many <b class=\"r\">red<\/b> marbles did your opponent report drawing? ",
            "catchKey": -1,
            "catchResponse": -1,
            "catchTime": 1680839696736,
            "trialTime": 0
        },
        {
            "exptPart": "trial",
            "trialNumber": 13,
            "roleCurrent": "receiver",
            "marblesSampled": 100,
            "probRed": 0.5,
            "practiceLambda": 5,
            "trialLambda": 8.1,
            "instructedLambda": "dishonest_small",
            "drawnRed": 43,
            "reportedRed": 49,
            "inferredRed": 50,
            "playerTrialScore": -7,
            "oppTrialScore": 7,
            "playerTotalScore": -89,
            "oppTotalScore": 35,
            "waitTime": 7047.637976508211,
            "responseTime": 1680839770185,
            "catchQuestion": "How many <b class=\"r\">red<\/b> marbles did your opponent report drawing? ",
            "catchKey": -1,
            "catchResponse": -1,
            "catchTime": 1680839696736,
            "trialTime": 0
        },
        {
            "exptPart": "trial",
            "trialNumber": 14,
            "roleCurrent": "receiver",
            "marblesSampled": 100,
            "probRed": 0.5,
            "practiceLambda": 5,
            "trialLambda": 8.1,
            "instructedLambda": "dishonest_small",
            "drawnRed": 58,
            "reportedRed": 65,
            "inferredRed": 65,
            "playerTrialScore": -7,
            "oppTrialScore": 7,
            "playerTotalScore": -96,
            "oppTotalScore": 42,
            "waitTime": 6938.633569235468,
            "responseTime": 1680839781351,
            "catchQuestion": "How many <b class=\"r\">red<\/b> marbles did your opponent report drawing? ",
            "catchKey": 65,
            "catchResponse": 58,
            "catchTime": 1680839781352,
            "trialTime": 0
        },
        {
            "exptPart": "trial",
            "trialNumber": 15,
            "roleCurrent": "receiver",
            "marblesSampled": 100,
            "probRed": 0.5,
            "practiceLambda": 5,
            "trialLambda": 8.1,
            "instructedLambda": "dishonest_small",
            "drawnRed": 69,
            "reportedRed": 73,
            "inferredRed": 70,
            "playerTrialScore": -1,
            "oppTrialScore": 1,
            "playerTotalScore": -97,
            "oppTotalScore": 43,
            "waitTime": 6451.408801131296,
            "responseTime": 1680839806920,
            "catchQuestion": "How many <b class=\"r\">red<\/b> marbles did your opponent report drawing? ",
            "catchKey": -1,
            "catchResponse": -1,
            "catchTime": 1680839781352,
            "trialTime": 0
        },
        {
            "exptPart": "trial",
            "trialNumber": 16,
            "roleCurrent": "receiver",
            "marblesSampled": 100,
            "probRed": 0.5,
            "practiceLambda": 5,
            "trialLambda": 8.1,
            "instructedLambda": "dishonest_small",
            "drawnRed": 70,
            "reportedRed": 75,
            "inferredRed": 72,
            "playerTrialScore": -2,
            "oppTrialScore": 2,
            "playerTotalScore": -99,
            "oppTotalScore": 45,
            "waitTime": 5718.081382297745,
            "responseTime": 1680839825085,
            "catchQuestion": "How many <b class=\"r\">red<\/b> marbles did your opponent report drawing? ",
            "catchKey": -1,
            "catchResponse": -1,
            "catchTime": 1680839781352,
            "trialTime": 0
        },
        {
            "exptPart": "trial",
            "trialNumber": 17,
            "roleCurrent": "receiver",
            "marblesSampled": 100,
            "probRed": 0.5,
            "practiceLambda": 5,
            "trialLambda": 8.1,
            "instructedLambda": "dishonest_small",
            "drawnRed": 46,
            "reportedRed": 54,
            "inferredRed": 16,
            "playerTrialScore": -30,
            "oppTrialScore": 0,
            "playerTotalScore": -129,
            "oppTotalScore": 45,
            "waitTime": 7069.94573816278,
            "responseTime": 1680839852368,
            "catchQuestion": "How many <b class=\"r\">red<\/b> marbles did your opponent report drawing? ",
            "catchKey": -1,
            "catchResponse": -1,
            "catchTime": 1680839781352,
            "trialTime": 0
        },
        {
            "exptPart": "trial",
            "trialNumber": 18,
            "roleCurrent": "receiver",
            "marblesSampled": 100,
            "probRed": 0.5,
            "practiceLambda": 5,
            "trialLambda": 8.1,
            "instructedLambda": "dishonest_small",
            "drawnRed": 26,
            "reportedRed": 30,
            "inferredRed": 53,
            "playerTrialScore": -27,
            "oppTrialScore": 27,
            "playerTotalScore": -156,
            "oppTotalScore": 72,
            "waitTime": 5267.380762687696,
            "responseTime": 1680839870418,
            "catchQuestion": "How many <b class=\"r\">red<\/b> marbles did your opponent report drawing? ",
            "catchKey": -1,
            "catchResponse": -1,
            "catchTime": 1680839781352,
            "trialTime": 0
        },
        {
            "exptPart": "trial",
            "trialNumber": 19,
            "roleCurrent": "receiver",
            "marblesSampled": 100,
            "probRed": 0.5,
            "practiceLambda": 5,
            "trialLambda": 8.1,
            "instructedLambda": "dishonest_small",
            "drawnRed": 45,
            "reportedRed": 53,
            "inferredRed": 56,
            "playerTrialScore": -11,
            "oppTrialScore": 11,
            "playerTotalScore": -167,
            "oppTotalScore": 83,
            "waitTime": 5402.1265569672505,
            "responseTime": 1680839882069,
            "catchQuestion": "How many <b class=\"r\">red<\/b> marbles did your opponent report drawing? ",
            "catchKey": -1,
            "catchResponse": -1,
            "catchTime": 1680839781352,
            "trialTime": 0
        },
        {
            "exptPart": "trial",
            "trialNumber": 20,
            "roleCurrent": "receiver",
            "marblesSampled": 100,
            "probRed": 0.5,
            "practiceLambda": 5,
            "trialLambda": 8.1,
            "instructedLambda": "dishonest_small",
            "drawnRed": 73,
            "reportedRed": 83,
            "inferredRed": 50,
            "playerTrialScore": -23,
            "oppTrialScore": 0,
            "playerTotalScore": -190,
            "oppTotalScore": 83,
            "waitTime": 5728.668587216784,
            "responseTime": 1680839913369,
            "catchQuestion": "How many <b class=\"r\">red<\/b> marbles did your opponent report drawing? ",
            "catchKey": -1,
            "catchResponse": -1,
            "catchTime": 1680839913369,
            "trialTime": 0
        },
        {
            "exptPart": "trial",
            "trialNumber": 21,
            "roleCurrent": "receiver",
            "marblesSampled": 100,
            "probRed": 0.5,
            "practiceLambda": 5,
            "trialLambda": 8.1,
            "instructedLambda": "dishonest_small",
            "drawnRed": 60,
            "reportedRed": 67,
            "inferredRed": 20,
            "playerTrialScore": -40,
            "oppTrialScore": 0,
            "playerTotalScore": -230,
            "oppTotalScore": 83,
            "waitTime": 5366.533829633403,
            "responseTime": 1680839929485,
            "catchQuestion": "How many <b class=\"r\">red<\/b> marbles did your opponent report drawing? ",
            "catchKey": -1,
            "catchResponse": -1,
            "catchTime": 1680839913369,
            "trialTime": 0
        },
        {
            "exptPart": "trial",
            "trialNumber": 22,
            "roleCurrent": "receiver",
            "marblesSampled": 100,
            "probRed": 0.5,
            "practiceLambda": 5,
            "trialLambda": 8.1,
            "instructedLambda": "dishonest_small",
            "drawnRed": 45,
            "reportedRed": 57,
            "inferredRed": 16,
            "playerTrialScore": -29,
            "oppTrialScore": 0,
            "playerTotalScore": -259,
            "oppTotalScore": 83,
            "waitTime": 6850.909007305838,
            "responseTime": 1680839940269,
            "catchQuestion": "How many <b class=\"r\">red<\/b> marbles did your opponent report drawing? ",
            "catchKey": -1,
            "catchResponse": -1,
            "catchTime": 1680839913369,
            "trialTime": 0
        },
        {
            "exptPart": "trial",
            "trialNumber": 23,
            "roleCurrent": "receiver",
            "marblesSampled": 100,
            "probRed": 0.5,
            "practiceLambda": 5,
            "trialLambda": 8.1,
            "instructedLambda": "dishonest_small",
            "drawnRed": 46,
            "reportedRed": 56,
            "inferredRed": 22,
            "playerTrialScore": -24,
            "oppTrialScore": 0,
            "playerTotalScore": -283,
            "oppTotalScore": 83,
            "waitTime": 5221.546904643671,
            "responseTime": 1680839954118,
            "catchQuestion": "How many <b class=\"r\">red<\/b> marbles did your opponent report drawing? ",
            "catchKey": -1,
            "catchResponse": -1,
            "catchTime": 1680839913369,
            "trialTime": 0
        },
        {
            "exptPart": "trial",
            "trialNumber": 24,
            "roleCurrent": "receiver",
            "marblesSampled": 100,
            "probRed": 0.5,
            "practiceLambda": 5,
            "trialLambda": 8.1,
            "instructedLambda": "dishonest_small",
            "drawnRed": 36,
            "reportedRed": 49,
            "inferredRed": 16,
            "playerTrialScore": -20,
            "oppTrialScore": 0,
            "playerTotalScore": -303,
            "oppTotalScore": 83,
            "waitTime": 6838.207748907182,
            "responseTime": 1680839964718,
            "catchQuestion": "How many <b class=\"r\">red<\/b> marbles did your opponent report drawing? ",
            "catchKey": 49,
            "catchResponse": 49,
            "catchTime": 1680839964718,
            "trialTime": 0
        },
        {
            "exptPart": "trial",
            "trialNumber": 25,
            "roleCurrent": "receiver",
            "marblesSampled": 100,
            "probRed": 0.5,
            "practiceLambda": 5,
            "trialLambda": 8.1,
            "instructedLambda": "dishonest_small",
            "drawnRed": 65,
            "reportedRed": 69,
            "inferredRed": 17,
            "playerTrialScore": -48,
            "oppTrialScore": 0,
            "playerTotalScore": -351,
            "oppTotalScore": 83,
            "waitTime": 5833.587705979164,
            "responseTime": 1680839984951,
            "catchQuestion": "How many <b class=\"r\">red<\/b> marbles did your opponent report drawing? ",
            "catchKey": -1,
            "catchResponse": -1,
            "catchTime": 1680839964718,
            "trialTime": 0
        },
        {
            "exptPart": "trial",
            "trialNumber": 26,
            "roleCurrent": "receiver",
            "marblesSampled": 100,
            "probRed": 0.5,
            "practiceLambda": 5,
            "trialLambda": 8.1,
            "instructedLambda": "dishonest_small",
            "drawnRed": 64,
            "reportedRed": 78,
            "inferredRed": 50,
            "playerTrialScore": -14,
            "oppTrialScore": 0,
            "playerTotalScore": -365,
            "oppTotalScore": 83,
            "waitTime": 6205.748941510985,
            "responseTime": 1680839998134,
            "catchQuestion": "How many <b class=\"r\">red<\/b> marbles did your opponent report drawing? ",
            "catchKey": -1,
            "catchResponse": -1,
            "catchTime": 1680839964718,
            "trialTime": 0
        },
        {
            "exptPart": "trial",
            "trialNumber": 27,
            "roleCurrent": "receiver",
            "marblesSampled": 100,
            "probRed": 0.5,
            "practiceLambda": 5,
            "trialLambda": 8.1,
            "instructedLambda": "dishonest_small",
            "drawnRed": 22,
            "reportedRed": 37,
            "inferredRed": 16,
            "playerTrialScore": -6,
            "oppTrialScore": 0,
            "playerTotalScore": -371,
            "oppTotalScore": 83,
            "waitTime": 5915.833409775527,
            "responseTime": 1680840007069,
            "catchQuestion": "How many <b class=\"r\">red<\/b> marbles did your opponent report drawing? ",
            "catchKey": -1,
            "catchResponse": -1,
            "catchTime": 1680839964718,
            "trialTime": 0
        },
        {
            "exptPart": "trial",
            "trialNumber": 28,
            "roleCurrent": "receiver",
            "marblesSampled": 100,
            "probRed": 0.5,
            "practiceLambda": 5,
            "trialLambda": 8.1,
            "instructedLambda": "dishonest_small",
            "drawnRed": 50,
            "reportedRed": 58,
            "inferredRed": 22,
            "playerTrialScore": -28,
            "oppTrialScore": 0,
            "playerTotalScore": -399,
            "oppTotalScore": 83,
            "waitTime": 5771.65596196623,
            "responseTime": 1680840015570,
            "catchQuestion": "How many <b class=\"r\">red<\/b> marbles did your opponent report drawing? ",
            "catchKey": -1,
            "catchResponse": -1,
            "catchTime": 1680839964718,
            "trialTime": 0
        },
        {
            "exptPart": "trial",
            "trialNumber": 29,
            "roleCurrent": "receiver",
            "marblesSampled": 100,
            "probRed": 0.5,
            "practiceLambda": 5,
            "trialLambda": 8.1,
            "instructedLambda": "dishonest_small",
            "drawnRed": 3,
            "reportedRed": 12,
            "inferredRed": 30,
            "playerTrialScore": -27,
            "oppTrialScore": 27,
            "playerTotalScore": -426,
            "oppTotalScore": 110,
            "waitTime": 7044.504329007421,
            "responseTime": 1680840035318,
            "catchQuestion": "How many <b class=\"r\">red<\/b> marbles did your opponent report drawing? ",
            "catchKey": -1,
            "catchResponse": -1,
            "catchTime": 1680839964718,
            "trialTime": 0
        },
        {
            "exptPart": "trial",
            "trialNumber": 30,
            "roleCurrent": "receiver",
            "marblesSampled": 100,
            "probRed": 0.5,
            "practiceLambda": 5,
            "trialLambda": 8.1,
            "instructedLambda": "dishonest_small",
            "drawnRed": 76,
            "reportedRed": 85,
            "inferredRed": 20,
            "playerTrialScore": -56,
            "oppTrialScore": 0,
            "playerTotalScore": -482,
            "oppTotalScore": 110,
            "waitTime": 6064.117686027554,
            "responseTime": 1680840046835,
            "catchQuestion": "How many <b class=\"r\">red<\/b> marbles did your opponent report drawing? ",
            "catchKey": -1,
            "catchResponse": -1,
            "catchTime": 1680840046835,
            "trialTime": 0
        },
        {
            "exptPart": "trial",
            "trialNumber": 31,
            "roleCurrent": "receiver",
            "marblesSampled": 100,
            "probRed": 0.5,
            "practiceLambda": 5,
            "trialLambda": 8.1,
            "instructedLambda": "dishonest_small",
            "drawnRed": 72,
            "reportedRed": 78,
            "inferredRed": 78,
            "playerTrialScore": -6,
            "oppTrialScore": 6,
            "playerTotalScore": -488,
            "oppTotalScore": 116,
            "waitTime": 6778.42760561946,
            "responseTime": 1680840062820,
            "catchQuestion": "How many <b class=\"r\">red<\/b> marbles did your opponent report drawing? ",
            "catchKey": -1,
            "catchResponse": -1,
            "catchTime": 1680840046835,
            "trialTime": 0
        },
        {
            "exptPart": "trial",
            "trialNumber": 32,
            "roleCurrent": "receiver",
            "marblesSampled": 100,
            "probRed": 0.5,
            "practiceLambda": 5,
            "trialLambda": 8.1,
            "instructedLambda": "dishonest_small",
            "drawnRed": 67,
            "reportedRed": 77,
            "inferredRed": 56,
            "playerTrialScore": -11,
            "oppTrialScore": 0,
            "playerTotalScore": -499,
            "oppTotalScore": 116,
            "waitTime": 6808.498320805577,
            "responseTime": 1680840072935,
            "catchQuestion": "How many <b class=\"r\">red<\/b> marbles did your opponent report drawing? ",
            "catchKey": -1,
            "catchResponse": -1,
            "catchTime": 1680840046835,
            "trialTime": 0
        },
        {
            "exptPart": "trial",
            "trialNumber": 33,
            "roleCurrent": "receiver",
            "marblesSampled": 100,
            "probRed": 0.5,
            "practiceLambda": 5,
            "trialLambda": 8.1,
            "instructedLambda": "dishonest_small",
            "drawnRed": 28,
            "reportedRed": 37,
            "inferredRed": 30,
            "playerTrialScore": -2,
            "oppTrialScore": 2,
            "playerTotalScore": -501,
            "oppTotalScore": 118,
            "waitTime": 6113.861106492175,
            "responseTime": 1680840083235,
            "catchQuestion": "How many <b class=\"r\">red<\/b> marbles did your opponent report drawing? ",
            "catchKey": -1,
            "catchResponse": -1,
            "catchTime": 1680840046835,
            "trialTime": 0
        },
        {
            "exptPart": "trial",
            "trialNumber": 34,
            "roleCurrent": "receiver",
            "marblesSampled": 100,
            "probRed": 0.5,
            "practiceLambda": 5,
            "trialLambda": 8.1,
            "instructedLambda": "dishonest_small",
            "drawnRed": 79,
            "reportedRed": 84,
            "inferredRed": 54,
            "playerTrialScore": -25,
            "oppTrialScore": 0,
            "playerTotalScore": -526,
            "oppTotalScore": 118,
            "waitTime": 6505.881119436741,
            "responseTime": 1680840095803,
            "catchQuestion": "How many <b class=\"r\">red<\/b> marbles did your opponent report drawing? ",
            "catchKey": -1,
            "catchResponse": -1,
            "catchTime": 1680840046835,
            "trialTime": 0
        },
        {
            "exptPart": "trial",
            "trialNumber": 35,
            "roleCurrent": "receiver",
            "marblesSampled": 100,
            "probRed": 0.5,
            "practiceLambda": 5,
            "trialLambda": 8.1,
            "instructedLambda": "dishonest_small",
            "drawnRed": 49,
            "reportedRed": 60,
            "inferredRed": 22,
            "playerTrialScore": -27,
            "oppTrialScore": 0,
            "playerTotalScore": -553,
            "oppTotalScore": 118,
            "waitTime": 6035.419225596894,
            "responseTime": 1680840107736,
            "catchQuestion": "How many <b class=\"r\">red<\/b> marbles did your opponent report drawing? ",
            "catchKey": -1,
            "catchResponse": -1,
            "catchTime": 1680840046835,
            "trialTime": 0
        },
        {
            "exptPart": "trial",
            "trialNumber": 36,
            "roleCurrent": "receiver",
            "marblesSampled": 100,
            "probRed": 0.5,
            "practiceLambda": 5,
            "trialLambda": 8.1,
            "instructedLambda": "dishonest_small",
            "drawnRed": 35,
            "reportedRed": 40,
            "inferredRed": 30,
            "playerTrialScore": -5,
            "oppTrialScore": 0,
            "playerTotalScore": -558,
            "oppTotalScore": 118,
            "waitTime": 6081.076022361549,
            "responseTime": 1680840117051,
            "catchQuestion": "How many <b class=\"r\">red<\/b> marbles did your opponent report drawing? ",
            "catchKey": -1,
            "catchResponse": -1,
            "catchTime": 1680840046835,
            "trialTime": 0
        },
        {
            "exptPart": "trial",
            "trialNumber": 37,
            "roleCurrent": "receiver",
            "marblesSampled": 100,
            "probRed": 0.5,
            "practiceLambda": 5,
            "trialLambda": 8.1,
            "instructedLambda": "dishonest_small",
            "drawnRed": 67,
            "reportedRed": 74,
            "inferredRed": 16,
            "playerTrialScore": -51,
            "oppTrialScore": 0,
            "playerTotalScore": -609,
            "oppTotalScore": 118,
            "waitTime": 6467.70630544542,
            "responseTime": 1680840136137,
            "catchQuestion": "How many <b class=\"r\">red<\/b> marbles did your opponent report drawing? ",
            "catchKey": 74,
            "catchResponse": 74,
            "catchTime": 1680840136137,
            "trialTime": 0
        },
        {
            "exptPart": "trial",
            "trialNumber": 38,
            "roleCurrent": "receiver",
            "marblesSampled": 100,
            "probRed": 0.5,
            "practiceLambda": 5,
            "trialLambda": 8.1,
            "instructedLambda": "dishonest_small",
            "drawnRed": 74,
            "reportedRed": 86,
            "inferredRed": 55,
            "playerTrialScore": -19,
            "oppTrialScore": 0,
            "playerTotalScore": -628,
            "oppTotalScore": 118,
            "waitTime": 6866.521356028421,
            "responseTime": 1680840157185,
            "catchQuestion": "How many <b class=\"r\">red<\/b> marbles did your opponent report drawing? ",
            "catchKey": -1,
            "catchResponse": -1,
            "catchTime": 1680840136137,
            "trialTime": 0
        },
        {
            "exptPart": "trial",
            "trialNumber": 39,
            "roleCurrent": "receiver",
            "marblesSampled": 100,
            "probRed": 0.5,
            "practiceLambda": 5,
            "trialLambda": 8.1,
            "instructedLambda": "dishonest_small",
            "drawnRed": 40,
            "reportedRed": 45,
            "inferredRed": 60,
            "playerTrialScore": -20,
            "oppTrialScore": 20,
            "playerTotalScore": -648,
            "oppTotalScore": 138,
            "waitTime": 7076.559615410421,
            "responseTime": 1680840169485,
            "catchQuestion": "How many <b class=\"r\">red<\/b> marbles did your opponent report drawing? ",
            "catchKey": -1,
            "catchResponse": -1,
            "catchTime": 1680840136137,
            "trialTime": 0
        },
        {
            "exptPart": "trial",
            "trialNumber": 40,
            "roleCurrent": "receiver",
            "marblesSampled": 100,
            "probRed": 0.5,
            "practiceLambda": 5,
            "trialLambda": 8.1,
            "instructedLambda": "dishonest_small",
            "drawnRed": 41,
            "reportedRed": 46,
            "inferredRed": 20,
            "playerTrialScore": -21,
            "oppTrialScore": 0,
            "playerTotalScore": -669,
            "oppTotalScore": 138,
            "waitTime": 5582.680045818456,
            "responseTime": 1680840179236,
            "catchQuestion": "How many <b class=\"r\">red<\/b> marbles did your opponent report drawing? ",
            "catchKey": -1,
            "catchResponse": -1,
            "catchTime": 1680840179236,
            "trialTime": 0
        },
        {
            "exptPart": "trial",
            "trialNumber": 41,
            "roleCurrent": "receiver",
            "marblesSampled": 100,
            "probRed": 0.5,
            "practiceLambda": 5,
            "trialLambda": 8.1,
            "instructedLambda": "dishonest_small",
            "drawnRed": 37,
            "reportedRed": 44,
            "inferredRed": 16,
            "playerTrialScore": -21,
            "oppTrialScore": 0,
            "playerTotalScore": -690,
            "oppTotalScore": 138,
            "waitTime": 6805.28993217139,
            "responseTime": 1680840193634,
            "catchQuestion": "How many <b class=\"r\">red<\/b> marbles did your opponent report drawing? ",
            "catchKey": 44,
            "catchResponse": 66,
            "catchTime": 1680840193635,
            "trialTime": 0
        },
        {
            "exptPart": "trial",
            "trialNumber": 42,
            "roleCurrent": "receiver",
            "marblesSampled": 100,
            "probRed": 0.5,
            "practiceLambda": 5,
            "trialLambda": 8.1,
            "instructedLambda": "dishonest_small",
            "drawnRed": 40,
            "reportedRed": 48,
            "inferredRed": 40,
            "playerTrialScore": 0,
            "oppTrialScore": 0,
            "playerTotalScore": -690,
            "oppTotalScore": 138,
            "waitTime": 6517.925367536331,
            "responseTime": 1680840211852,
            "catchQuestion": "How many <b class=\"r\">red<\/b> marbles did your opponent report drawing? ",
            "catchKey": -1,
            "catchResponse": -1,
            "catchTime": 1680840193635,
            "trialTime": 0
        },
        {
            "exptPart": "trial",
            "trialNumber": 43,
            "roleCurrent": "receiver",
            "marblesSampled": 100,
            "probRed": 0.5,
            "practiceLambda": 5,
            "trialLambda": 8.1,
            "instructedLambda": "dishonest_small",
            "drawnRed": 42,
            "reportedRed": 52,
            "inferredRed": 16,
            "playerTrialScore": -26,
            "oppTrialScore": 0,
            "playerTotalScore": -716,
            "oppTotalScore": 138,
            "waitTime": 6882.256560809048,
            "responseTime": 1680840225135,
            "catchQuestion": "How many <b class=\"r\">red<\/b> marbles did your opponent report drawing? ",
            "catchKey": -1,
            "catchResponse": -1,
            "catchTime": 1680840193635,
            "trialTime": 0
        },
        {
            "exptPart": "trial",
            "trialNumber": 44,
            "roleCurrent": "receiver",
            "marblesSampled": 100,
            "probRed": 0.5,
            "practiceLambda": 5,
            "trialLambda": 8.1,
            "instructedLambda": "dishonest_small",
            "drawnRed": 80,
            "reportedRed": 88,
            "inferredRed": 50,
            "playerTrialScore": -30,
            "oppTrialScore": 0,
            "playerTotalScore": -746,
            "oppTotalScore": 138,
            "waitTime": 5543.813856438492,
            "responseTime": 1680840235154,
            "catchQuestion": "How many <b class=\"r\">red<\/b> marbles did your opponent report drawing? ",
            "catchKey": 88,
            "catchResponse": 80,
            "catchTime": 1680840235154,
            "trialTime": 0
        },
        {
            "exptPart": "trial",
            "trialNumber": 45,
            "roleCurrent": "receiver",
            "marblesSampled": 100,
            "probRed": 0.5,
            "practiceLambda": 5,
            "trialLambda": 8.1,
            "instructedLambda": "dishonest_small",
            "drawnRed": 39,
            "reportedRed": 49,
            "inferredRed": 12,
            "playerTrialScore": -27,
            "oppTrialScore": 0,
            "playerTotalScore": -773,
            "oppTotalScore": 138,
            "waitTime": 6350.386459308951,
            "responseTime": 1680840252668,
            "catchQuestion": "How many <b class=\"r\">red<\/b> marbles did your opponent report drawing? ",
            "catchKey": -1,
            "catchResponse": -1,
            "catchTime": 1680840235154,
            "trialTime": 0
        },
        {
            "exptPart": "trial",
            "trialNumber": 46,
            "roleCurrent": "receiver",
            "marblesSampled": 100,
            "probRed": 0.5,
            "practiceLambda": 5,
            "trialLambda": 8.1,
            "instructedLambda": "dishonest_small",
            "drawnRed": 15,
            "reportedRed": 24,
            "inferredRed": 16,
            "playerTrialScore": -1,
            "oppTrialScore": 1,
            "playerTotalScore": -774,
            "oppTotalScore": 139,
            "waitTime": 5483.170829951738,
            "responseTime": 1680840261804,
            "catchQuestion": "How many <b class=\"r\">red<\/b> marbles did your opponent report drawing? ",
            "catchKey": -1,
            "catchResponse": -1,
            "catchTime": 1680840235154,
            "trialTime": 0
        },
        {
            "exptPart": "trial",
            "trialNumber": 47,
            "roleCurrent": "receiver",
            "marblesSampled": 100,
            "probRed": 0.5,
            "practiceLambda": 5,
            "trialLambda": 8.1,
            "instructedLambda": "dishonest_small",
            "drawnRed": 44,
            "reportedRed": 48,
            "inferredRed": 20,
            "playerTrialScore": -24,
            "oppTrialScore": 0,
            "playerTotalScore": -798,
            "oppTotalScore": 139,
            "waitTime": 5442.4064759167595,
            "responseTime": 1680840270719,
            "catchQuestion": "How many <b class=\"r\">red<\/b> marbles did your opponent report drawing? ",
            "catchKey": -1,
            "catchResponse": -1,
            "catchTime": 1680840235154,
            "trialTime": 0
        },
        {
            "exptPart": "trial",
            "trialNumber": 48,
            "roleCurrent": "receiver",
            "marblesSampled": 100,
            "probRed": 0.5,
            "practiceLambda": 5,
            "trialLambda": 8.1,
            "instructedLambda": "dishonest_small",
            "drawnRed": 65,
            "reportedRed": 70,
            "inferredRed": 30,
            "playerTrialScore": -35,
            "oppTrialScore": 0,
            "playerTotalScore": -833,
            "oppTotalScore": 139,
            "waitTime": 5572.096164312897,
            "responseTime": 1680840280485,
            "catchQuestion": "How many <b class=\"r\">red<\/b> marbles did your opponent report drawing? ",
            "catchKey": -1,
            "catchResponse": -1,
            "catchTime": 1680840235154,
            "trialTime": 0
        },
        {
            "exptPart": "trial",
            "trialNumber": 49,
            "roleCurrent": "receiver",
            "marblesSampled": 100,
            "probRed": 0.5,
            "practiceLambda": 5,
            "trialLambda": 8.1,
            "instructedLambda": "dishonest_small",
            "drawnRed": 27,
            "reportedRed": 38,
            "inferredRed": 16,
            "playerTrialScore": -11,
            "oppTrialScore": 0,
            "playerTotalScore": -844,
            "oppTotalScore": 139,
            "waitTime": 5163.466421367498,
            "responseTime": 1680840289120,
            "catchQuestion": "How many <b class=\"r\">red<\/b> marbles did your opponent report drawing? ",
            "catchKey": -1,
            "catchResponse": -1,
            "catchTime": 1680840235154,
            "trialTime": 0
        },
        {
            "exptPart": "trial",
            "trialNumber": 50,
            "roleCurrent": "receiver",
            "marblesSampled": 100,
            "probRed": 0.5,
            "practiceLambda": 5,
            "trialLambda": 8.1,
            "instructedLambda": "dishonest_small",
            "drawnRed": 47,
            "reportedRed": 53,
            "inferredRed": 16,
            "playerTrialScore": -31,
            "oppTrialScore": 0,
            "playerTotalScore": -875,
            "oppTotalScore": 139,
            "waitTime": 5751.27623356236,
            "responseTime": 1680840298235,
            "catchQuestion": "How many <b class=\"r\">red<\/b> marbles did your opponent report drawing? ",
            "catchKey": -1,
            "catchResponse": -1,
            "catchTime": 1680840298235,
            "trialTime": 0
        },
        {
            "exptPart": "trial",
            "trialNumber": 51,
            "roleCurrent": "receiver",
            "marblesSampled": 100,
            "probRed": 0.5,
            "practiceLambda": 5,
            "trialLambda": 8.1,
            "instructedLambda": "dishonest_small",
            "drawnRed": 38,
            "reportedRed": 46,
            "inferredRed": 46,
            "playerTrialScore": -8,
            "oppTrialScore": 8,
            "playerTotalScore": -883,
            "oppTotalScore": 147,
            "waitTime": 5844.804233940773,
            "responseTime": 1680840310919,
            "catchQuestion": "How many <b class=\"r\">red<\/b> marbles did your opponent report drawing? ",
            "catchKey": -1,
            "catchResponse": -1,
            "catchTime": 1680840298235,
            "trialTime": 0
        },
        {
            "exptPart": "trial",
            "trialNumber": 52,
            "roleCurrent": "receiver",
            "marblesSampled": 100,
            "probRed": 0.5,
            "practiceLambda": 5,
            "trialLambda": 8.1,
            "instructedLambda": "dishonest_small",
            "drawnRed": 63,
            "reportedRed": 74,
            "inferredRed": 60,
            "playerTrialScore": -3,
            "oppTrialScore": 0,
            "playerTotalScore": -886,
            "oppTotalScore": 147,
            "waitTime": 5174.56253801489,
            "responseTime": 1680840321188,
            "catchQuestion": "How many <b class=\"r\">red<\/b> marbles did your opponent report drawing? ",
            "catchKey": -1,
            "catchResponse": -1,
            "catchTime": 1680840298235,
            "trialTime": 0
        },
        {
            "exptPart": "trial",
            "trialNumber": 53,
            "roleCurrent": "receiver",
            "marblesSampled": 100,
            "probRed": 0.5,
            "practiceLambda": 5,
            "trialLambda": 8.1,
            "instructedLambda": "dishonest_small",
            "drawnRed": 71,
            "reportedRed": 82,
            "inferredRed": 72,
            "playerTrialScore": -1,
            "oppTrialScore": 1,
            "playerTotalScore": -887,
            "oppTotalScore": 148,
            "waitTime": 5185.278892556873,
            "responseTime": 1680840331202,
            "catchQuestion": "How many <b class=\"r\">red<\/b> marbles did your opponent report drawing? ",
            "catchKey": -1,
            "catchResponse": -1,
            "catchTime": 1680840298235,
            "trialTime": 0
        },
        {
            "exptPart": "trial",
            "trialNumber": 54,
            "roleCurrent": "receiver",
            "marblesSampled": 100,
            "probRed": 0.5,
            "practiceLambda": 5,
            "trialLambda": 8.1,
            "instructedLambda": "dishonest_small",
            "drawnRed": 48,
            "reportedRed": 56,
            "inferredRed": 54,
            "playerTrialScore": -6,
            "oppTrialScore": 6,
            "playerTotalScore": -893,
            "oppTotalScore": 154,
            "waitTime": 7301.925811642028,
            "responseTime": 1680840342686,
            "catchQuestion": "How many <b class=\"r\">red<\/b> marbles did your opponent report drawing? ",
            "catchKey": -1,
            "catchResponse": -1,
            "catchTime": 1680840298235,
            "trialTime": 0
        },
        {
            "exptPart": "trial",
            "trialNumber": 55,
            "roleCurrent": "receiver",
            "marblesSampled": 100,
            "probRed": 0.5,
            "practiceLambda": 5,
            "trialLambda": 8.1,
            "instructedLambda": "dishonest_small",
            "drawnRed": 49,
            "reportedRed": 59,
            "inferredRed": 49,
            "playerTrialScore": 0,
            "oppTrialScore": 0,
            "playerTotalScore": -893,
            "oppTotalScore": 154,
            "waitTime": 6844.472772729873,
            "responseTime": 1680840353352,
            "catchQuestion": "How many <b class=\"r\">red<\/b> marbles did your opponent report drawing? ",
            "catchKey": -1,
            "catchResponse": -1,
            "catchTime": 1680840298235,
            "trialTime": 0
        },
        {
            "exptPart": "trial",
            "trialNumber": 56,
            "roleCurrent": "receiver",
            "marblesSampled": 100,
            "probRed": 0.5,
            "practiceLambda": 5,
            "trialLambda": 8.1,
            "instructedLambda": "dishonest_small",
            "drawnRed": 35,
            "reportedRed": 43,
            "inferredRed": 40,
            "playerTrialScore": -5,
            "oppTrialScore": 5,
            "playerTotalScore": -898,
            "oppTotalScore": 159,
            "waitTime": 5290.673636084752,
            "responseTime": 1680840361752,
            "catchQuestion": "How many <b class=\"r\">red<\/b> marbles did your opponent report drawing? ",
            "catchKey": -1,
            "catchResponse": -1,
            "catchTime": 1680840298235,
            "trialTime": 0
        },
        {
            "exptPart": "trial",
            "trialNumber": 57,
            "roleCurrent": "receiver",
            "marblesSampled": 100,
            "probRed": 0.5,
            "practiceLambda": 5,
            "trialLambda": 8.1,
            "instructedLambda": "dishonest_small",
            "drawnRed": 30,
            "reportedRed": 36,
            "inferredRed": 36,
            "playerTrialScore": -6,
            "oppTrialScore": 6,
            "playerTotalScore": -904,
            "oppTotalScore": 165,
            "waitTime": 6040.807923906164,
            "responseTime": 1680840375203,
            "catchQuestion": "How many <b class=\"r\">red<\/b> marbles did your opponent report drawing? ",
            "catchKey": -1,
            "catchResponse": -1,
            "catchTime": 1680840298235,
            "trialTime": 0
        },
        {
            "exptPart": "trial",
            "trialNumber": 58,
            "roleCurrent": "receiver",
            "marblesSampled": 100,
            "probRed": 0.5,
            "practiceLambda": 5,
            "trialLambda": 8.1,
            "instructedLambda": "dishonest_small",
            "drawnRed": 68,
            "reportedRed": 76,
            "inferredRed": 75,
            "playerTrialScore": -7,
            "oppTrialScore": 7,
            "playerTotalScore": -911,
            "oppTotalScore": 172,
            "waitTime": 5574.34650025335,
            "responseTime": 1680840384570,
            "catchQuestion": "How many <b class=\"r\">red<\/b> marbles did your opponent report drawing? ",
            "catchKey": -1,
            "catchResponse": -1,
            "catchTime": 1680840298235,
            "trialTime": 0
        },
        {
            "exptPart": "trial",
            "trialNumber": 59,
            "roleCurrent": "receiver",
            "marblesSampled": 100,
            "probRed": 0.5,
            "practiceLambda": 5,
            "trialLambda": 8.1,
            "instructedLambda": "dishonest_small",
            "drawnRed": 75,
            "reportedRed": 82,
            "inferredRed": 80,
            "playerTrialScore": -5,
            "oppTrialScore": 5,
            "playerTotalScore": -916,
            "oppTotalScore": 177,
            "waitTime": 6023.8839097882565,
            "responseTime": 1680840393636,
            "catchQuestion": "How many <b class=\"r\">red<\/b> marbles did your opponent report drawing? ",
            "catchKey": -1,
            "catchResponse": -1,
            "catchTime": 1680840298235,
            "trialTime": 0
        },
        {
            "exptPart": "trial",
            "trialNumber": 60,
            "roleCurrent": "receiver",
            "marblesSampled": 100,
            "probRed": 0.5,
            "practiceLambda": 5,
            "trialLambda": 8.1,
            "instructedLambda": "dishonest_small",
            "drawnRed": 60,
            "reportedRed": 69,
            "inferredRed": 68,
            "playerTrialScore": -8,
            "oppTrialScore": 8,
            "playerTotalScore": -924,
            "oppTotalScore": 185,
            "waitTime": 6234.3771210739815,
            "responseTime": 1680840404752,
            "catchQuestion": "How many <b class=\"r\">red<\/b> marbles did your opponent report drawing? ",
            "catchKey": -1,
            "catchResponse": -1,
            "catchTime": 1680840404752,
            "trialTime": 0
        },
        {
            "exptPart": "trial",
            "trialNumber": 61,
            "roleCurrent": "receiver",
            "marblesSampled": 100,
            "probRed": 0.5,
            "practiceLambda": 5,
            "trialLambda": 8.1,
            "instructedLambda": "dishonest_small",
            "drawnRed": 29,
            "reportedRed": 35,
            "inferredRed": 38,
            "playerTrialScore": -9,
            "oppTrialScore": 9,
            "playerTotalScore": -933,
            "oppTotalScore": 194,
            "waitTime": 7206.286349306644,
            "responseTime": 1680840429769,
            "catchQuestion": "How many <b class=\"r\">red<\/b> marbles did your opponent report drawing? ",
            "catchKey": -1,
            "catchResponse": -1,
            "catchTime": 1680840404752,
            "trialTime": 0
        },
        {
            "exptPart": "trial",
            "trialNumber": 62,
            "roleCurrent": "receiver",
            "marblesSampled": 100,
            "probRed": 0.5,
            "practiceLambda": 5,
            "trialLambda": 8.1,
            "instructedLambda": "dishonest_small",
            "drawnRed": 47,
            "reportedRed": 52,
            "inferredRed": 54,
            "playerTrialScore": -7,
            "oppTrialScore": 7,
            "playerTotalScore": -940,
            "oppTotalScore": 201,
            "waitTime": 6693.585096967435,
            "responseTime": 1680840439852,
            "catchQuestion": "How many <b class=\"r\">red<\/b> marbles did your opponent report drawing? ",
            "catchKey": -1,
            "catchResponse": -1,
            "catchTime": 1680840404752,
            "trialTime": 0
        },
        {
            "exptPart": "trial",
            "trialNumber": 63,
            "roleCurrent": "receiver",
            "marblesSampled": 100,
            "probRed": 0.5,
            "practiceLambda": 5,
            "trialLambda": 8.1,
            "instructedLambda": "dishonest_small",
            "drawnRed": 67,
            "reportedRed": 78,
            "inferredRed": 80,
            "playerTrialScore": -13,
            "oppTrialScore": 13,
            "playerTotalScore": -953,
            "oppTotalScore": 214,
            "waitTime": 5470.439476015053,
            "responseTime": 1680840452069,
            "catchQuestion": "How many <b class=\"r\">red<\/b> marbles did your opponent report drawing? ",
            "catchKey": -1,
            "catchResponse": -1,
            "catchTime": 1680840404752,
            "trialTime": 0
        },
        {
            "exptPart": "trial",
            "trialNumber": 64,
            "roleCurrent": "receiver",
            "marblesSampled": 100,
            "probRed": 0.5,
            "practiceLambda": 5,
            "trialLambda": 8.1,
            "instructedLambda": "dishonest_small",
            "drawnRed": 60,
            "reportedRed": 67,
            "inferredRed": 70,
            "playerTrialScore": -10,
            "oppTrialScore": 10,
            "playerTotalScore": -963,
            "oppTotalScore": 224,
            "waitTime": 6100.567183178395,
            "responseTime": 1680840465236,
            "catchQuestion": "How many <b class=\"r\">red<\/b> marbles did your opponent report drawing? ",
            "catchKey": -1,
            "catchResponse": -1,
            "catchTime": 1680840404752,
            "trialTime": 0
        },
        {
            "exptPart": "trial",
            "trialNumber": 65,
            "roleCurrent": "receiver",
            "marblesSampled": 100,
            "probRed": 0.5,
            "practiceLambda": 5,
            "trialLambda": 8.1,
            "instructedLambda": "dishonest_small",
            "drawnRed": 49,
            "reportedRed": 58,
            "inferredRed": 59,
            "playerTrialScore": -10,
            "oppTrialScore": 10,
            "playerTotalScore": -973,
            "oppTotalScore": 234,
            "waitTime": 5340.450652769448,
            "responseTime": 1680840474669,
            "catchQuestion": "How many <b class=\"r\">red<\/b> marbles did your opponent report drawing? ",
            "catchKey": -1,
            "catchResponse": -1,
            "catchTime": 1680840404752,
            "trialTime": 0
        },
        {
            "exptPart": "trial",
            "trialNumber": 66,
            "roleCurrent": "receiver",
            "marblesSampled": 100,
            "probRed": 0.5,
            "practiceLambda": 5,
            "trialLambda": 8.1,
            "instructedLambda": "dishonest_small",
            "drawnRed": 88,
            "reportedRed": 97,
            "inferredRed": 98,
            "playerTrialScore": -10,
            "oppTrialScore": 10,
            "playerTotalScore": -983,
            "oppTotalScore": 244,
            "waitTime": 5661.099111686699,
            "responseTime": 1680840485820,
            "catchQuestion": "How many <b class=\"r\">red<\/b> marbles did your opponent report drawing? ",
            "catchKey": -1,
            "catchResponse": -1,
            "catchTime": 1680840404752,
            "trialTime": 0
        },
        {
            "exptPart": "trial",
            "trialNumber": 67,
            "roleCurrent": "receiver",
            "marblesSampled": 100,
            "probRed": 0.5,
            "practiceLambda": 5,
            "trialLambda": 8.1,
            "instructedLambda": "dishonest_small",
            "drawnRed": 48,
            "reportedRed": 60,
            "inferredRed": 65,
            "playerTrialScore": -17,
            "oppTrialScore": 17,
            "playerTotalScore": -1000,
            "oppTotalScore": 261,
            "waitTime": 6991.274718598637,
            "responseTime": 1680840497003,
            "catchQuestion": "How many <b class=\"r\">red<\/b> marbles did your opponent report drawing? ",
            "catchKey": -1,
            "catchResponse": -1,
            "catchTime": 1680840404752,
            "trialTime": 0
        },
        {
            "exptPart": "trial",
            "trialNumber": 68,
            "roleCurrent": "receiver",
            "marblesSampled": 100,
            "probRed": 0.5,
            "practiceLambda": 5,
            "trialLambda": 8.1,
            "instructedLambda": "dishonest_small",
            "drawnRed": 95,
            "reportedRed": 100,
            "inferredRed": 54,
            "playerTrialScore": -41,
            "oppTrialScore": 0,
            "playerTotalScore": -1041,
            "oppTotalScore": 261,
            "waitTime": 7042.018074473081,
            "responseTime": 1680840512069,
            "catchQuestion": "How many <b class=\"r\">red<\/b> marbles did your opponent report drawing? ",
            "catchKey": -1,
            "catchResponse": -1,
            "catchTime": 1680840404752,
            "trialTime": 0
        },
        {
            "exptPart": "trial",
            "trialNumber": 69,
            "roleCurrent": "receiver",
            "marblesSampled": 100,
            "probRed": 0.5,
            "practiceLambda": 5,
            "trialLambda": 8.1,
            "instructedLambda": "dishonest_small",
            "drawnRed": 81,
            "reportedRed": 89,
            "inferredRed": 65,
            "playerTrialScore": -16,
            "oppTrialScore": 0,
            "playerTotalScore": -1057,
            "oppTotalScore": 261,
            "waitTime": 7095.320568431834,
            "responseTime": 1680840531119,
            "catchQuestion": "How many <b class=\"r\">red<\/b> marbles did your opponent report drawing? ",
            "catchKey": -1,
            "catchResponse": -1,
            "catchTime": 1680840404752,
            "trialTime": 0
        },
        {
            "exptPart": "trial",
            "trialNumber": 70,
            "roleCurrent": "receiver",
            "marblesSampled": 100,
            "probRed": 0.5,
            "practiceLambda": 5,
            "trialLambda": 8.1,
            "instructedLambda": "dishonest_small",
            "drawnRed": 74,
            "reportedRed": 82,
            "inferredRed": 54,
            "playerTrialScore": -20,
            "oppTrialScore": 0,
            "playerTotalScore": -1077,
            "oppTotalScore": 261,
            "waitTime": 6626.433966374874,
            "responseTime": 1680840541236,
            "catchQuestion": "How many <b class=\"r\">red<\/b> marbles did your opponent report drawing? ",
            "catchKey": -1,
            "catchResponse": -1,
            "catchTime": 1680840541236,
            "trialTime": 0
        },
        {
            "exptPart": "trial",
            "trialNumber": 71,
            "roleCurrent": "receiver",
            "marblesSampled": 100,
            "probRed": 0.5,
            "practiceLambda": 5,
            "trialLambda": 8.1,
            "instructedLambda": "dishonest_small",
            "drawnRed": 76,
            "reportedRed": 85,
            "inferredRed": 90,
            "playerTrialScore": -14,
            "oppTrialScore": 14,
            "playerTotalScore": -1091,
            "oppTotalScore": 275,
            "waitTime": 7318.0255781481765,
            "responseTime": 1680840567770,
            "catchQuestion": "How many <b class=\"r\">red<\/b> marbles did your opponent report drawing? ",
            "catchKey": -1,
            "catchResponse": -1,
            "catchTime": 1680840541236,
            "trialTime": 0
        },
        {
            "exptPart": "trial",
            "trialNumber": 72,
            "roleCurrent": "receiver",
            "marblesSampled": 100,
            "probRed": 0.5,
            "practiceLambda": 5,
            "trialLambda": 8.1,
            "instructedLambda": "dishonest_small",
            "drawnRed": 52,
            "reportedRed": 61,
            "inferredRed": 65,
            "playerTrialScore": -13,
            "oppTrialScore": 13,
            "playerTotalScore": -1104,
            "oppTotalScore": 288,
            "waitTime": 5141.211244491174,
            "responseTime": 1680840576470,
            "catchQuestion": "How many <b class=\"r\">red<\/b> marbles did your opponent report drawing? ",
            "catchKey": -1,
            "catchResponse": -1,
            "catchTime": 1680840541236,
            "trialTime": 0
        },
        {
            "exptPart": "trial",
            "trialNumber": 73,
            "roleCurrent": "receiver",
            "marblesSampled": 100,
            "probRed": 0.5,
            "practiceLambda": 5,
            "trialLambda": 8.1,
            "instructedLambda": "dishonest_small",
            "drawnRed": 91,
            "reportedRed": 98,
            "inferredRed": 20,
            "playerTrialScore": -71,
            "oppTrialScore": 0,
            "playerTotalScore": -1175,
            "oppTotalScore": 288,
            "waitTime": 6867.7514993694695,
            "responseTime": 1680840597702,
            "catchQuestion": "How many <b class=\"r\">red<\/b> marbles did your opponent report drawing? ",
            "catchKey": 98,
            "catchResponse": 98,
            "catchTime": 1680840597702,
            "trialTime": 0
        },
        {
            "exptPart": "trial",
            "trialNumber": 74,
            "roleCurrent": "receiver",
            "marblesSampled": 100,
            "probRed": 0.5,
            "practiceLambda": 5,
            "trialLambda": 8.1,
            "instructedLambda": "dishonest_small",
            "drawnRed": 40,
            "reportedRed": 50,
            "inferredRed": 50,
            "playerTrialScore": -10,
            "oppTrialScore": 10,
            "playerTotalScore": -1185,
            "oppTotalScore": 298,
            "waitTime": 7301.6474453393075,
            "responseTime": 1680840613704,
            "catchQuestion": "How many <b class=\"r\">red<\/b> marbles did your opponent report drawing? ",
            "catchKey": -1,
            "catchResponse": -1,
            "catchTime": 1680840597702,
            "trialTime": 0
        },
        {
            "exptPart": "trial",
            "trialNumber": 75,
            "roleCurrent": "receiver",
            "marblesSampled": 100,
            "probRed": 0.5,
            "practiceLambda": 5,
            "trialLambda": 8.1,
            "instructedLambda": "dishonest_small",
            "drawnRed": 40,
            "reportedRed": 45,
            "inferredRed": 40,
            "playerTrialScore": 0,
            "oppTrialScore": 0,
            "playerTotalScore": -1185,
            "oppTotalScore": 298,
            "waitTime": 5684.3723626055125,
            "responseTime": 1680840622369,
            "catchQuestion": "How many <b class=\"r\">red<\/b> marbles did your opponent report drawing? ",
            "catchKey": -1,
            "catchResponse": -1,
            "catchTime": 1680840597702,
            "trialTime": 0
        },
        {
            "exptPart": "trial",
            "trialNumber": 76,
            "roleCurrent": "receiver",
            "marblesSampled": 100,
            "probRed": 0.5,
            "practiceLambda": 5,
            "trialLambda": 8.1,
            "instructedLambda": "dishonest_small",
            "drawnRed": 71,
            "reportedRed": 76,
            "inferredRed": 70,
            "playerTrialScore": -1,
            "oppTrialScore": 0,
            "playerTotalScore": -1186,
            "oppTotalScore": 298,
            "waitTime": 5871.50950098612,
            "responseTime": 1680840631437,
            "catchQuestion": "How many <b class=\"r\">red<\/b> marbles did your opponent report drawing? ",
            "catchKey": -1,
            "catchResponse": -1,
            "catchTime": 1680840597702,
            "trialTime": 0
        },
        {
            "exptPart": "trial",
            "trialNumber": 77,
            "roleCurrent": "receiver",
            "marblesSampled": 100,
            "probRed": 0.5,
            "practiceLambda": 5,
            "trialLambda": 8.1,
            "instructedLambda": "dishonest_small",
            "drawnRed": 40,
            "reportedRed": 47,
            "inferredRed": 48,
            "playerTrialScore": -8,
            "oppTrialScore": 8,
            "playerTotalScore": -1194,
            "oppTotalScore": 306,
            "waitTime": 6693.628950264043,
            "responseTime": 1680840642420,
            "catchQuestion": "How many <b class=\"r\">red<\/b> marbles did your opponent report drawing? ",
            "catchKey": -1,
            "catchResponse": -1,
            "catchTime": 1680840597702,
            "trialTime": 0
        },
        {
            "exptPart": "trial",
            "trialNumber": 78,
            "roleCurrent": "receiver",
            "marblesSampled": 100,
            "probRed": 0.5,
            "practiceLambda": 5,
            "trialLambda": 8.1,
            "instructedLambda": "dishonest_small",
            "drawnRed": 42,
            "reportedRed": 51,
            "inferredRed": 50,
            "playerTrialScore": -8,
            "oppTrialScore": 8,
            "playerTotalScore": -1202,
            "oppTotalScore": 314,
            "waitTime": 5257.009612296555,
            "responseTime": 1680840650470,
            "catchQuestion": "How many <b class=\"r\">red<\/b> marbles did your opponent report drawing? ",
            "catchKey": -1,
            "catchResponse": -1,
            "catchTime": 1680840597702,
            "trialTime": 0
        },
        {
            "exptPart": "trial",
            "trialNumber": 79,
            "roleCurrent": "receiver",
            "marblesSampled": 100,
            "probRed": 0.5,
            "practiceLambda": 5,
            "trialLambda": 8.1,
            "instructedLambda": "dishonest_small",
            "drawnRed": 78,
            "reportedRed": 86,
            "inferredRed": 80,
            "playerTrialScore": -2,
            "oppTrialScore": 2,
            "playerTotalScore": -1204,
            "oppTotalScore": 316,
            "waitTime": 6075.918476310411,
            "responseTime": 1680840660120,
            "catchQuestion": "How many <b class=\"r\">red<\/b> marbles did your opponent report drawing? ",
            "catchKey": -1,
            "catchResponse": -1,
            "catchTime": 1680840597702,
            "trialTime": 0
        },
        {
            "exptPart": "trial",
            "trialNumber": 80,
            "roleCurrent": "receiver",
            "marblesSampled": 100,
            "probRed": 0.5,
            "practiceLambda": 5,
            "trialLambda": 8.1,
            "instructedLambda": "dishonest_small",
            "drawnRed": 41,
            "reportedRed": 47,
            "inferredRed": 54,
            "playerTrialScore": -13,
            "oppTrialScore": 13,
            "playerTotalScore": -1217,
            "oppTotalScore": 329,
            "waitTime": 7066.383449456534,
            "responseTime": 1680840670236,
            "catchQuestion": "How many <b class=\"r\">red<\/b> marbles did your opponent report drawing? ",
            "catchKey": -1,
            "catchResponse": -1,
            "catchTime": 1680840670236,
            "trialTime": 0
        },
        {
            "exptPart": "trial",
            "trialNumber": 81,
            "roleCurrent": "receiver",
            "marblesSampled": 100,
            "probRed": 0.5,
            "practiceLambda": 5,
            "trialLambda": 8.1,
            "instructedLambda": "dishonest_small",
            "drawnRed": 16,
            "reportedRed": 26,
            "inferredRed": 44,
            "playerTrialScore": -28,
            "oppTrialScore": 28,
            "playerTotalScore": -1245,
            "oppTotalScore": 357,
            "waitTime": 5820.909095617246,
            "responseTime": 1680840682954,
            "catchQuestion": "How many <b class=\"r\">red<\/b> marbles did your opponent report drawing? ",
            "catchKey": -1,
            "catchResponse": -1,
            "catchTime": 1680840670236,
            "trialTime": 0
        },
        {
            "exptPart": "trial",
            "trialNumber": 82,
            "roleCurrent": "receiver",
            "marblesSampled": 100,
            "probRed": 0.5,
            "practiceLambda": 5,
            "trialLambda": 8.1,
            "instructedLambda": "dishonest_small",
            "drawnRed": 35,
            "reportedRed": 46,
            "inferredRed": 42,
            "playerTrialScore": -7,
            "oppTrialScore": 7,
            "playerTotalScore": -1252,
            "oppTotalScore": 364,
            "waitTime": 6818.2293361321035,
            "responseTime": 1680840694270,
            "catchQuestion": "How many <b class=\"r\">red<\/b> marbles did your opponent report drawing? ",
            "catchKey": -1,
            "catchResponse": -1,
            "catchTime": 1680840670236,
            "trialTime": 0
        },
        {
            "exptPart": "trial",
            "trialNumber": 83,
            "roleCurrent": "receiver",
            "marblesSampled": 100,
            "probRed": 0.5,
            "practiceLambda": 5,
            "trialLambda": 8.1,
            "instructedLambda": "dishonest_small",
            "drawnRed": 50,
            "reportedRed": 59,
            "inferredRed": 49,
            "playerTrialScore": -1,
            "oppTrialScore": 0,
            "playerTotalScore": -1253,
            "oppTotalScore": 364,
            "waitTime": 6830.105748703253,
            "responseTime": 1680840705436,
            "catchQuestion": "How many <b class=\"r\">red<\/b> marbles did your opponent report drawing? ",
            "catchKey": -1,
            "catchResponse": -1,
            "catchTime": 1680840670236,
            "trialTime": 0
        },
        {
            "exptPart": "trial",
            "trialNumber": 84,
            "roleCurrent": "receiver",
            "marblesSampled": 100,
            "probRed": 0.5,
            "practiceLambda": 5,
            "trialLambda": 8.1,
            "instructedLambda": "dishonest_small",
            "drawnRed": 32,
            "reportedRed": 40,
            "inferredRed": 37,
            "playerTrialScore": -5,
            "oppTrialScore": 5,
            "playerTotalScore": -1258,
            "oppTotalScore": 369,
            "waitTime": 5622.3351495870575,
            "responseTime": 1680840714836,
            "catchQuestion": "How many <b class=\"r\">red<\/b> marbles did your opponent report drawing? ",
            "catchKey": -1,
            "catchResponse": -1,
            "catchTime": 1680840670236,
            "trialTime": 0
        },
        {
            "exptPart": "trial",
            "trialNumber": 85,
            "roleCurrent": "receiver",
            "marblesSampled": 100,
            "probRed": 0.5,
            "practiceLambda": 5,
            "trialLambda": 8.1,
            "instructedLambda": "dishonest_small",
            "drawnRed": 19,
            "reportedRed": 28,
            "inferredRed": 38,
            "playerTrialScore": -19,
            "oppTrialScore": 19,
            "playerTotalScore": -1277,
            "oppTotalScore": 388,
            "waitTime": 6993.257851739639,
            "responseTime": 1680840725270,
            "catchQuestion": "How many <b class=\"r\">red<\/b> marbles did your opponent report drawing? ",
            "catchKey": -1,
            "catchResponse": -1,
            "catchTime": 1680840670236,
            "trialTime": 0
        },
        {
            "exptPart": "trial",
            "trialNumber": 86,
            "roleCurrent": "receiver",
            "marblesSampled": 100,
            "probRed": 0.5,
            "practiceLambda": 5,
            "trialLambda": 8.1,
            "instructedLambda": "dishonest_small",
            "drawnRed": 23,
            "reportedRed": 28,
            "inferredRed": 45,
            "playerTrialScore": -22,
            "oppTrialScore": 22,
            "playerTotalScore": -1299,
            "oppTotalScore": 410,
            "waitTime": 6900.479086129672,
            "responseTime": 1680840735955,
            "catchQuestion": "How many <b class=\"r\">red<\/b> marbles did your opponent report drawing? ",
            "catchKey": -1,
            "catchResponse": -1,
            "catchTime": 1680840670236,
            "trialTime": 0
        },
        {
            "exptPart": "trial",
            "trialNumber": 87,
            "roleCurrent": "receiver",
            "marblesSampled": 100,
            "probRed": 0.5,
            "practiceLambda": 5,
            "trialLambda": 8.1,
            "instructedLambda": "dishonest_small",
            "drawnRed": 64,
            "reportedRed": 74,
            "inferredRed": 65,
            "playerTrialScore": -1,
            "oppTrialScore": 1,
            "playerTotalScore": -1300,
            "oppTotalScore": 411,
            "waitTime": 5188.584826217856,
            "responseTime": 1680840744871,
            "catchQuestion": "How many <b class=\"r\">red<\/b> marbles did your opponent report drawing? ",
            "catchKey": -1,
            "catchResponse": -1,
            "catchTime": 1680840670236,
            "trialTime": 0
        },
        {
            "exptPart": "trial",
            "trialNumber": 88,
            "roleCurrent": "receiver",
            "marblesSampled": 100,
            "probRed": 0.5,
            "practiceLambda": 5,
            "trialLambda": 8.1,
            "instructedLambda": "dishonest_small",
            "drawnRed": 49,
            "reportedRed": 56,
            "inferredRed": 46,
            "playerTrialScore": -3,
            "oppTrialScore": 0,
            "playerTotalScore": -1303,
            "oppTotalScore": 411,
            "waitTime": 5716.2407796398475,
            "responseTime": 1680840753803,
            "catchQuestion": "How many <b class=\"r\">red<\/b> marbles did your opponent report drawing? ",
            "catchKey": -1,
            "catchResponse": -1,
            "catchTime": 1680840670236,
            "trialTime": 0
        },
        {
            "exptPart": "trial",
            "trialNumber": 89,
            "roleCurrent": "receiver",
            "marblesSampled": 100,
            "probRed": 0.5,
            "practiceLambda": 5,
            "trialLambda": 8.1,
            "instructedLambda": "dishonest_small",
            "drawnRed": 59,
            "reportedRed": 68,
            "inferredRed": 57,
            "playerTrialScore": -2,
            "oppTrialScore": 0,
            "playerTotalScore": -1305,
            "oppTotalScore": 411,
            "waitTime": 7178.784613700466,
            "responseTime": 1680840765223,
            "catchQuestion": "How many <b class=\"r\">red<\/b> marbles did your opponent report drawing? ",
            "catchKey": -1,
            "catchResponse": -1,
            "catchTime": 1680840670236,
            "trialTime": 0
        },
        {
            "exptPart": "trial",
            "trialNumber": 90,
            "roleCurrent": "receiver",
            "marblesSampled": 100,
            "probRed": 0.5,
            "practiceLambda": 5,
            "trialLambda": 8.1,
            "instructedLambda": "dishonest_small",
            "drawnRed": 45,
            "reportedRed": 55,
            "inferredRed": 47,
            "playerTrialScore": -2,
            "oppTrialScore": 2,
            "playerTotalScore": -1307,
            "oppTotalScore": 413,
            "waitTime": 5712.043099241336,
            "responseTime": 1680840774153,
            "catchQuestion": "How many <b class=\"r\">red<\/b> marbles did your opponent report drawing? ",
            "catchKey": -1,
            "catchResponse": -1,
            "catchTime": 1680840774153,
            "trialTime": 0
        },
        {
            "exptPart": "trial",
            "trialNumber": 91,
            "roleCurrent": "receiver",
            "marblesSampled": 100,
            "probRed": 0.5,
            "practiceLambda": 5,
            "trialLambda": 8.1,
            "instructedLambda": "dishonest_small",
            "drawnRed": 81,
            "reportedRed": 88,
            "inferredRed": 78,
            "playerTrialScore": -3,
            "oppTrialScore": 0,
            "playerTotalScore": -1310,
            "oppTotalScore": 413,
            "waitTime": 5535.575653589642,
            "responseTime": 1680840785587,
            "catchQuestion": "How many <b class=\"r\">red<\/b> marbles did your opponent report drawing? ",
            "catchKey": 88,
            "catchResponse": 88,
            "catchTime": 1680840785587,
            "trialTime": 0
        },
        {
            "exptPart": "trial",
            "trialNumber": 92,
            "roleCurrent": "receiver",
            "marblesSampled": 100,
            "probRed": 0.5,
            "practiceLambda": 5,
            "trialLambda": 8.1,
            "instructedLambda": "dishonest_small",
            "drawnRed": 28,
            "reportedRed": 34,
            "inferredRed": 35,
            "playerTrialScore": -7,
            "oppTrialScore": 7,
            "playerTotalScore": -1317,
            "oppTotalScore": 420,
            "waitTime": 6955.639116511001,
            "responseTime": 1680840799654,
            "catchQuestion": "How many <b class=\"r\">red<\/b> marbles did your opponent report drawing? ",
            "catchKey": -1,
            "catchResponse": -1,
            "catchTime": 1680840785587,
            "trialTime": 0
        },
        {
            "exptPart": "trial",
            "trialNumber": 93,
            "roleCurrent": "receiver",
            "marblesSampled": 100,
            "probRed": 0.5,
            "practiceLambda": 5,
            "trialLambda": 8.1,
            "instructedLambda": "dishonest_small",
            "drawnRed": 45,
            "reportedRed": 48,
            "inferredRed": 18,
            "playerTrialScore": -27,
            "oppTrialScore": 0,
            "playerTotalScore": -1344,
            "oppTotalScore": 420,
            "waitTime": 7295.552660292091,
            "responseTime": 1680840812370,
            "catchQuestion": "How many <b class=\"r\">red<\/b> marbles did your opponent report drawing? ",
            "catchKey": -1,
            "catchResponse": -1,
            "catchTime": 1680840785587,
            "trialTime": 0
        },
        {
            "exptPart": "trial",
            "trialNumber": 94,
            "roleCurrent": "receiver",
            "marblesSampled": 100,
            "probRed": 0.5,
            "practiceLambda": 5,
            "trialLambda": 8.1,
            "instructedLambda": "dishonest_small",
            "drawnRed": 53,
            "reportedRed": 59,
            "inferredRed": 6,
            "playerTrialScore": -47,
            "oppTrialScore": 0,
            "playerTotalScore": -1391,
            "oppTotalScore": 420,
            "waitTime": 5251.316003819337,
            "responseTime": 1680840821070,
            "catchQuestion": "How many <b class=\"r\">red<\/b> marbles did your opponent report drawing? ",
            "catchKey": -1,
            "catchResponse": -1,
            "catchTime": 1680840785587,
            "trialTime": 0
        },
        {
            "exptPart": "trial",
            "trialNumber": 95,
            "roleCurrent": "receiver",
            "marblesSampled": 100,
            "probRed": 0.5,
            "practiceLambda": 5,
            "trialLambda": 8.1,
            "instructedLambda": "dishonest_small",
            "drawnRed": 37,
            "reportedRed": 45,
            "inferredRed": 30,
            "playerTrialScore": -7,
            "oppTrialScore": 0,
            "playerTotalScore": -1398,
            "oppTotalScore": 420,
            "waitTime": 5223.434572393313,
            "responseTime": 1680840829755,
            "catchQuestion": "How many <b class=\"r\">red<\/b> marbles did your opponent report drawing? ",
            "catchKey": -1,
            "catchResponse": -1,
            "catchTime": 1680840785587,
            "trialTime": 0
        },
        {
            "exptPart": "trial",
            "trialNumber": 96,
            "roleCurrent": "receiver",
            "marblesSampled": 100,
            "probRed": 0.5,
            "practiceLambda": 5,
            "trialLambda": 8.1,
            "instructedLambda": "dishonest_small",
            "drawnRed": 78,
            "reportedRed": 90,
            "inferredRed": 100,
            "playerTrialScore": -22,
            "oppTrialScore": 22,
            "playerTotalScore": -1420,
            "oppTotalScore": 442,
            "waitTime": 6312.243901860826,
            "responseTime": 1680840839186,
            "catchQuestion": "How many <b class=\"r\">red<\/b> marbles did your opponent report drawing? ",
            "catchKey": -1,
            "catchResponse": -1,
            "catchTime": 1680840785587,
            "trialTime": 0
        },
        {
            "exptPart": "trial",
            "trialNumber": 97,
            "roleCurrent": "receiver",
            "marblesSampled": 100,
            "probRed": 0.5,
            "practiceLambda": 5,
            "trialLambda": 8.1,
            "instructedLambda": "dishonest_small",
            "drawnRed": 27,
            "reportedRed": 37,
            "inferredRed": 49,
            "playerTrialScore": -22,
            "oppTrialScore": 22,
            "playerTotalScore": -1442,
            "oppTotalScore": 464,
            "waitTime": 6727.571432721137,
            "responseTime": 1680840849638,
            "catchQuestion": "How many <b class=\"r\">red<\/b> marbles did your opponent report drawing? ",
            "catchKey": 37,
            "catchResponse": 37,
            "catchTime": 1680840849638,
            "trialTime": 0
        },
        {
            "exptPart": "trial",
            "trialNumber": 98,
            "roleCurrent": "receiver",
            "marblesSampled": 100,
            "probRed": 0.5,
            "practiceLambda": 5,
            "trialLambda": 8.1,
            "instructedLambda": "dishonest_small",
            "drawnRed": 12,
            "reportedRed": 15,
            "inferredRed": 16,
            "playerTrialScore": -4,
            "oppTrialScore": 4,
            "playerTotalScore": -1446,
            "oppTotalScore": 468,
            "waitTime": 5245.651639578202,
            "responseTime": 1680840864154,
            "catchQuestion": "How many <b class=\"r\">red<\/b> marbles did your opponent report drawing? ",
            "catchKey": -1,
            "catchResponse": -1,
            "catchTime": 1680840849638,
            "trialTime": 0
        },
        {
            "exptPart": "trial",
            "trialNumber": 99,
            "roleCurrent": "receiver",
            "marblesSampled": 100,
            "probRed": 0.5,
            "practiceLambda": 5,
            "trialLambda": 8.1,
            "instructedLambda": "dishonest_small",
            "drawnRed": 58,
            "reportedRed": 67,
            "inferredRed": 58,
            "playerTrialScore": 0,
            "oppTrialScore": 0,
            "playerTotalScore": -1446,
            "oppTotalScore": 468,
            "waitTime": 6428.086801594294,
            "responseTime": 1680840876424,
            "catchQuestion": "How many <b class=\"r\">red<\/b> marbles did your opponent report drawing? ",
            "catchKey": -1,
            "catchResponse": -1,
            "catchTime": 1680840849638,
            "trialTime": 0
        },
        {
            "exptPart": "trial",
            "trialNumber": 100,
            "roleCurrent": "receiver",
            "marblesSampled": 100,
            "probRed": 0.5,
            "practiceLambda": 5,
            "trialLambda": 8.1,
            "instructedLambda": "dishonest_small",
            "drawnRed": 32,
            "reportedRed": 37,
            "inferredRed": 45,
            "playerTrialScore": -13,
            "oppTrialScore": 13,
            "playerTotalScore": -1459,
            "oppTotalScore": 481,
            "waitTime": 7008.144005177829,
            "responseTime": 1680840886854,
            "catchQuestion": "How many <b class=\"r\">red<\/b> marbles did your opponent report drawing? ",
            "catchKey": -1,
            "catchResponse": -1,
            "catchTime": 1680840886854,
            "trialTime": 0
        }
    ]
}