{
    "client": {
        "type": "sona",
        "experiment_id": 2488,
        "credit_token": "79d15902e9034cb6b65a542be205401c",
        "survey_code": "46198",
        "sid": "sona-46198",
        "window": {
            "width": 1470,
            "height": 682
        },
        "screen": {
            "width": 1470,
            "height": 956
        },
        "userAgent": "Mozilla\/5.0 (Macintosh; Intel Mac OS X 10_15_7) AppleWebKit\/537.36 (KHTML, like Gecko) Chrome\/110.0.0.0 Safari\/537.36",
        "score": 0,
        "bonus": 0
    },
    "expt": {
        "saveURL": "submit.simple.php",
        "trials": 100,
        "practiceTrials": 2,
        "marblesSampled": 100,
        "probRed": 0.5,
        "practiceLambdaAI": 5,
        "lambdaAI": 8.1,
        "roles": [
            "sender",
            "receiver"
        ],
        "cost": "unif",
        "goal": "over",
        "oppDishonesty": "dishonest_big",
        "catchTrials": [
            10,
            14,
            26,
            59,
            49,
            98,
            32,
            92,
            41,
            51
        ],
        "scoreTotal": {
            "player": -1128,
            "opp": 783
        },
        "sona": {
            "experiment_id": 2488,
            "credit_token": "79d15902e9034cb6b65a542be205401c"
        },
        "pilot": false,
        "debug": false
    },
    "trials": [
        {
            "exptPart": "practice",
            "trialNumber": 1,
            "roleCurrent": "sender",
            "marblesSampled": 100,
            "probRed": 0.5,
            "practiceLambda": 5,
            "trialLambda": 8.1,
            "instructedLambda": "dishonest_big",
            "drawnRed": 71,
            "reportedRed": 71,
            "inferredRed": 63,
            "playerTrialScore": 0,
            "oppTrialScore": -8,
            "playerTotalScore": 0,
            "oppTotalScore": -8,
            "waitTime": 2728.7216093092147,
            "responseTime": 1678906369843,
            "catchQuestion": "How many <b class=\"r\">red<\/b> marbles did you actually draw (before any changes)? ",
            "catchKey": 71,
            "catchResponse": 16,
            "catchTime": 1678906369844,
            "trialTime": 0
        },
        {
            "exptPart": "practice",
            "trialNumber": 2,
            "roleCurrent": "receiver",
            "marblesSampled": 100,
            "probRed": 0.5,
            "practiceLambda": 5,
            "trialLambda": 8.1,
            "instructedLambda": "dishonest_big",
            "drawnRed": 40,
            "reportedRed": 49,
            "inferredRed": 56,
            "playerTrialScore": -16,
            "oppTrialScore": 16,
            "playerTotalScore": -16,
            "oppTotalScore": 8,
            "waitTime": 5468.804159253887,
            "responseTime": 1678906453986,
            "catchQuestion": "How many <b class=\"r\">red<\/b> marbles did your opponent report drawing? ",
            "catchKey": 49,
            "catchResponse": 85,
            "catchTime": 1678906453986,
            "trialTime": 0
        },
        {
            "exptPart": "trial",
            "trialNumber": 1,
            "roleCurrent": "receiver",
            "marblesSampled": 100,
            "probRed": 0.5,
            "practiceLambda": 5,
            "trialLambda": 8.1,
            "instructedLambda": "dishonest_big",
            "drawnRed": 39,
            "reportedRed": 46,
            "inferredRed": 54,
            "playerTrialScore": -15,
            "oppTrialScore": 15,
            "playerTotalScore": -15,
            "oppTotalScore": 15,
            "waitTime": 6593.635816966616,
            "responseTime": 1678906492468,
            "catchQuestion": "How many <b class=\"r\">red<\/b> marbles did your opponent report drawing? ",
            "catchKey": -1,
            "catchResponse": -1,
            "catchTime": 1678906453986,
            "trialTime": 0
        },
        {
            "exptPart": "trial",
            "trialNumber": 2,
            "roleCurrent": "receiver",
            "marblesSampled": 100,
            "probRed": 0.5,
            "practiceLambda": 5,
            "trialLambda": 8.1,
            "instructedLambda": "dishonest_big",
            "drawnRed": 77,
            "reportedRed": 84,
            "inferredRed": 89,
            "playerTrialScore": -12,
            "oppTrialScore": 12,
            "playerTotalScore": -27,
            "oppTotalScore": 27,
            "waitTime": 6586.909247253949,
            "responseTime": 1678906508659,
            "catchQuestion": "How many <b class=\"r\">red<\/b> marbles did your opponent report drawing? ",
            "catchKey": -1,
            "catchResponse": -1,
            "catchTime": 1678906453986,
            "trialTime": 0
        },
        {
            "exptPart": "trial",
            "trialNumber": 3,
            "roleCurrent": "receiver",
            "marblesSampled": 100,
            "probRed": 0.5,
            "practiceLambda": 5,
            "trialLambda": 8.1,
            "instructedLambda": "dishonest_big",
            "drawnRed": 21,
            "reportedRed": 25,
            "inferredRed": 32,
            "playerTrialScore": -11,
            "oppTrialScore": 11,
            "playerTotalScore": -38,
            "oppTotalScore": 38,
            "waitTime": 6739.9653576222645,
            "responseTime": 1678906529206,
            "catchQuestion": "How many <b class=\"r\">red<\/b> marbles did your opponent report drawing? ",
            "catchKey": -1,
            "catchResponse": -1,
            "catchTime": 1678906453986,
            "trialTime": 0
        },
        {
            "exptPart": "trial",
            "trialNumber": 4,
            "roleCurrent": "receiver",
            "marblesSampled": 100,
            "probRed": 0.5,
            "practiceLambda": 5,
            "trialLambda": 8.1,
            "instructedLambda": "dishonest_big",
            "drawnRed": 45,
            "reportedRed": 57,
            "inferredRed": 83,
            "playerTrialScore": -38,
            "oppTrialScore": 38,
            "playerTotalScore": -76,
            "oppTotalScore": 76,
            "waitTime": 7103.432537082948,
            "responseTime": 1678906574930,
            "catchQuestion": "How many <b class=\"r\">red<\/b> marbles did your opponent report drawing? ",
            "catchKey": -1,
            "catchResponse": -1,
            "catchTime": 1678906453986,
            "trialTime": 0
        },
        {
            "exptPart": "trial",
            "trialNumber": 5,
            "roleCurrent": "receiver",
            "marblesSampled": 100,
            "probRed": 0.5,
            "practiceLambda": 5,
            "trialLambda": 8.1,
            "instructedLambda": "dishonest_big",
            "drawnRed": 58,
            "reportedRed": 67,
            "inferredRed": 89,
            "playerTrialScore": -31,
            "oppTrialScore": 31,
            "playerTotalScore": -107,
            "oppTotalScore": 107,
            "waitTime": 5281.815849505551,
            "responseTime": 1678906594847,
            "catchQuestion": "How many <b class=\"r\">red<\/b> marbles did your opponent report drawing? ",
            "catchKey": -1,
            "catchResponse": -1,
            "catchTime": 1678906453986,
            "trialTime": 0
        },
        {
            "exptPart": "trial",
            "trialNumber": 6,
            "roleCurrent": "receiver",
            "marblesSampled": 100,
            "probRed": 0.5,
            "practiceLambda": 5,
            "trialLambda": 8.1,
            "instructedLambda": "dishonest_big",
            "drawnRed": 48,
            "reportedRed": 57,
            "inferredRed": 89,
            "playerTrialScore": -41,
            "oppTrialScore": 41,
            "playerTotalScore": -148,
            "oppTotalScore": 148,
            "waitTime": 5166.06724806621,
            "responseTime": 1678906615707,
            "catchQuestion": "How many <b class=\"r\">red<\/b> marbles did your opponent report drawing? ",
            "catchKey": -1,
            "catchResponse": -1,
            "catchTime": 1678906453986,
            "trialTime": 0
        },
        {
            "exptPart": "trial",
            "trialNumber": 7,
            "roleCurrent": "receiver",
            "marblesSampled": 100,
            "probRed": 0.5,
            "practiceLambda": 5,
            "trialLambda": 8.1,
            "instructedLambda": "dishonest_big",
            "drawnRed": 57,
            "reportedRed": 62,
            "inferredRed": 75,
            "playerTrialScore": -18,
            "oppTrialScore": 18,
            "playerTotalScore": -166,
            "oppTotalScore": 166,
            "waitTime": 6467.4711570560885,
            "responseTime": 1678906672988,
            "catchQuestion": "How many <b class=\"r\">red<\/b> marbles did your opponent report drawing? ",
            "catchKey": -1,
            "catchResponse": -1,
            "catchTime": 1678906453986,
            "trialTime": 0
        },
        {
            "exptPart": "trial",
            "trialNumber": 8,
            "roleCurrent": "receiver",
            "marblesSampled": 100,
            "probRed": 0.5,
            "practiceLambda": 5,
            "trialLambda": 8.1,
            "instructedLambda": "dishonest_big",
            "drawnRed": 50,
            "reportedRed": 56,
            "inferredRed": 45,
            "playerTrialScore": -5,
            "oppTrialScore": 0,
            "playerTotalScore": -171,
            "oppTotalScore": 166,
            "waitTime": 6085.5029450119255,
            "responseTime": 1678906698917,
            "catchQuestion": "How many <b class=\"r\">red<\/b> marbles did your opponent report drawing? ",
            "catchKey": -1,
            "catchResponse": -1,
            "catchTime": 1678906453986,
            "trialTime": 0
        },
        {
            "exptPart": "trial",
            "trialNumber": 9,
            "roleCurrent": "receiver",
            "marblesSampled": 100,
            "probRed": 0.5,
            "practiceLambda": 5,
            "trialLambda": 8.1,
            "instructedLambda": "dishonest_big",
            "drawnRed": 43,
            "reportedRed": 49,
            "inferredRed": 87,
            "playerTrialScore": -44,
            "oppTrialScore": 44,
            "playerTotalScore": -215,
            "oppTotalScore": 210,
            "waitTime": 6142.992477828509,
            "responseTime": 1678906714188,
            "catchQuestion": "How many <b class=\"r\">red<\/b> marbles did your opponent report drawing? ",
            "catchKey": -1,
            "catchResponse": -1,
            "catchTime": 1678906453986,
            "trialTime": 0
        },
        {
            "exptPart": "trial",
            "trialNumber": 10,
            "roleCurrent": "receiver",
            "marblesSampled": 100,
            "probRed": 0.5,
            "practiceLambda": 5,
            "trialLambda": 8.1,
            "instructedLambda": "dishonest_big",
            "drawnRed": 54,
            "reportedRed": 58,
            "inferredRed": 87,
            "playerTrialScore": -33,
            "oppTrialScore": 33,
            "playerTotalScore": -248,
            "oppTotalScore": 243,
            "waitTime": 5512.907551350919,
            "responseTime": 1678906725860,
            "catchQuestion": "How many <b class=\"r\">red<\/b> marbles did your opponent report drawing? ",
            "catchKey": -1,
            "catchResponse": -1,
            "catchTime": 1678906725860,
            "trialTime": 0
        },
        {
            "exptPart": "trial",
            "trialNumber": 11,
            "roleCurrent": "receiver",
            "marblesSampled": 100,
            "probRed": 0.5,
            "practiceLambda": 5,
            "trialLambda": 8.1,
            "instructedLambda": "dishonest_big",
            "drawnRed": 71,
            "reportedRed": 81,
            "inferredRed": 99,
            "playerTrialScore": -28,
            "oppTrialScore": 28,
            "playerTotalScore": -276,
            "oppTotalScore": 271,
            "waitTime": 5476.0541298365315,
            "responseTime": 1678906751137,
            "catchQuestion": "How many <b class=\"r\">red<\/b> marbles did your opponent report drawing? ",
            "catchKey": 81,
            "catchResponse": 58,
            "catchTime": 1678906751137,
            "trialTime": 0
        },
        {
            "exptPart": "trial",
            "trialNumber": 12,
            "roleCurrent": "receiver",
            "marblesSampled": 100,
            "probRed": 0.5,
            "practiceLambda": 5,
            "trialLambda": 8.1,
            "instructedLambda": "dishonest_big",
            "drawnRed": 16,
            "reportedRed": 24,
            "inferredRed": 23,
            "playerTrialScore": -7,
            "oppTrialScore": 7,
            "playerTotalScore": -283,
            "oppTotalScore": 278,
            "waitTime": 5574.644219633056,
            "responseTime": 1678906801214,
            "catchQuestion": "How many <b class=\"r\">red<\/b> marbles did your opponent report drawing? ",
            "catchKey": -1,
            "catchResponse": -1,
            "catchTime": 1678906751137,
            "trialTime": 0
        },
        {
            "exptPart": "trial",
            "trialNumber": 13,
            "roleCurrent": "receiver",
            "marblesSampled": 100,
            "probRed": 0.5,
            "practiceLambda": 5,
            "trialLambda": 8.1,
            "instructedLambda": "dishonest_big",
            "drawnRed": 73,
            "reportedRed": 84,
            "inferredRed": 99,
            "playerTrialScore": -26,
            "oppTrialScore": 26,
            "playerTotalScore": -309,
            "oppTotalScore": 304,
            "waitTime": 5146.431118645323,
            "responseTime": 1678906817867,
            "catchQuestion": "How many <b class=\"r\">red<\/b> marbles did your opponent report drawing? ",
            "catchKey": -1,
            "catchResponse": -1,
            "catchTime": 1678906751137,
            "trialTime": 0
        },
        {
            "exptPart": "trial",
            "trialNumber": 14,
            "roleCurrent": "receiver",
            "marblesSampled": 100,
            "probRed": 0.5,
            "practiceLambda": 5,
            "trialLambda": 8.1,
            "instructedLambda": "dishonest_big",
            "drawnRed": 45,
            "reportedRed": 54,
            "inferredRed": 45,
            "playerTrialScore": 0,
            "oppTrialScore": 0,
            "playerTotalScore": -309,
            "oppTotalScore": 304,
            "waitTime": 5972.81854085557,
            "responseTime": 1678906838966,
            "catchQuestion": "How many <b class=\"r\">red<\/b> marbles did your opponent report drawing? ",
            "catchKey": -1,
            "catchResponse": -1,
            "catchTime": 1678906751137,
            "trialTime": 0
        },
        {
            "exptPart": "trial",
            "trialNumber": 15,
            "roleCurrent": "receiver",
            "marblesSampled": 100,
            "probRed": 0.5,
            "practiceLambda": 5,
            "trialLambda": 8.1,
            "instructedLambda": "dishonest_big",
            "drawnRed": 62,
            "reportedRed": 70,
            "inferredRed": 69,
            "playerTrialScore": -7,
            "oppTrialScore": 7,
            "playerTotalScore": -316,
            "oppTotalScore": 311,
            "waitTime": 6362.5408033330095,
            "responseTime": 1678906865451,
            "catchQuestion": "How many <b class=\"r\">red<\/b> marbles did your opponent report drawing? ",
            "catchKey": 70,
            "catchResponse": 34,
            "catchTime": 1678906865451,
            "trialTime": 0
        },
        {
            "exptPart": "trial",
            "trialNumber": 16,
            "roleCurrent": "receiver",
            "marblesSampled": 100,
            "probRed": 0.5,
            "practiceLambda": 5,
            "trialLambda": 8.1,
            "instructedLambda": "dishonest_big",
            "drawnRed": 49,
            "reportedRed": 52,
            "inferredRed": 67,
            "playerTrialScore": -18,
            "oppTrialScore": 18,
            "playerTotalScore": -334,
            "oppTotalScore": 329,
            "waitTime": 6721.1774684492075,
            "responseTime": 1678906892931,
            "catchQuestion": "How many <b class=\"r\">red<\/b> marbles did your opponent report drawing? ",
            "catchKey": -1,
            "catchResponse": -1,
            "catchTime": 1678906865451,
            "trialTime": 0
        },
        {
            "exptPart": "trial",
            "trialNumber": 17,
            "roleCurrent": "receiver",
            "marblesSampled": 100,
            "probRed": 0.5,
            "practiceLambda": 5,
            "trialLambda": 8.1,
            "instructedLambda": "dishonest_big",
            "drawnRed": 86,
            "reportedRed": 92,
            "inferredRed": 29,
            "playerTrialScore": -57,
            "oppTrialScore": 0,
            "playerTotalScore": -391,
            "oppTotalScore": 329,
            "waitTime": 6313.976637318103,
            "responseTime": 1678906960130,
            "catchQuestion": "How many <b class=\"r\">red<\/b> marbles did your opponent report drawing? ",
            "catchKey": -1,
            "catchResponse": -1,
            "catchTime": 1678906865451,
            "trialTime": 0
        },
        {
            "exptPart": "trial",
            "trialNumber": 18,
            "roleCurrent": "receiver",
            "marblesSampled": 100,
            "probRed": 0.5,
            "practiceLambda": 5,
            "trialLambda": 8.1,
            "instructedLambda": "dishonest_big",
            "drawnRed": 27,
            "reportedRed": 31,
            "inferredRed": 32,
            "playerTrialScore": -5,
            "oppTrialScore": 5,
            "playerTotalScore": -396,
            "oppTotalScore": 334,
            "waitTime": 7054.267457274943,
            "responseTime": 1678906971643,
            "catchQuestion": "How many <b class=\"r\">red<\/b> marbles did your opponent report drawing? ",
            "catchKey": -1,
            "catchResponse": -1,
            "catchTime": 1678906865451,
            "trialTime": 0
        },
        {
            "exptPart": "trial",
            "trialNumber": 19,
            "roleCurrent": "receiver",
            "marblesSampled": 100,
            "probRed": 0.5,
            "practiceLambda": 5,
            "trialLambda": 8.1,
            "instructedLambda": "dishonest_big",
            "drawnRed": 32,
            "reportedRed": 39,
            "inferredRed": 32,
            "playerTrialScore": 0,
            "oppTrialScore": 0,
            "playerTotalScore": -396,
            "oppTotalScore": 334,
            "waitTime": 5900.827291993603,
            "responseTime": 1678906981237,
            "catchQuestion": "How many <b class=\"r\">red<\/b> marbles did your opponent report drawing? ",
            "catchKey": -1,
            "catchResponse": -1,
            "catchTime": 1678906865451,
            "trialTime": 0
        },
        {
            "exptPart": "trial",
            "trialNumber": 20,
            "roleCurrent": "receiver",
            "marblesSampled": 100,
            "probRed": 0.5,
            "practiceLambda": 5,
            "trialLambda": 8.1,
            "instructedLambda": "dishonest_big",
            "drawnRed": 56,
            "reportedRed": 67,
            "inferredRed": 44,
            "playerTrialScore": -12,
            "oppTrialScore": 0,
            "playerTotalScore": -408,
            "oppTotalScore": 334,
            "waitTime": 6707.945190228553,
            "responseTime": 1678906992395,
            "catchQuestion": "How many <b class=\"r\">red<\/b> marbles did your opponent report drawing? ",
            "catchKey": -1,
            "catchResponse": -1,
            "catchTime": 1678906992396,
            "trialTime": 0
        },
        {
            "exptPart": "trial",
            "trialNumber": 21,
            "roleCurrent": "receiver",
            "marblesSampled": 100,
            "probRed": 0.5,
            "practiceLambda": 5,
            "trialLambda": 8.1,
            "instructedLambda": "dishonest_big",
            "drawnRed": 87,
            "reportedRed": 100,
            "inferredRed": 100,
            "playerTrialScore": -13,
            "oppTrialScore": 13,
            "playerTotalScore": -421,
            "oppTotalScore": 347,
            "waitTime": 5504.006520842357,
            "responseTime": 1678907006576,
            "catchQuestion": "How many <b class=\"r\">red<\/b> marbles did your opponent report drawing? ",
            "catchKey": -1,
            "catchResponse": -1,
            "catchTime": 1678906992396,
            "trialTime": 0
        },
        {
            "exptPart": "trial",
            "trialNumber": 22,
            "roleCurrent": "receiver",
            "marblesSampled": 100,
            "probRed": 0.5,
            "practiceLambda": 5,
            "trialLambda": 8.1,
            "instructedLambda": "dishonest_big",
            "drawnRed": 31,
            "reportedRed": 42,
            "inferredRed": 23,
            "playerTrialScore": -8,
            "oppTrialScore": 0,
            "playerTotalScore": -429,
            "oppTotalScore": 347,
            "waitTime": 5844.193531803197,
            "responseTime": 1678907039471,
            "catchQuestion": "How many <b class=\"r\">red<\/b> marbles did your opponent report drawing? ",
            "catchKey": -1,
            "catchResponse": -1,
            "catchTime": 1678906992396,
            "trialTime": 0
        },
        {
            "exptPart": "trial",
            "trialNumber": 23,
            "roleCurrent": "receiver",
            "marblesSampled": 100,
            "probRed": 0.5,
            "practiceLambda": 5,
            "trialLambda": 8.1,
            "instructedLambda": "dishonest_big",
            "drawnRed": 54,
            "reportedRed": 61,
            "inferredRed": 34,
            "playerTrialScore": -20,
            "oppTrialScore": 0,
            "playerTotalScore": -449,
            "oppTotalScore": 347,
            "waitTime": 6513.2740762118165,
            "responseTime": 1678907064765,
            "catchQuestion": "How many <b class=\"r\">red<\/b> marbles did your opponent report drawing? ",
            "catchKey": -1,
            "catchResponse": -1,
            "catchTime": 1678906992396,
            "trialTime": 0
        },
        {
            "exptPart": "trial",
            "trialNumber": 24,
            "roleCurrent": "receiver",
            "marblesSampled": 100,
            "probRed": 0.5,
            "practiceLambda": 5,
            "trialLambda": 8.1,
            "instructedLambda": "dishonest_big",
            "drawnRed": 50,
            "reportedRed": 55,
            "inferredRed": 33,
            "playerTrialScore": -17,
            "oppTrialScore": 0,
            "playerTotalScore": -466,
            "oppTotalScore": 347,
            "waitTime": 6659.803413472879,
            "responseTime": 1678907075630,
            "catchQuestion": "How many <b class=\"r\">red<\/b> marbles did your opponent report drawing? ",
            "catchKey": -1,
            "catchResponse": -1,
            "catchTime": 1678906992396,
            "trialTime": 0
        },
        {
            "exptPart": "trial",
            "trialNumber": 25,
            "roleCurrent": "receiver",
            "marblesSampled": 100,
            "probRed": 0.5,
            "practiceLambda": 5,
            "trialLambda": 8.1,
            "instructedLambda": "dishonest_big",
            "drawnRed": 38,
            "reportedRed": 48,
            "inferredRed": 43,
            "playerTrialScore": -5,
            "oppTrialScore": 5,
            "playerTotalScore": -471,
            "oppTotalScore": 352,
            "waitTime": 5672.59700315523,
            "responseTime": 1678907084704,
            "catchQuestion": "How many <b class=\"r\">red<\/b> marbles did your opponent report drawing? ",
            "catchKey": -1,
            "catchResponse": -1,
            "catchTime": 1678906992396,
            "trialTime": 0
        },
        {
            "exptPart": "trial",
            "trialNumber": 26,
            "roleCurrent": "receiver",
            "marblesSampled": 100,
            "probRed": 0.5,
            "practiceLambda": 5,
            "trialLambda": 8.1,
            "instructedLambda": "dishonest_big",
            "drawnRed": 55,
            "reportedRed": 63,
            "inferredRed": 53,
            "playerTrialScore": -2,
            "oppTrialScore": 0,
            "playerTotalScore": -473,
            "oppTotalScore": 352,
            "waitTime": 7173.540429966644,
            "responseTime": 1678907094903,
            "catchQuestion": "How many <b class=\"r\">red<\/b> marbles did your opponent report drawing? ",
            "catchKey": -1,
            "catchResponse": -1,
            "catchTime": 1678906992396,
            "trialTime": 0
        },
        {
            "exptPart": "trial",
            "trialNumber": 27,
            "roleCurrent": "receiver",
            "marblesSampled": 100,
            "probRed": 0.5,
            "practiceLambda": 5,
            "trialLambda": 8.1,
            "instructedLambda": "dishonest_big",
            "drawnRed": 30,
            "reportedRed": 39,
            "inferredRed": 33,
            "playerTrialScore": -3,
            "oppTrialScore": 3,
            "playerTotalScore": -476,
            "oppTotalScore": 355,
            "waitTime": 5298.324344130077,
            "responseTime": 1678907103427,
            "catchQuestion": "How many <b class=\"r\">red<\/b> marbles did your opponent report drawing? ",
            "catchKey": 39,
            "catchResponse": 23,
            "catchTime": 1678907103427,
            "trialTime": 0
        },
        {
            "exptPart": "trial",
            "trialNumber": 28,
            "roleCurrent": "receiver",
            "marblesSampled": 100,
            "probRed": 0.5,
            "practiceLambda": 5,
            "trialLambda": 8.1,
            "instructedLambda": "dishonest_big",
            "drawnRed": 45,
            "reportedRed": 55,
            "inferredRed": 32,
            "playerTrialScore": -13,
            "oppTrialScore": 0,
            "playerTotalScore": -489,
            "oppTotalScore": 355,
            "waitTime": 7023.325036267942,
            "responseTime": 1678907187920,
            "catchQuestion": "How many <b class=\"r\">red<\/b> marbles did your opponent report drawing? ",
            "catchKey": -1,
            "catchResponse": -1,
            "catchTime": 1678907103427,
            "trialTime": 0
        },
        {
            "exptPart": "trial",
            "trialNumber": 29,
            "roleCurrent": "receiver",
            "marblesSampled": 100,
            "probRed": 0.5,
            "practiceLambda": 5,
            "trialLambda": 8.1,
            "instructedLambda": "dishonest_big",
            "drawnRed": 36,
            "reportedRed": 42,
            "inferredRed": 23,
            "playerTrialScore": -13,
            "oppTrialScore": 0,
            "playerTotalScore": -502,
            "oppTotalScore": 355,
            "waitTime": 5814.179150387359,
            "responseTime": 1678907205200,
            "catchQuestion": "How many <b class=\"r\">red<\/b> marbles did your opponent report drawing? ",
            "catchKey": -1,
            "catchResponse": -1,
            "catchTime": 1678907103427,
            "trialTime": 0
        },
        {
            "exptPart": "trial",
            "trialNumber": 30,
            "roleCurrent": "receiver",
            "marblesSampled": 100,
            "probRed": 0.5,
            "practiceLambda": 5,
            "trialLambda": 8.1,
            "instructedLambda": "dishonest_big",
            "drawnRed": 31,
            "reportedRed": 40,
            "inferredRed": 23,
            "playerTrialScore": -8,
            "oppTrialScore": 0,
            "playerTotalScore": -510,
            "oppTotalScore": 355,
            "waitTime": 6793.810684105847,
            "responseTime": 1678907216046,
            "catchQuestion": "How many <b class=\"r\">red<\/b> marbles did your opponent report drawing? ",
            "catchKey": -1,
            "catchResponse": -1,
            "catchTime": 1678907216046,
            "trialTime": 0
        },
        {
            "exptPart": "trial",
            "trialNumber": 31,
            "roleCurrent": "receiver",
            "marblesSampled": 100,
            "probRed": 0.5,
            "practiceLambda": 5,
            "trialLambda": 8.1,
            "instructedLambda": "dishonest_big",
            "drawnRed": 21,
            "reportedRed": 26,
            "inferredRed": 23,
            "playerTrialScore": -2,
            "oppTrialScore": 2,
            "playerTotalScore": -512,
            "oppTotalScore": 357,
            "waitTime": 5453.44106380405,
            "responseTime": 1678907228095,
            "catchQuestion": "How many <b class=\"r\">red<\/b> marbles did your opponent report drawing? ",
            "catchKey": -1,
            "catchResponse": -1,
            "catchTime": 1678907216046,
            "trialTime": 0
        },
        {
            "exptPart": "trial",
            "trialNumber": 32,
            "roleCurrent": "receiver",
            "marblesSampled": 100,
            "probRed": 0.5,
            "practiceLambda": 5,
            "trialLambda": 8.1,
            "instructedLambda": "dishonest_big",
            "drawnRed": 37,
            "reportedRed": 42,
            "inferredRed": 34,
            "playerTrialScore": -3,
            "oppTrialScore": 0,
            "playerTotalScore": -515,
            "oppTotalScore": 357,
            "waitTime": 5424.379321745269,
            "responseTime": 1678907243863,
            "catchQuestion": "How many <b class=\"r\">red<\/b> marbles did your opponent report drawing? ",
            "catchKey": -1,
            "catchResponse": -1,
            "catchTime": 1678907216046,
            "trialTime": 0
        },
        {
            "exptPart": "trial",
            "trialNumber": 33,
            "roleCurrent": "receiver",
            "marblesSampled": 100,
            "probRed": 0.5,
            "practiceLambda": 5,
            "trialLambda": 8.1,
            "instructedLambda": "dishonest_big",
            "drawnRed": 92,
            "reportedRed": 100,
            "inferredRed": 100,
            "playerTrialScore": -8,
            "oppTrialScore": 8,
            "playerTotalScore": -523,
            "oppTotalScore": 365,
            "waitTime": 5419.732480555473,
            "responseTime": 1678907254637,
            "catchQuestion": "How many <b class=\"r\">red<\/b> marbles did your opponent report drawing? ",
            "catchKey": 100,
            "catchResponse": 100,
            "catchTime": 1678907254637,
            "trialTime": 0
        },
        {
            "exptPart": "trial",
            "trialNumber": 34,
            "roleCurrent": "receiver",
            "marblesSampled": 100,
            "probRed": 0.5,
            "practiceLambda": 5,
            "trialLambda": 8.1,
            "instructedLambda": "dishonest_big",
            "drawnRed": 59,
            "reportedRed": 71,
            "inferredRed": 67,
            "playerTrialScore": -8,
            "oppTrialScore": 8,
            "playerTotalScore": -531,
            "oppTotalScore": 373,
            "waitTime": 6066.618384896798,
            "responseTime": 1678907269668,
            "catchQuestion": "How many <b class=\"r\">red<\/b> marbles did your opponent report drawing? ",
            "catchKey": -1,
            "catchResponse": -1,
            "catchTime": 1678907254637,
            "trialTime": 0
        },
        {
            "exptPart": "trial",
            "trialNumber": 35,
            "roleCurrent": "receiver",
            "marblesSampled": 100,
            "probRed": 0.5,
            "practiceLambda": 5,
            "trialLambda": 8.1,
            "instructedLambda": "dishonest_big",
            "drawnRed": 62,
            "reportedRed": 71,
            "inferredRed": 67,
            "playerTrialScore": -5,
            "oppTrialScore": 5,
            "playerTotalScore": -536,
            "oppTotalScore": 378,
            "waitTime": 7309.457919695105,
            "responseTime": 1678907282384,
            "catchQuestion": "How many <b class=\"r\">red<\/b> marbles did your opponent report drawing? ",
            "catchKey": -1,
            "catchResponse": -1,
            "catchTime": 1678907254637,
            "trialTime": 0
        },
        {
            "exptPart": "trial",
            "trialNumber": 36,
            "roleCurrent": "receiver",
            "marblesSampled": 100,
            "probRed": 0.5,
            "practiceLambda": 5,
            "trialLambda": 8.1,
            "instructedLambda": "dishonest_big",
            "drawnRed": 50,
            "reportedRed": 61,
            "inferredRed": 45,
            "playerTrialScore": -5,
            "oppTrialScore": 0,
            "playerTotalScore": -541,
            "oppTotalScore": 378,
            "waitTime": 5987.34617445575,
            "responseTime": 1678907294330,
            "catchQuestion": "How many <b class=\"r\">red<\/b> marbles did your opponent report drawing? ",
            "catchKey": -1,
            "catchResponse": -1,
            "catchTime": 1678907254637,
            "trialTime": 0
        },
        {
            "exptPart": "trial",
            "trialNumber": 37,
            "roleCurrent": "receiver",
            "marblesSampled": 100,
            "probRed": 0.5,
            "practiceLambda": 5,
            "trialLambda": 8.1,
            "instructedLambda": "dishonest_big",
            "drawnRed": 45,
            "reportedRed": 57,
            "inferredRed": 35,
            "playerTrialScore": -10,
            "oppTrialScore": 0,
            "playerTotalScore": -551,
            "oppTotalScore": 378,
            "waitTime": 6666.075008760627,
            "responseTime": 1678907305172,
            "catchQuestion": "How many <b class=\"r\">red<\/b> marbles did your opponent report drawing? ",
            "catchKey": -1,
            "catchResponse": -1,
            "catchTime": 1678907254637,
            "trialTime": 0
        },
        {
            "exptPart": "trial",
            "trialNumber": 38,
            "roleCurrent": "receiver",
            "marblesSampled": 100,
            "probRed": 0.5,
            "practiceLambda": 5,
            "trialLambda": 8.1,
            "instructedLambda": "dishonest_big",
            "drawnRed": 56,
            "reportedRed": 64,
            "inferredRed": 46,
            "playerTrialScore": -10,
            "oppTrialScore": 0,
            "playerTotalScore": -561,
            "oppTotalScore": 378,
            "waitTime": 6249.297236436436,
            "responseTime": 1678907314849,
            "catchQuestion": "How many <b class=\"r\">red<\/b> marbles did your opponent report drawing? ",
            "catchKey": -1,
            "catchResponse": -1,
            "catchTime": 1678907254637,
            "trialTime": 0
        },
        {
            "exptPart": "trial",
            "trialNumber": 39,
            "roleCurrent": "receiver",
            "marblesSampled": 100,
            "probRed": 0.5,
            "practiceLambda": 5,
            "trialLambda": 8.1,
            "instructedLambda": "dishonest_big",
            "drawnRed": 39,
            "reportedRed": 45,
            "inferredRed": 23,
            "playerTrialScore": -16,
            "oppTrialScore": 0,
            "playerTotalScore": -577,
            "oppTotalScore": 378,
            "waitTime": 6727.165386914299,
            "responseTime": 1678907327826,
            "catchQuestion": "How many <b class=\"r\">red<\/b> marbles did your opponent report drawing? ",
            "catchKey": -1,
            "catchResponse": -1,
            "catchTime": 1678907254637,
            "trialTime": 0
        },
        {
            "exptPart": "trial",
            "trialNumber": 40,
            "roleCurrent": "receiver",
            "marblesSampled": 100,
            "probRed": 0.5,
            "practiceLambda": 5,
            "trialLambda": 8.1,
            "instructedLambda": "dishonest_big",
            "drawnRed": 34,
            "reportedRed": 42,
            "inferredRed": 23,
            "playerTrialScore": -11,
            "oppTrialScore": 0,
            "playerTotalScore": -588,
            "oppTotalScore": 378,
            "waitTime": 7025.623380997862,
            "responseTime": 1678907354939,
            "catchQuestion": "How many <b class=\"r\">red<\/b> marbles did your opponent report drawing? ",
            "catchKey": -1,
            "catchResponse": -1,
            "catchTime": 1678907354939,
            "trialTime": 0
        },
        {
            "exptPart": "trial",
            "trialNumber": 41,
            "roleCurrent": "receiver",
            "marblesSampled": 100,
            "probRed": 0.5,
            "practiceLambda": 5,
            "trialLambda": 8.1,
            "instructedLambda": "dishonest_big",
            "drawnRed": 10,
            "reportedRed": 21,
            "inferredRed": 11,
            "playerTrialScore": -1,
            "oppTrialScore": 1,
            "playerTotalScore": -589,
            "oppTotalScore": 379,
            "waitTime": 6357.610538148428,
            "responseTime": 1678907371324,
            "catchQuestion": "How many <b class=\"r\">red<\/b> marbles did your opponent report drawing? ",
            "catchKey": -1,
            "catchResponse": -1,
            "catchTime": 1678907354939,
            "trialTime": 0
        },
        {
            "exptPart": "trial",
            "trialNumber": 42,
            "roleCurrent": "receiver",
            "marblesSampled": 100,
            "probRed": 0.5,
            "practiceLambda": 5,
            "trialLambda": 8.1,
            "instructedLambda": "dishonest_big",
            "drawnRed": 72,
            "reportedRed": 79,
            "inferredRed": 23,
            "playerTrialScore": -49,
            "oppTrialScore": 0,
            "playerTotalScore": -638,
            "oppTotalScore": 379,
            "waitTime": 6176.711357595818,
            "responseTime": 1678907389917,
            "catchQuestion": "How many <b class=\"r\">red<\/b> marbles did your opponent report drawing? ",
            "catchKey": 79,
            "catchResponse": 23,
            "catchTime": 1678907389917,
            "trialTime": 0
        },
        {
            "exptPart": "trial",
            "trialNumber": 43,
            "roleCurrent": "receiver",
            "marblesSampled": 100,
            "probRed": 0.5,
            "practiceLambda": 5,
            "trialLambda": 8.1,
            "instructedLambda": "dishonest_big",
            "drawnRed": 44,
            "reportedRed": 47,
            "inferredRed": 43,
            "playerTrialScore": -1,
            "oppTrialScore": 0,
            "playerTotalScore": -639,
            "oppTotalScore": 379,
            "waitTime": 6871.193678068202,
            "responseTime": 1678907418300,
            "catchQuestion": "How many <b class=\"r\">red<\/b> marbles did your opponent report drawing? ",
            "catchKey": -1,
            "catchResponse": -1,
            "catchTime": 1678907389917,
            "trialTime": 0
        },
        {
            "exptPart": "trial",
            "trialNumber": 44,
            "roleCurrent": "receiver",
            "marblesSampled": 100,
            "probRed": 0.5,
            "practiceLambda": 5,
            "trialLambda": 8.1,
            "instructedLambda": "dishonest_big",
            "drawnRed": 32,
            "reportedRed": 42,
            "inferredRed": 32,
            "playerTrialScore": 0,
            "oppTrialScore": 0,
            "playerTotalScore": -639,
            "oppTotalScore": 379,
            "waitTime": 6576.70814002849,
            "responseTime": 1678907428502,
            "catchQuestion": "How many <b class=\"r\">red<\/b> marbles did your opponent report drawing? ",
            "catchKey": -1,
            "catchResponse": -1,
            "catchTime": 1678907389917,
            "trialTime": 0
        },
        {
            "exptPart": "trial",
            "trialNumber": 45,
            "roleCurrent": "receiver",
            "marblesSampled": 100,
            "probRed": 0.5,
            "practiceLambda": 5,
            "trialLambda": 8.1,
            "instructedLambda": "dishonest_big",
            "drawnRed": 26,
            "reportedRed": 38,
            "inferredRed": 32,
            "playerTrialScore": -6,
            "oppTrialScore": 6,
            "playerTotalScore": -645,
            "oppTotalScore": 385,
            "waitTime": 6932.573557870349,
            "responseTime": 1678907439549,
            "catchQuestion": "How many <b class=\"r\">red<\/b> marbles did your opponent report drawing? ",
            "catchKey": -1,
            "catchResponse": -1,
            "catchTime": 1678907389917,
            "trialTime": 0
        },
        {
            "exptPart": "trial",
            "trialNumber": 46,
            "roleCurrent": "receiver",
            "marblesSampled": 100,
            "probRed": 0.5,
            "practiceLambda": 5,
            "trialLambda": 8.1,
            "instructedLambda": "dishonest_big",
            "drawnRed": 53,
            "reportedRed": 61,
            "inferredRed": 21,
            "playerTrialScore": -32,
            "oppTrialScore": 0,
            "playerTotalScore": -677,
            "oppTotalScore": 385,
            "waitTime": 5136.924614678475,
            "responseTime": 1678907448251,
            "catchQuestion": "How many <b class=\"r\">red<\/b> marbles did your opponent report drawing? ",
            "catchKey": -1,
            "catchResponse": -1,
            "catchTime": 1678907389917,
            "trialTime": 0
        },
        {
            "exptPart": "trial",
            "trialNumber": 47,
            "roleCurrent": "receiver",
            "marblesSampled": 100,
            "probRed": 0.5,
            "practiceLambda": 5,
            "trialLambda": 8.1,
            "instructedLambda": "dishonest_big",
            "drawnRed": 41,
            "reportedRed": 50,
            "inferredRed": 34,
            "playerTrialScore": -7,
            "oppTrialScore": 0,
            "playerTotalScore": -684,
            "oppTotalScore": 385,
            "waitTime": 5154.263204801948,
            "responseTime": 1678907457024,
            "catchQuestion": "How many <b class=\"r\">red<\/b> marbles did your opponent report drawing? ",
            "catchKey": -1,
            "catchResponse": -1,
            "catchTime": 1678907389917,
            "trialTime": 0
        },
        {
            "exptPart": "trial",
            "trialNumber": 48,
            "roleCurrent": "receiver",
            "marblesSampled": 100,
            "probRed": 0.5,
            "practiceLambda": 5,
            "trialLambda": 8.1,
            "instructedLambda": "dishonest_big",
            "drawnRed": 50,
            "reportedRed": 60,
            "inferredRed": 55,
            "playerTrialScore": -5,
            "oppTrialScore": 5,
            "playerTotalScore": -689,
            "oppTotalScore": 390,
            "waitTime": 7373.971121144203,
            "responseTime": 1678907469371,
            "catchQuestion": "How many <b class=\"r\">red<\/b> marbles did your opponent report drawing? ",
            "catchKey": -1,
            "catchResponse": -1,
            "catchTime": 1678907389917,
            "trialTime": 0
        },
        {
            "exptPart": "trial",
            "trialNumber": 49,
            "roleCurrent": "receiver",
            "marblesSampled": 100,
            "probRed": 0.5,
            "practiceLambda": 5,
            "trialLambda": 8.1,
            "instructedLambda": "dishonest_big",
            "drawnRed": 24,
            "reportedRed": 35,
            "inferredRed": 43,
            "playerTrialScore": -19,
            "oppTrialScore": 19,
            "playerTotalScore": -708,
            "oppTotalScore": 409,
            "waitTime": 6669.36278051497,
            "responseTime": 1678907479539,
            "catchQuestion": "How many <b class=\"r\">red<\/b> marbles did your opponent report drawing? ",
            "catchKey": -1,
            "catchResponse": -1,
            "catchTime": 1678907389917,
            "trialTime": 0
        },
        {
            "exptPart": "trial",
            "trialNumber": 50,
            "roleCurrent": "receiver",
            "marblesSampled": 100,
            "probRed": 0.5,
            "practiceLambda": 5,
            "trialLambda": 8.1,
            "instructedLambda": "dishonest_big",
            "drawnRed": 39,
            "reportedRed": 45,
            "inferredRed": 43,
            "playerTrialScore": -4,
            "oppTrialScore": 4,
            "playerTotalScore": -712,
            "oppTotalScore": 413,
            "waitTime": 7133.923247098273,
            "responseTime": 1678907489561,
            "catchQuestion": "How many <b class=\"r\">red<\/b> marbles did your opponent report drawing? ",
            "catchKey": 45,
            "catchResponse": 32,
            "catchTime": 1678907489561,
            "trialTime": 0
        },
        {
            "exptPart": "trial",
            "trialNumber": 51,
            "roleCurrent": "receiver",
            "marblesSampled": 100,
            "probRed": 0.5,
            "practiceLambda": 5,
            "trialLambda": 8.1,
            "instructedLambda": "dishonest_big",
            "drawnRed": 75,
            "reportedRed": 85,
            "inferredRed": 32,
            "playerTrialScore": -43,
            "oppTrialScore": 0,
            "playerTotalScore": -755,
            "oppTotalScore": 413,
            "waitTime": 5915.424900826027,
            "responseTime": 1678907512012,
            "catchQuestion": "How many <b class=\"r\">red<\/b> marbles did your opponent report drawing? ",
            "catchKey": -1,
            "catchResponse": -1,
            "catchTime": 1678907489561,
            "trialTime": 0
        },
        {
            "exptPart": "trial",
            "trialNumber": 52,
            "roleCurrent": "receiver",
            "marblesSampled": 100,
            "probRed": 0.5,
            "practiceLambda": 5,
            "trialLambda": 8.1,
            "instructedLambda": "dishonest_big",
            "drawnRed": 20,
            "reportedRed": 31,
            "inferredRed": 23,
            "playerTrialScore": -3,
            "oppTrialScore": 3,
            "playerTotalScore": -758,
            "oppTotalScore": 416,
            "waitTime": 5606.8187512506975,
            "responseTime": 1678907519432,
            "catchQuestion": "How many <b class=\"r\">red<\/b> marbles did your opponent report drawing? ",
            "catchKey": 31,
            "catchResponse": 11,
            "catchTime": 1678907519432,
            "trialTime": 0
        },
        {
            "exptPart": "trial",
            "trialNumber": 53,
            "roleCurrent": "receiver",
            "marblesSampled": 100,
            "probRed": 0.5,
            "practiceLambda": 5,
            "trialLambda": 8.1,
            "instructedLambda": "dishonest_big",
            "drawnRed": 76,
            "reportedRed": 86,
            "inferredRed": 86,
            "playerTrialScore": -10,
            "oppTrialScore": 10,
            "playerTotalScore": -768,
            "oppTotalScore": 426,
            "waitTime": 6289.318699900682,
            "responseTime": 1678907539381,
            "catchQuestion": "How many <b class=\"r\">red<\/b> marbles did your opponent report drawing? ",
            "catchKey": -1,
            "catchResponse": -1,
            "catchTime": 1678907519432,
            "trialTime": 0
        },
        {
            "exptPart": "trial",
            "trialNumber": 54,
            "roleCurrent": "receiver",
            "marblesSampled": 100,
            "probRed": 0.5,
            "practiceLambda": 5,
            "trialLambda": 8.1,
            "instructedLambda": "dishonest_big",
            "drawnRed": 38,
            "reportedRed": 49,
            "inferredRed": 49,
            "playerTrialScore": -11,
            "oppTrialScore": 11,
            "playerTotalScore": -779,
            "oppTotalScore": 437,
            "waitTime": 5389.2006761297835,
            "responseTime": 1678907548631,
            "catchQuestion": "How many <b class=\"r\">red<\/b> marbles did your opponent report drawing? ",
            "catchKey": -1,
            "catchResponse": -1,
            "catchTime": 1678907519432,
            "trialTime": 0
        },
        {
            "exptPart": "trial",
            "trialNumber": 55,
            "roleCurrent": "receiver",
            "marblesSampled": 100,
            "probRed": 0.5,
            "practiceLambda": 5,
            "trialLambda": 8.1,
            "instructedLambda": "dishonest_big",
            "drawnRed": 70,
            "reportedRed": 79,
            "inferredRed": 79,
            "playerTrialScore": -9,
            "oppTrialScore": 9,
            "playerTotalScore": -788,
            "oppTotalScore": 446,
            "waitTime": 5258.176232145859,
            "responseTime": 1678907557198,
            "catchQuestion": "How many <b class=\"r\">red<\/b> marbles did your opponent report drawing? ",
            "catchKey": -1,
            "catchResponse": -1,
            "catchTime": 1678907519432,
            "trialTime": 0
        },
        {
            "exptPart": "trial",
            "trialNumber": 56,
            "roleCurrent": "receiver",
            "marblesSampled": 100,
            "probRed": 0.5,
            "practiceLambda": 5,
            "trialLambda": 8.1,
            "instructedLambda": "dishonest_big",
            "drawnRed": 25,
            "reportedRed": 31,
            "inferredRed": 31,
            "playerTrialScore": -6,
            "oppTrialScore": 6,
            "playerTotalScore": -794,
            "oppTotalScore": 452,
            "waitTime": 6893.011068978616,
            "responseTime": 1678907567716,
            "catchQuestion": "How many <b class=\"r\">red<\/b> marbles did your opponent report drawing? ",
            "catchKey": -1,
            "catchResponse": -1,
            "catchTime": 1678907519432,
            "trialTime": 0
        },
        {
            "exptPart": "trial",
            "trialNumber": 57,
            "roleCurrent": "receiver",
            "marblesSampled": 100,
            "probRed": 0.5,
            "practiceLambda": 5,
            "trialLambda": 8.1,
            "instructedLambda": "dishonest_big",
            "drawnRed": 87,
            "reportedRed": 91,
            "inferredRed": 91,
            "playerTrialScore": -4,
            "oppTrialScore": 4,
            "playerTotalScore": -798,
            "oppTotalScore": 456,
            "waitTime": 6468.341481439183,
            "responseTime": 1678907578289,
            "catchQuestion": "How many <b class=\"r\">red<\/b> marbles did your opponent report drawing? ",
            "catchKey": -1,
            "catchResponse": -1,
            "catchTime": 1678907519432,
            "trialTime": 0
        },
        {
            "exptPart": "trial",
            "trialNumber": 58,
            "roleCurrent": "receiver",
            "marblesSampled": 100,
            "probRed": 0.5,
            "practiceLambda": 5,
            "trialLambda": 8.1,
            "instructedLambda": "dishonest_big",
            "drawnRed": 71,
            "reportedRed": 78,
            "inferredRed": 78,
            "playerTrialScore": -7,
            "oppTrialScore": 7,
            "playerTotalScore": -805,
            "oppTotalScore": 463,
            "waitTime": 5591.0144787299105,
            "responseTime": 1678907586386,
            "catchQuestion": "How many <b class=\"r\">red<\/b> marbles did your opponent report drawing? ",
            "catchKey": -1,
            "catchResponse": -1,
            "catchTime": 1678907519432,
            "trialTime": 0
        },
        {
            "exptPart": "trial",
            "trialNumber": 59,
            "roleCurrent": "receiver",
            "marblesSampled": 100,
            "probRed": 0.5,
            "practiceLambda": 5,
            "trialLambda": 8.1,
            "instructedLambda": "dishonest_big",
            "drawnRed": 60,
            "reportedRed": 66,
            "inferredRed": 65,
            "playerTrialScore": -5,
            "oppTrialScore": 5,
            "playerTotalScore": -810,
            "oppTotalScore": 468,
            "waitTime": 7048.763274190118,
            "responseTime": 1678907597541,
            "catchQuestion": "How many <b class=\"r\">red<\/b> marbles did your opponent report drawing? ",
            "catchKey": -1,
            "catchResponse": -1,
            "catchTime": 1678907519432,
            "trialTime": 0
        },
        {
            "exptPart": "trial",
            "trialNumber": 60,
            "roleCurrent": "receiver",
            "marblesSampled": 100,
            "probRed": 0.5,
            "practiceLambda": 5,
            "trialLambda": 8.1,
            "instructedLambda": "dishonest_big",
            "drawnRed": 56,
            "reportedRed": 61,
            "inferredRed": 61,
            "playerTrialScore": -5,
            "oppTrialScore": 5,
            "playerTotalScore": -815,
            "oppTotalScore": 473,
            "waitTime": 6452.253722862499,
            "responseTime": 1678907607644,
            "catchQuestion": "How many <b class=\"r\">red<\/b> marbles did your opponent report drawing? ",
            "catchKey": 61,
            "catchResponse": 54,
            "catchTime": 1678907607644,
            "trialTime": 0
        },
        {
            "exptPart": "trial",
            "trialNumber": 61,
            "roleCurrent": "receiver",
            "marblesSampled": 100,
            "probRed": 0.5,
            "practiceLambda": 5,
            "trialLambda": 8.1,
            "instructedLambda": "dishonest_big",
            "drawnRed": 29,
            "reportedRed": 38,
            "inferredRed": 35,
            "playerTrialScore": -6,
            "oppTrialScore": 6,
            "playerTotalScore": -821,
            "oppTotalScore": 479,
            "waitTime": 5956.843907744273,
            "responseTime": 1678907642893,
            "catchQuestion": "How many <b class=\"r\">red<\/b> marbles did your opponent report drawing? ",
            "catchKey": -1,
            "catchResponse": -1,
            "catchTime": 1678907607644,
            "trialTime": 0
        },
        {
            "exptPart": "trial",
            "trialNumber": 62,
            "roleCurrent": "receiver",
            "marblesSampled": 100,
            "probRed": 0.5,
            "practiceLambda": 5,
            "trialLambda": 8.1,
            "instructedLambda": "dishonest_big",
            "drawnRed": 51,
            "reportedRed": 60,
            "inferredRed": 56,
            "playerTrialScore": -5,
            "oppTrialScore": 5,
            "playerTotalScore": -826,
            "oppTotalScore": 484,
            "waitTime": 7033.515015850484,
            "responseTime": 1678907655167,
            "catchQuestion": "How many <b class=\"r\">red<\/b> marbles did your opponent report drawing? ",
            "catchKey": -1,
            "catchResponse": -1,
            "catchTime": 1678907607644,
            "trialTime": 0
        },
        {
            "exptPart": "trial",
            "trialNumber": 63,
            "roleCurrent": "receiver",
            "marblesSampled": 100,
            "probRed": 0.5,
            "practiceLambda": 5,
            "trialLambda": 8.1,
            "instructedLambda": "dishonest_big",
            "drawnRed": 57,
            "reportedRed": 63,
            "inferredRed": 63,
            "playerTrialScore": -6,
            "oppTrialScore": 6,
            "playerTotalScore": -832,
            "oppTotalScore": 490,
            "waitTime": 5150.484840515251,
            "responseTime": 1678907663163,
            "catchQuestion": "How many <b class=\"r\">red<\/b> marbles did your opponent report drawing? ",
            "catchKey": -1,
            "catchResponse": -1,
            "catchTime": 1678907607644,
            "trialTime": 0
        },
        {
            "exptPart": "trial",
            "trialNumber": 64,
            "roleCurrent": "receiver",
            "marblesSampled": 100,
            "probRed": 0.5,
            "practiceLambda": 5,
            "trialLambda": 8.1,
            "instructedLambda": "dishonest_big",
            "drawnRed": 51,
            "reportedRed": 58,
            "inferredRed": 53,
            "playerTrialScore": -2,
            "oppTrialScore": 2,
            "playerTotalScore": -834,
            "oppTotalScore": 492,
            "waitTime": 6672.13899925014,
            "responseTime": 1678907672867,
            "catchQuestion": "How many <b class=\"r\">red<\/b> marbles did your opponent report drawing? ",
            "catchKey": -1,
            "catchResponse": -1,
            "catchTime": 1678907607644,
            "trialTime": 0
        },
        {
            "exptPart": "trial",
            "trialNumber": 65,
            "roleCurrent": "receiver",
            "marblesSampled": 100,
            "probRed": 0.5,
            "practiceLambda": 5,
            "trialLambda": 8.1,
            "instructedLambda": "dishonest_big",
            "drawnRed": 73,
            "reportedRed": 82,
            "inferredRed": 82,
            "playerTrialScore": -9,
            "oppTrialScore": 9,
            "playerTotalScore": -843,
            "oppTotalScore": 501,
            "waitTime": 5863.401812518347,
            "responseTime": 1678907685578,
            "catchQuestion": "How many <b class=\"r\">red<\/b> marbles did your opponent report drawing? ",
            "catchKey": -1,
            "catchResponse": -1,
            "catchTime": 1678907607644,
            "trialTime": 0
        },
        {
            "exptPart": "trial",
            "trialNumber": 66,
            "roleCurrent": "receiver",
            "marblesSampled": 100,
            "probRed": 0.5,
            "practiceLambda": 5,
            "trialLambda": 8.1,
            "instructedLambda": "dishonest_big",
            "drawnRed": 40,
            "reportedRed": 48,
            "inferredRed": 48,
            "playerTrialScore": -8,
            "oppTrialScore": 8,
            "playerTotalScore": -851,
            "oppTotalScore": 509,
            "waitTime": 6841.884983509923,
            "responseTime": 1678907695957,
            "catchQuestion": "How many <b class=\"r\">red<\/b> marbles did your opponent report drawing? ",
            "catchKey": -1,
            "catchResponse": -1,
            "catchTime": 1678907607644,
            "trialTime": 0
        },
        {
            "exptPart": "trial",
            "trialNumber": 67,
            "roleCurrent": "receiver",
            "marblesSampled": 100,
            "probRed": 0.5,
            "practiceLambda": 5,
            "trialLambda": 8.1,
            "instructedLambda": "dishonest_big",
            "drawnRed": 81,
            "reportedRed": 93,
            "inferredRed": 93,
            "playerTrialScore": -12,
            "oppTrialScore": 12,
            "playerTotalScore": -863,
            "oppTotalScore": 521,
            "waitTime": 5525.712246026102,
            "responseTime": 1678907708911,
            "catchQuestion": "How many <b class=\"r\">red<\/b> marbles did your opponent report drawing? ",
            "catchKey": -1,
            "catchResponse": -1,
            "catchTime": 1678907607644,
            "trialTime": 0
        },
        {
            "exptPart": "trial",
            "trialNumber": 68,
            "roleCurrent": "receiver",
            "marblesSampled": 100,
            "probRed": 0.5,
            "practiceLambda": 5,
            "trialLambda": 8.1,
            "instructedLambda": "dishonest_big",
            "drawnRed": 45,
            "reportedRed": 50,
            "inferredRed": 50,
            "playerTrialScore": -5,
            "oppTrialScore": 5,
            "playerTotalScore": -868,
            "oppTotalScore": 526,
            "waitTime": 5137.750145651506,
            "responseTime": 1678907717329,
            "catchQuestion": "How many <b class=\"r\">red<\/b> marbles did your opponent report drawing? ",
            "catchKey": -1,
            "catchResponse": -1,
            "catchTime": 1678907607644,
            "trialTime": 0
        },
        {
            "exptPart": "trial",
            "trialNumber": 69,
            "roleCurrent": "receiver",
            "marblesSampled": 100,
            "probRed": 0.5,
            "practiceLambda": 5,
            "trialLambda": 8.1,
            "instructedLambda": "dishonest_big",
            "drawnRed": 43,
            "reportedRed": 51,
            "inferredRed": 51,
            "playerTrialScore": -8,
            "oppTrialScore": 8,
            "playerTotalScore": -876,
            "oppTotalScore": 534,
            "waitTime": 7470.136347192023,
            "responseTime": 1678907728370,
            "catchQuestion": "How many <b class=\"r\">red<\/b> marbles did your opponent report drawing? ",
            "catchKey": -1,
            "catchResponse": -1,
            "catchTime": 1678907607644,
            "trialTime": 0
        },
        {
            "exptPart": "trial",
            "trialNumber": 70,
            "roleCurrent": "receiver",
            "marblesSampled": 100,
            "probRed": 0.5,
            "practiceLambda": 5,
            "trialLambda": 8.1,
            "instructedLambda": "dishonest_big",
            "drawnRed": 74,
            "reportedRed": 78,
            "inferredRed": 74,
            "playerTrialScore": 0,
            "oppTrialScore": 0,
            "playerTotalScore": -876,
            "oppTotalScore": 534,
            "waitTime": 5998.122663661655,
            "responseTime": 1678907743627,
            "catchQuestion": "How many <b class=\"r\">red<\/b> marbles did your opponent report drawing? ",
            "catchKey": -1,
            "catchResponse": -1,
            "catchTime": 1678907743627,
            "trialTime": 0
        },
        {
            "exptPart": "trial",
            "trialNumber": 71,
            "roleCurrent": "receiver",
            "marblesSampled": 100,
            "probRed": 0.5,
            "practiceLambda": 5,
            "trialLambda": 8.1,
            "instructedLambda": "dishonest_big",
            "drawnRed": 29,
            "reportedRed": 42,
            "inferredRed": 42,
            "playerTrialScore": -13,
            "oppTrialScore": 13,
            "playerTotalScore": -889,
            "oppTotalScore": 547,
            "waitTime": 5767.026281977098,
            "responseTime": 1678907754983,
            "catchQuestion": "How many <b class=\"r\">red<\/b> marbles did your opponent report drawing? ",
            "catchKey": -1,
            "catchResponse": -1,
            "catchTime": 1678907743627,
            "trialTime": 0
        },
        {
            "exptPart": "trial",
            "trialNumber": 72,
            "roleCurrent": "receiver",
            "marblesSampled": 100,
            "probRed": 0.5,
            "practiceLambda": 5,
            "trialLambda": 8.1,
            "instructedLambda": "dishonest_big",
            "drawnRed": 50,
            "reportedRed": 58,
            "inferredRed": 58,
            "playerTrialScore": -8,
            "oppTrialScore": 8,
            "playerTotalScore": -897,
            "oppTotalScore": 555,
            "waitTime": 6566.0362016056315,
            "responseTime": 1678907765223,
            "catchQuestion": "How many <b class=\"r\">red<\/b> marbles did your opponent report drawing? ",
            "catchKey": -1,
            "catchResponse": -1,
            "catchTime": 1678907743627,
            "trialTime": 0
        },
        {
            "exptPart": "trial",
            "trialNumber": 73,
            "roleCurrent": "receiver",
            "marblesSampled": 100,
            "probRed": 0.5,
            "practiceLambda": 5,
            "trialLambda": 8.1,
            "instructedLambda": "dishonest_big",
            "drawnRed": 41,
            "reportedRed": 47,
            "inferredRed": 47,
            "playerTrialScore": -6,
            "oppTrialScore": 6,
            "playerTotalScore": -903,
            "oppTotalScore": 561,
            "waitTime": 6350.771772784996,
            "responseTime": 1678907778550,
            "catchQuestion": "How many <b class=\"r\">red<\/b> marbles did your opponent report drawing? ",
            "catchKey": -1,
            "catchResponse": -1,
            "catchTime": 1678907743627,
            "trialTime": 0
        },
        {
            "exptPart": "trial",
            "trialNumber": 74,
            "roleCurrent": "receiver",
            "marblesSampled": 100,
            "probRed": 0.5,
            "practiceLambda": 5,
            "trialLambda": 8.1,
            "instructedLambda": "dishonest_big",
            "drawnRed": 39,
            "reportedRed": 47,
            "inferredRed": 47,
            "playerTrialScore": -8,
            "oppTrialScore": 8,
            "playerTotalScore": -911,
            "oppTotalScore": 569,
            "waitTime": 7273.376713551995,
            "responseTime": 1678907789632,
            "catchQuestion": "How many <b class=\"r\">red<\/b> marbles did your opponent report drawing? ",
            "catchKey": -1,
            "catchResponse": -1,
            "catchTime": 1678907743627,
            "trialTime": 0
        },
        {
            "exptPart": "trial",
            "trialNumber": 75,
            "roleCurrent": "receiver",
            "marblesSampled": 100,
            "probRed": 0.5,
            "practiceLambda": 5,
            "trialLambda": 8.1,
            "instructedLambda": "dishonest_big",
            "drawnRed": 66,
            "reportedRed": 77,
            "inferredRed": 77,
            "playerTrialScore": -11,
            "oppTrialScore": 11,
            "playerTotalScore": -922,
            "oppTotalScore": 580,
            "waitTime": 5584.803130363256,
            "responseTime": 1678907797822,
            "catchQuestion": "How many <b class=\"r\">red<\/b> marbles did your opponent report drawing? ",
            "catchKey": -1,
            "catchResponse": -1,
            "catchTime": 1678907743627,
            "trialTime": 0
        },
        {
            "exptPart": "trial",
            "trialNumber": 76,
            "roleCurrent": "receiver",
            "marblesSampled": 100,
            "probRed": 0.5,
            "practiceLambda": 5,
            "trialLambda": 8.1,
            "instructedLambda": "dishonest_big",
            "drawnRed": 29,
            "reportedRed": 40,
            "inferredRed": 40,
            "playerTrialScore": -11,
            "oppTrialScore": 11,
            "playerTotalScore": -933,
            "oppTotalScore": 591,
            "waitTime": 6964.5621870180785,
            "responseTime": 1678907807515,
            "catchQuestion": "How many <b class=\"r\">red<\/b> marbles did your opponent report drawing? ",
            "catchKey": -1,
            "catchResponse": -1,
            "catchTime": 1678907743627,
            "trialTime": 0
        },
        {
            "exptPart": "trial",
            "trialNumber": 77,
            "roleCurrent": "receiver",
            "marblesSampled": 100,
            "probRed": 0.5,
            "practiceLambda": 5,
            "trialLambda": 8.1,
            "instructedLambda": "dishonest_big",
            "drawnRed": 50,
            "reportedRed": 56,
            "inferredRed": 56,
            "playerTrialScore": -6,
            "oppTrialScore": 6,
            "playerTotalScore": -939,
            "oppTotalScore": 597,
            "waitTime": 6164.971282441646,
            "responseTime": 1678907816343,
            "catchQuestion": "How many <b class=\"r\">red<\/b> marbles did your opponent report drawing? ",
            "catchKey": -1,
            "catchResponse": -1,
            "catchTime": 1678907743627,
            "trialTime": 0
        },
        {
            "exptPart": "trial",
            "trialNumber": 78,
            "roleCurrent": "receiver",
            "marblesSampled": 100,
            "probRed": 0.5,
            "practiceLambda": 5,
            "trialLambda": 8.1,
            "instructedLambda": "dishonest_big",
            "drawnRed": 69,
            "reportedRed": 81,
            "inferredRed": 81,
            "playerTrialScore": -12,
            "oppTrialScore": 12,
            "playerTotalScore": -951,
            "oppTotalScore": 609,
            "waitTime": 5361.389669273643,
            "responseTime": 1678907825515,
            "catchQuestion": "How many <b class=\"r\">red<\/b> marbles did your opponent report drawing? ",
            "catchKey": -1,
            "catchResponse": -1,
            "catchTime": 1678907743627,
            "trialTime": 0
        },
        {
            "exptPart": "trial",
            "trialNumber": 79,
            "roleCurrent": "receiver",
            "marblesSampled": 100,
            "probRed": 0.5,
            "practiceLambda": 5,
            "trialLambda": 8.1,
            "instructedLambda": "dishonest_big",
            "drawnRed": 25,
            "reportedRed": 36,
            "inferredRed": 38,
            "playerTrialScore": -13,
            "oppTrialScore": 13,
            "playerTotalScore": -964,
            "oppTotalScore": 622,
            "waitTime": 7029.660077634728,
            "responseTime": 1678907837416,
            "catchQuestion": "How many <b class=\"r\">red<\/b> marbles did your opponent report drawing? ",
            "catchKey": -1,
            "catchResponse": -1,
            "catchTime": 1678907743627,
            "trialTime": 0
        },
        {
            "exptPart": "trial",
            "trialNumber": 80,
            "roleCurrent": "receiver",
            "marblesSampled": 100,
            "probRed": 0.5,
            "practiceLambda": 5,
            "trialLambda": 8.1,
            "instructedLambda": "dishonest_big",
            "drawnRed": 30,
            "reportedRed": 35,
            "inferredRed": 35,
            "playerTrialScore": -5,
            "oppTrialScore": 5,
            "playerTotalScore": -969,
            "oppTotalScore": 627,
            "waitTime": 6988.34649740265,
            "responseTime": 1678907851272,
            "catchQuestion": "How many <b class=\"r\">red<\/b> marbles did your opponent report drawing? ",
            "catchKey": -1,
            "catchResponse": -1,
            "catchTime": 1678907851272,
            "trialTime": 0
        },
        {
            "exptPart": "trial",
            "trialNumber": 81,
            "roleCurrent": "receiver",
            "marblesSampled": 100,
            "probRed": 0.5,
            "practiceLambda": 5,
            "trialLambda": 8.1,
            "instructedLambda": "dishonest_big",
            "drawnRed": 39,
            "reportedRed": 47,
            "inferredRed": 47,
            "playerTrialScore": -8,
            "oppTrialScore": 8,
            "playerTotalScore": -977,
            "oppTotalScore": 635,
            "waitTime": 5185.156703781523,
            "responseTime": 1678907860700,
            "catchQuestion": "How many <b class=\"r\">red<\/b> marbles did your opponent report drawing? ",
            "catchKey": -1,
            "catchResponse": -1,
            "catchTime": 1678907851272,
            "trialTime": 0
        },
        {
            "exptPart": "trial",
            "trialNumber": 82,
            "roleCurrent": "receiver",
            "marblesSampled": 100,
            "probRed": 0.5,
            "practiceLambda": 5,
            "trialLambda": 8.1,
            "instructedLambda": "dishonest_big",
            "drawnRed": 37,
            "reportedRed": 50,
            "inferredRed": 50,
            "playerTrialScore": -13,
            "oppTrialScore": 13,
            "playerTotalScore": -990,
            "oppTotalScore": 648,
            "waitTime": 6462.520068267684,
            "responseTime": 1678907878131,
            "catchQuestion": "How many <b class=\"r\">red<\/b> marbles did your opponent report drawing? ",
            "catchKey": -1,
            "catchResponse": -1,
            "catchTime": 1678907851272,
            "trialTime": 0
        },
        {
            "exptPart": "trial",
            "trialNumber": 83,
            "roleCurrent": "receiver",
            "marblesSampled": 100,
            "probRed": 0.5,
            "practiceLambda": 5,
            "trialLambda": 8.1,
            "instructedLambda": "dishonest_big",
            "drawnRed": 32,
            "reportedRed": 41,
            "inferredRed": 41,
            "playerTrialScore": -9,
            "oppTrialScore": 9,
            "playerTotalScore": -999,
            "oppTotalScore": 657,
            "waitTime": 5189.17246540455,
            "responseTime": 1678907889151,
            "catchQuestion": "How many <b class=\"r\">red<\/b> marbles did your opponent report drawing? ",
            "catchKey": -1,
            "catchResponse": -1,
            "catchTime": 1678907851272,
            "trialTime": 0
        },
        {
            "exptPart": "trial",
            "trialNumber": 84,
            "roleCurrent": "receiver",
            "marblesSampled": 100,
            "probRed": 0.5,
            "practiceLambda": 5,
            "trialLambda": 8.1,
            "instructedLambda": "dishonest_big",
            "drawnRed": 57,
            "reportedRed": 63,
            "inferredRed": 64,
            "playerTrialScore": -7,
            "oppTrialScore": 7,
            "playerTotalScore": -1006,
            "oppTotalScore": 664,
            "waitTime": 6058.073857562269,
            "responseTime": 1678907898733,
            "catchQuestion": "How many <b class=\"r\">red<\/b> marbles did your opponent report drawing? ",
            "catchKey": -1,
            "catchResponse": -1,
            "catchTime": 1678907851272,
            "trialTime": 0
        },
        {
            "exptPart": "trial",
            "trialNumber": 85,
            "roleCurrent": "receiver",
            "marblesSampled": 100,
            "probRed": 0.5,
            "practiceLambda": 5,
            "trialLambda": 8.1,
            "instructedLambda": "dishonest_big",
            "drawnRed": 79,
            "reportedRed": 85,
            "inferredRed": 85,
            "playerTrialScore": -6,
            "oppTrialScore": 6,
            "playerTotalScore": -1012,
            "oppTotalScore": 670,
            "waitTime": 6882.520446953051,
            "responseTime": 1678907913074,
            "catchQuestion": "How many <b class=\"r\">red<\/b> marbles did your opponent report drawing? ",
            "catchKey": -1,
            "catchResponse": -1,
            "catchTime": 1678907851272,
            "trialTime": 0
        },
        {
            "exptPart": "trial",
            "trialNumber": 86,
            "roleCurrent": "receiver",
            "marblesSampled": 100,
            "probRed": 0.5,
            "practiceLambda": 5,
            "trialLambda": 8.1,
            "instructedLambda": "dishonest_big",
            "drawnRed": 43,
            "reportedRed": 51,
            "inferredRed": 51,
            "playerTrialScore": -8,
            "oppTrialScore": 8,
            "playerTotalScore": -1020,
            "oppTotalScore": 678,
            "waitTime": 7323.648636190823,
            "responseTime": 1678907932655,
            "catchQuestion": "How many <b class=\"r\">red<\/b> marbles did your opponent report drawing? ",
            "catchKey": -1,
            "catchResponse": -1,
            "catchTime": 1678907851272,
            "trialTime": 0
        },
        {
            "exptPart": "trial",
            "trialNumber": 87,
            "roleCurrent": "receiver",
            "marblesSampled": 100,
            "probRed": 0.5,
            "practiceLambda": 5,
            "trialLambda": 8.1,
            "instructedLambda": "dishonest_big",
            "drawnRed": 34,
            "reportedRed": 42,
            "inferredRed": 42,
            "playerTrialScore": -8,
            "oppTrialScore": 8,
            "playerTotalScore": -1028,
            "oppTotalScore": 686,
            "waitTime": 5692.530612745319,
            "responseTime": 1678907950163,
            "catchQuestion": "How many <b class=\"r\">red<\/b> marbles did your opponent report drawing? ",
            "catchKey": -1,
            "catchResponse": -1,
            "catchTime": 1678907851272,
            "trialTime": 0
        },
        {
            "exptPart": "trial",
            "trialNumber": 88,
            "roleCurrent": "receiver",
            "marblesSampled": 100,
            "probRed": 0.5,
            "practiceLambda": 5,
            "trialLambda": 8.1,
            "instructedLambda": "dishonest_big",
            "drawnRed": 78,
            "reportedRed": 85,
            "inferredRed": 85,
            "playerTrialScore": -7,
            "oppTrialScore": 7,
            "playerTotalScore": -1035,
            "oppTotalScore": 693,
            "waitTime": 5771.387496054891,
            "responseTime": 1678907959948,
            "catchQuestion": "How many <b class=\"r\">red<\/b> marbles did your opponent report drawing? ",
            "catchKey": -1,
            "catchResponse": -1,
            "catchTime": 1678907851272,
            "trialTime": 0
        },
        {
            "exptPart": "trial",
            "trialNumber": 89,
            "roleCurrent": "receiver",
            "marblesSampled": 100,
            "probRed": 0.5,
            "practiceLambda": 5,
            "trialLambda": 8.1,
            "instructedLambda": "dishonest_big",
            "drawnRed": 82,
            "reportedRed": 91,
            "inferredRed": 91,
            "playerTrialScore": -9,
            "oppTrialScore": 9,
            "playerTotalScore": -1044,
            "oppTotalScore": 702,
            "waitTime": 6004.890726252708,
            "responseTime": 1678907969850,
            "catchQuestion": "How many <b class=\"r\">red<\/b> marbles did your opponent report drawing? ",
            "catchKey": -1,
            "catchResponse": -1,
            "catchTime": 1678907851272,
            "trialTime": 0
        },
        {
            "exptPart": "trial",
            "trialNumber": 90,
            "roleCurrent": "receiver",
            "marblesSampled": 100,
            "probRed": 0.5,
            "practiceLambda": 5,
            "trialLambda": 8.1,
            "instructedLambda": "dishonest_big",
            "drawnRed": 80,
            "reportedRed": 87,
            "inferredRed": 87,
            "playerTrialScore": -7,
            "oppTrialScore": 7,
            "playerTotalScore": -1051,
            "oppTotalScore": 709,
            "waitTime": 6636.42795530678,
            "responseTime": 1678907979797,
            "catchQuestion": "How many <b class=\"r\">red<\/b> marbles did your opponent report drawing? ",
            "catchKey": -1,
            "catchResponse": -1,
            "catchTime": 1678907979797,
            "trialTime": 0
        },
        {
            "exptPart": "trial",
            "trialNumber": 91,
            "roleCurrent": "receiver",
            "marblesSampled": 100,
            "probRed": 0.5,
            "practiceLambda": 5,
            "trialLambda": 8.1,
            "instructedLambda": "dishonest_big",
            "drawnRed": 72,
            "reportedRed": 79,
            "inferredRed": 79,
            "playerTrialScore": -7,
            "oppTrialScore": 7,
            "playerTotalScore": -1058,
            "oppTotalScore": 716,
            "waitTime": 5250.471565480229,
            "responseTime": 1678907990006,
            "catchQuestion": "How many <b class=\"r\">red<\/b> marbles did your opponent report drawing? ",
            "catchKey": -1,
            "catchResponse": -1,
            "catchTime": 1678907979797,
            "trialTime": 0
        },
        {
            "exptPart": "trial",
            "trialNumber": 92,
            "roleCurrent": "receiver",
            "marblesSampled": 100,
            "probRed": 0.5,
            "practiceLambda": 5,
            "trialLambda": 8.1,
            "instructedLambda": "dishonest_big",
            "drawnRed": 59,
            "reportedRed": 64,
            "inferredRed": 56,
            "playerTrialScore": -3,
            "oppTrialScore": 0,
            "playerTotalScore": -1061,
            "oppTotalScore": 716,
            "waitTime": 5964.424779038142,
            "responseTime": 1678908013355,
            "catchQuestion": "How many <b class=\"r\">red<\/b> marbles did your opponent report drawing? ",
            "catchKey": -1,
            "catchResponse": -1,
            "catchTime": 1678907979797,
            "trialTime": 0
        },
        {
            "exptPart": "trial",
            "trialNumber": 93,
            "roleCurrent": "receiver",
            "marblesSampled": 100,
            "probRed": 0.5,
            "practiceLambda": 5,
            "trialLambda": 8.1,
            "instructedLambda": "dishonest_big",
            "drawnRed": 49,
            "reportedRed": 55,
            "inferredRed": 55,
            "playerTrialScore": -6,
            "oppTrialScore": 6,
            "playerTotalScore": -1067,
            "oppTotalScore": 722,
            "waitTime": 5281.700652505808,
            "responseTime": 1678908023190,
            "catchQuestion": "How many <b class=\"r\">red<\/b> marbles did your opponent report drawing? ",
            "catchKey": 55,
            "catchResponse": 55,
            "catchTime": 1678908023190,
            "trialTime": 0
        },
        {
            "exptPart": "trial",
            "trialNumber": 94,
            "roleCurrent": "receiver",
            "marblesSampled": 100,
            "probRed": 0.5,
            "practiceLambda": 5,
            "trialLambda": 8.1,
            "instructedLambda": "dishonest_big",
            "drawnRed": 38,
            "reportedRed": 45,
            "inferredRed": 45,
            "playerTrialScore": -7,
            "oppTrialScore": 7,
            "playerTotalScore": -1074,
            "oppTotalScore": 729,
            "waitTime": 7252.444129911549,
            "responseTime": 1678908037616,
            "catchQuestion": "How many <b class=\"r\">red<\/b> marbles did your opponent report drawing? ",
            "catchKey": -1,
            "catchResponse": -1,
            "catchTime": 1678908023190,
            "trialTime": 0
        },
        {
            "exptPart": "trial",
            "trialNumber": 95,
            "roleCurrent": "receiver",
            "marblesSampled": 100,
            "probRed": 0.5,
            "practiceLambda": 5,
            "trialLambda": 8.1,
            "instructedLambda": "dishonest_big",
            "drawnRed": 93,
            "reportedRed": 100,
            "inferredRed": 100,
            "playerTrialScore": -7,
            "oppTrialScore": 7,
            "playerTotalScore": -1081,
            "oppTotalScore": 736,
            "waitTime": 5525.077962409756,
            "responseTime": 1678908053321,
            "catchQuestion": "How many <b class=\"r\">red<\/b> marbles did your opponent report drawing? ",
            "catchKey": -1,
            "catchResponse": -1,
            "catchTime": 1678908023190,
            "trialTime": 0
        },
        {
            "exptPart": "trial",
            "trialNumber": 96,
            "roleCurrent": "receiver",
            "marblesSampled": 100,
            "probRed": 0.5,
            "practiceLambda": 5,
            "trialLambda": 8.1,
            "instructedLambda": "dishonest_big",
            "drawnRed": 54,
            "reportedRed": 63,
            "inferredRed": 63,
            "playerTrialScore": -9,
            "oppTrialScore": 9,
            "playerTotalScore": -1090,
            "oppTotalScore": 745,
            "waitTime": 5259.924242442868,
            "responseTime": 1678908062038,
            "catchQuestion": "How many <b class=\"r\">red<\/b> marbles did your opponent report drawing? ",
            "catchKey": -1,
            "catchResponse": -1,
            "catchTime": 1678908023190,
            "trialTime": 0
        },
        {
            "exptPart": "trial",
            "trialNumber": 97,
            "roleCurrent": "receiver",
            "marblesSampled": 100,
            "probRed": 0.5,
            "practiceLambda": 5,
            "trialLambda": 8.1,
            "instructedLambda": "dishonest_big",
            "drawnRed": 64,
            "reportedRed": 74,
            "inferredRed": 74,
            "playerTrialScore": -10,
            "oppTrialScore": 10,
            "playerTotalScore": -1100,
            "oppTotalScore": 755,
            "waitTime": 7256.699407368814,
            "responseTime": 1678908075995,
            "catchQuestion": "How many <b class=\"r\">red<\/b> marbles did your opponent report drawing? ",
            "catchKey": -1,
            "catchResponse": -1,
            "catchTime": 1678908023190,
            "trialTime": 0
        },
        {
            "exptPart": "trial",
            "trialNumber": 98,
            "roleCurrent": "receiver",
            "marblesSampled": 100,
            "probRed": 0.5,
            "practiceLambda": 5,
            "trialLambda": 8.1,
            "instructedLambda": "dishonest_big",
            "drawnRed": 82,
            "reportedRed": 90,
            "inferredRed": 90,
            "playerTrialScore": -8,
            "oppTrialScore": 8,
            "playerTotalScore": -1108,
            "oppTotalScore": 763,
            "waitTime": 7492.826064857914,
            "responseTime": 1678908091674,
            "catchQuestion": "How many <b class=\"r\">red<\/b> marbles did your opponent report drawing? ",
            "catchKey": -1,
            "catchResponse": -1,
            "catchTime": 1678908023190,
            "trialTime": 0
        },
        {
            "exptPart": "trial",
            "trialNumber": 99,
            "roleCurrent": "receiver",
            "marblesSampled": 100,
            "probRed": 0.5,
            "practiceLambda": 5,
            "trialLambda": 8.1,
            "instructedLambda": "dishonest_big",
            "drawnRed": 35,
            "reportedRed": 45,
            "inferredRed": 45,
            "playerTrialScore": -10,
            "oppTrialScore": 10,
            "playerTotalScore": -1118,
            "oppTotalScore": 773,
            "waitTime": 5150.252302263605,
            "responseTime": 1678908100134,
            "catchQuestion": "How many <b class=\"r\">red<\/b> marbles did your opponent report drawing? ",
            "catchKey": 45,
            "catchResponse": 79,
            "catchTime": 1678908100134,
            "trialTime": 0
        },
        {
            "exptPart": "trial",
            "trialNumber": 100,
            "roleCurrent": "receiver",
            "marblesSampled": 100,
            "probRed": 0.5,
            "practiceLambda": 5,
            "trialLambda": 8.1,
            "instructedLambda": "dishonest_big",
            "drawnRed": 14,
            "reportedRed": 24,
            "inferredRed": 24,
            "playerTrialScore": -10,
            "oppTrialScore": 10,
            "playerTotalScore": -1128,
            "oppTotalScore": 783,
            "waitTime": 6152.647381868428,
            "responseTime": 1678908127181,
            "catchQuestion": "How many <b class=\"r\">red<\/b> marbles did your opponent report drawing? ",
            "catchKey": -1,
            "catchResponse": -1,
            "catchTime": 1678908127181,
            "trialTime": 0
        }
    ]
}