subjID,cost,goal,exptPart,trialNumber,roleCurrent,marblesSampled,probRed,lambda,k,ksay,kest,playerTrialScore,oppTrialScore,playerTotalScore,oppTotalScore,waitTime,responseTime,catchQuestion,catchKey,catchResponse,catchTime,trialTime,accuracy
sona-36244,linear,over,trial,1,receiver,100,0.5,5,76,81,75,-1,0,-1,0,6331.44103468915,1642854061813,"How many <b class=""r"">red</b> marbles did your opponent report drawing?",-1,-1,1642854021498,0,0.8333333333333334
sona-36244,linear,over,trial,3,receiver,100,0.5,5,89,97,90,-1,1,-2,-3,6194.264928715096,1642854105419,"How many <b class=""r"">red</b> marbles did your opponent report drawing?",-1,-1,1642854021498,0,0.8333333333333334
sona-36244,linear,over,trial,5,receiver,100,0.5,5,66,68,58,-8,0,0,-13,6818.3757935867925,1642854192229,"How many <b class=""r"">red</b> marbles did your opponent report drawing?",-1,-1,1642854192229,0,0.8333333333333334
sona-36244,linear,over,trial,7,receiver,100,0.5,5,88,92,85,-3,0,6,-22,6912.529170438946,1642854276124,"How many <b class=""r"">red</b> marbles did your opponent report drawing?",-1,-1,1642854192229,0,0.8333333333333334
sona-36244,linear,over,trial,9,receiver,100,0.5,5,38,41,35,-3,0,3,-24,5642.96090641106,1642854319395,"How many <b class=""r"">red</b> marbles did you actually draw (before any changes)?",-1,-1,1642854284966,0,0.8333333333333334
sona-36244,linear,over,trial,11,receiver,100,0.5,5,53,59,50,-3,0,0,-29,5343.400659546887,1642854351704,"How many <b class=""r"">red</b> marbles did you actually draw (before any changes)?",-1,-1,1642854333490,0,0.8333333333333334
sona-36244,linear,over,trial,13,receiver,100,0.5,5,67,73,67,0,0,0,-30,5857.728968262819,1642854382559,"How many <b class=""r"">red</b> marbles did you actually draw (before any changes)?",-1,-1,1642854333490,0,0.8333333333333334
sona-36244,linear,over,trial,15,receiver,100,0.5,5,55,59,51,-4,0,-4,-34,5181.42150778611,1642854425492,"How many <b class=""r"">red</b> marbles did you actually draw (before any changes)?",-1,-1,1642854425492,0,0.8333333333333334
sona-36244,linear,over,trial,17,receiver,100,0.5,5,70,75,69,-1,0,-5,-39,5202.760976050282,1642854468772,"How many <b class=""r"">red</b> marbles did you actually draw (before any changes)?",-1,-1,1642854450472,0,0.8333333333333334
sona-36244,linear,over,trial,19,receiver,100,0.5,5,69,76,70,-1,1,-6,-46,6303.122495870587,1642854492707,"How many <b class=""r"">red</b> marbles did you actually draw (before any changes)?",-1,-1,1642854450472,0,0.8333333333333334
sona-36244,linear,over,trial,21,receiver,100,0.5,5,79,83,78,-1,0,-5,-48,5477.1390641311555,1642854529736,"How many <b class=""r"">red</b> marbles did you actually draw (before any changes)?",-1,-1,1642854517029,0,0.8333333333333334
sona-36244,linear,over,trial,23,receiver,100,0.5,5,49,51,49,0,0,-3,-50,6346.233800721582,1642854578698,"How many <b class=""r"">red</b> marbles did you actually draw (before any changes)?",-1,-1,1642854517029,0,0.8333333333333334
sona-36244,linear,over,trial,25,receiver,100,0.5,5,79,82,77,-2,0,-5,-53,6527.075011950141,1642854601458,"How many <b class=""r"">red</b> marbles did you actually draw (before any changes)?",-1,-1,1642854601458,0,0.8333333333333334
sona-36244,linear,over,trial,27,receiver,100,0.5,5,26,27,25,-1,0,-6,-64,5926.6124678713495,1642854625810,"How many <b class=""r"">red</b> marbles did you actually draw (before any changes)?",-1,-1,1642854601458,0,0.8333333333333334
sona-36244,linear,over,trial,29,receiver,100,0.5,5,53,58,51,-2,0,-8,-70,5275.972410589309,1642854662217,"How many <b class=""r"">red</b> marbles did you actually draw (before any changes)?",-1,-1,1642854601458,0,0.8333333333333334
sona-36244,linear,over,trial,31,receiver,100,0.5,5,84,91,88,-4,4,-12,-70,6471.892605788189,1642854685383,"How many <b class=""r"">red</b> marbles did you actually draw (before any changes)?",-1,-1,1642854671815,0,0.8333333333333334
sona-36244,linear,over,trial,33,receiver,100,0.5,5,39,49,45,-6,6,-18,-67,6206.4927750177085,1642854711699,"How many <b class=""r"">red</b> marbles did you actually draw (before any changes)?",-1,-1,1642854671815,0,0.8333333333333334
sona-36244,linear,over,trial,35,receiver,100,0.5,5,31,39,35,-4,4,-22,-68,5884.468629563691,1642854736382,"How many <b class=""r"">red</b> marbles did you actually draw (before any changes)?",-1,-1,1642854736382,0,0.8333333333333334
sona-36244,linear,over,trial,37,receiver,100,0.5,5,39,41,35,-4,0,-26,-69,7376.549107225004,1642854806023,"How many <b class=""r"">red</b> marbles did you actually draw (before any changes)?",-1,-1,1642854736382,0,0.8333333333333334
sona-36244,linear,over,trial,39,receiver,100,0.5,5,66,70,65,-1,0,-27,-79,5648.102949159036,1642854842491,"How many <b class=""r"">red</b> marbles did you actually draw (before any changes)?",-1,-1,1642854736382,0,0.8333333333333334
sona-36244,linear,over,trial,41,receiver,100,0.5,5,15,19,25,-10,10,-33,-73,5331.546671983039,1642855036805,"How many <b class=""r"">red</b> marbles did you actually draw (before any changes)?",-1,-1,1642854993628,0,0.8333333333333334
sona-36244,linear,over,trial,43,receiver,100,0.5,5,25,30,25,0,0,-33,-76,5272.341194108351,1642855099346,"How many <b class=""r"">red</b> marbles did you actually draw (before any changes)?",-1,-1,1642854993628,0,0.8333333333333334
sona-36244,linear,over,trial,45,receiver,100,0.5,5,39,44,40,-1,1,-34,-78,5141.381806242463,1642855122356,"How many <b class=""r"">red</b> marbles did you actually draw (before any changes)?",-1,-1,1642855122356,0,0.8333333333333334
sona-36244,linear,over,trial,47,receiver,100,0.5,5,49,54,50,-1,1,-35,-83,5568.936518014964,1642855145666,"How many <b class=""r"">red</b> marbles did you actually draw (before any changes)?",-1,-1,1642855122356,0,0.8333333333333334
sona-36244,linear,over,trial,49,receiver,100,0.5,5,20,27,19,-1,0,-36,-86,5241.872363299197,1642855201304,"How many <b class=""r"">red</b> marbles did you actually draw (before any changes)?",-1,-1,1642855122356,0,0.8333333333333334
sona-36244,linear,over,trial,51,receiver,100,0.5,5,45,50,45,0,0,-36,-90,5616.132890884175,1642855219739,"How many <b class=""r"">red</b> marbles did you actually draw (before any changes)?",-1,-1,1642855208187,0,0.8333333333333334
sona-36244,linear,over,trial,53,receiver,100,0.5,5,58,63,60,-2,2,-38,-93,6695.799377066762,1642855269922,"How many <b class=""r"">red</b> marbles did you actually draw (before any changes)?",-1,-1,1642855208187,0,0.8333333333333334
sona-36244,linear,over,trial,55,receiver,100,0.5,5,78,84,80,-2,2,-40,-91,6461.678804929431,1642855294101,"How many <b class=""r"">red</b> marbles did your opponent report drawing?",84,84,1642855294102,0,0.8333333333333334
sona-36244,linear,over,trial,57,receiver,100,0.5,5,24,30,26,-2,2,-42,-95,5685.352978182922,1642855367199,"How many <b class=""r"">red</b> marbles did you actually draw (before any changes)?",-1,-1,1642855313794,0,0.8333333333333334
sona-36244,linear,over,trial,59,receiver,100,0.5,5,72,77,70,-2,0,-44,-100,6323.155364625241,1642855427872,"How many <b class=""r"">red</b> marbles did you actually draw (before any changes)?",-1,-1,1642855377723,0,0.8333333333333334
sona-36244,linear,over,trial,61,receiver,100,0.5,5,66,69,60,-6,0,-50,-101,5531.265733797747,1642855449870,"How many <b class=""r"">red</b> marbles did you actually draw (before any changes)?",-1,-1,1642855438223,0,0.8333333333333334
sona-36244,linear,over,trial,63,receiver,100,0.5,5,54,55,50,-4,0,-45,-110,5441.2136219541435,1642855494350,"How many <b class=""r"">red</b> marbles did you actually draw (before any changes)?",-1,-1,1642855438223,0,0.8333333333333334
sona-36244,linear,over,trial,65,receiver,100,0.5,5,25,33,29,-4,4,-49,-109,6857.475610577642,1642855554876,"How many <b class=""r"">red</b> marbles did you actually draw (before any changes)?",-1,-1,1642855554876,0,0.8333333333333334
sona-36244,linear,over,trial,67,receiver,100,0.5,5,45,53,50,-5,5,-54,-106,7477.495730780467,1642855583547,"How many <b class=""r"">red</b> marbles did you actually draw (before any changes)?",-1,-1,1642855554876,0,0.8333333333333334
sona-36244,linear,over,trial,69,receiver,100,0.5,5,46,49,45,-1,0,-55,-110,5134.964376607837,1642855615146,"How many <b class=""r"">red</b> marbles did you actually draw (before any changes)?",-1,-1,1642855554876,0,0.8333333333333334
sona-36244,linear,over,trial,71,receiver,100,0.5,5,66,73,72,-6,6,-61,-107,7135.694919212646,1642855792518,"How many <b class=""r"">red</b> marbles did you actually draw (before any changes)?",-1,-1,1642855778486,0,0.8333333333333334
sona-36244,linear,over,trial,73,receiver,100,0.5,5,75,78,74,-1,0,-62,-109,7248.334901825341,1642855843928,"How many <b class=""r"">red</b> marbles did you actually draw (before any changes)?",-1,-1,1642855778486,0,0.8333333333333334
sona-36244,linear,over,trial,75,receiver,100,0.5,5,47,54,50,-3,3,-65,-112,6481.526648033765,1642855873416,"How many <b class=""r"">red</b> marbles did you actually draw (before any changes)?",-1,-1,1642855873416,0,0.8333333333333334
sona-36244,linear,over,trial,77,receiver,100,0.5,5,48,54,50,-2,2,-67,-115,7158.53089827413,1642855922819,"How many <b class=""r"">red</b> marbles did you actually draw (before any changes)?",-1,-1,1642855894361,0,0.8333333333333334
sona-36244,linear,over,trial,79,receiver,100,0.5,5,14,15,12,-2,0,-61,-123,5151.128064044203,1642855997111,"How many <b class=""r"">red</b> marbles did you actually draw (before any changes)?",-1,-1,1642855976346,0,0.8333333333333334
sona-36244,linear,over,trial,81,receiver,100,0.5,5,55,63,59,-4,4,-65,-131,5978.997823107624,1642856055607,"How many <b class=""r"">red</b> marbles did you actually draw (before any changes)?",-1,-1,1642856042906,0,0.8333333333333334
sona-36244,linear,over,trial,83,receiver,100,0.5,5,46,50,45,-1,0,-66,-135,6964.000016090033,1642856077861,"How many <b class=""r"">red</b> marbles did you actually draw (before any changes)?",-1,-1,1642856042906,0,0.8333333333333334
sona-36244,linear,over,trial,85,receiver,100,0.5,5,56,59,61,-5,5,-71,-135,5612.484236521088,1642856104310,"How many <b class=""r"">red</b> marbles did you actually draw (before any changes)?",-1,-1,1642856104310,0,0.8333333333333334
sona-36244,linear,over,trial,87,receiver,100,0.5,5,61,64,61,0,0,-71,-150,5430.336423624707,1642856145660,"How many <b class=""r"">red</b> marbles did you actually draw (before any changes)?",-1,-1,1642856104310,0,0.8333333333333334
sona-36244,linear,over,trial,89,receiver,100,0.5,5,74,78,73,-1,0,-72,-151,6403.275825844659,1642856163394,"How many <b class=""r"">red</b> marbles did you actually draw (before any changes)?",-1,-1,1642856104310,0,0.8333333333333334
sona-36244,linear,over,trial,91,receiver,100,0.5,5,35,39,36,-1,1,-73,-153,7398.667514368685,1642856187368,"How many <b class=""r"">red</b> marbles did you actually draw (before any changes)?",-1,-1,1642856172372,0,0.8333333333333334
sona-36244,linear,over,trial,93,receiver,100,0.5,5,53,56,52,-1,0,-74,-154,5302.489784847095,1642856204897,"How many <b class=""r"">red</b> marbles did you actually draw (before any changes)?",-1,-1,1642856172372,0,0.8333333333333334
sona-36244,linear,over,trial,95,receiver,100,0.5,5,51,55,51,0,0,-74,-158,6677.593103127361,1642856230267,"How many <b class=""r"">red</b> marbles did you actually draw (before any changes)?",-1,-1,1642856230267,0,0.8333333333333334
sona-36244,linear,over,trial,97,receiver,100,0.5,5,61,69,62,-1,1,-75,-164,5502.861234942045,1642856252091,"How many <b class=""r"">red</b> marbles did you actually draw (before any changes)?",-1,-1,1642856230267,0,0.8333333333333334
sona-36244,linear,over,trial,99,receiver,100,0.5,5,83,88,83,0,0,-75,-167,6454.434303717271,1642856270024,"How many <b class=""r"">red</b> marbles did you actually draw (before any changes)?",-1,-1,1642856230267,0,0.8333333333333334
sona-36182,unif,over,trial,1,receiver,100,0.5,5,15,22,24,-9,9,-9,9,6609.489301173322,1642281280363,"How many <b class=""r"">red</b> marbles did your opponent report drawing?",-1,-1,1642281248409,0,0.9166666666666666
sona-36182,unif,over,trial,3,receiver,100,0.5,5,68,71,66,-2,0,-8,6,5912.230100965827,1642281316434,"How many <b class=""r"">red</b> marbles did your opponent report drawing?",-1,-1,1642281248409,0,0.9166666666666666
sona-36182,unif,over,trial,5,receiver,100,0.5,5,65,72,66,-1,1,-9,6,5940.373701104187,1642281343220,"How many <b class=""r"">red</b> marbles did your opponent report drawing?",72,72,1642281343220,0,0.9166666666666666
sona-36182,unif,over,trial,7,receiver,100,0.5,5,61,63,60,-1,0,-10,6,5184.578837743598,1642281380726,"How many <b class=""r"">red</b> marbles did your opponent report drawing?",-1,-1,1642281343220,0,0.9166666666666666
sona-36182,unif,over,trial,9,receiver,100,0.5,5,30,38,32,-2,2,-11,7,5332.134124506638,1642281407267,"How many <b class=""r"">red</b> marbles did your opponent report drawing?",-1,-1,1642281343220,0,0.9166666666666666
sona-36182,unif,over,trial,11,receiver,100,0.5,5,73,76,73,0,0,-11,5,5836.566937054584,1642281437279,"How many <b class=""r"">red</b> marbles did your opponent report drawing?",-1,-1,1642281422555,0,0.9166666666666666
sona-36182,unif,over,trial,13,receiver,100,0.5,5,42,46,44,-2,2,-13,1,6682.702125756772,1642281461538,"How many <b class=""r"">red</b> marbles did your opponent report drawing?",-1,-1,1642281422555,0,0.9166666666666666
sona-36182,unif,over,trial,15,receiver,100,0.5,5,51,54,53,-2,2,-13,1,5993.8661944652395,1642281482752,"How many <b class=""r"">red</b> marbles did your opponent report drawing?",-1,-1,1642281482752,0,0.9166666666666666
sona-36182,unif,over,trial,17,receiver,100,0.5,5,36,43,40,-4,4,-14,2,6841.95644659314,1642281513081,"How many <b class=""r"">red</b> marbles did your opponent report drawing?",-1,-1,1642281482752,0,0.9166666666666666
sona-36182,unif,over,trial,19,receiver,100,0.5,5,61,66,58,-3,0,-17,2,5352.538467585722,1642281542697,"How many <b class=""r"">red</b> marbles did your opponent report drawing?",-1,-1,1642281482752,0,0.9166666666666666
sona-36182,unif,over,trial,21,receiver,100,0.5,5,26,30,28,-2,2,-1,-14,7488.453642972085,1642281585831,"How many <b class=""r"">red</b> marbles did your opponent report drawing?",-1,-1,1642281568252,0,0.9166666666666666
sona-36182,unif,over,trial,23,receiver,100,0.5,5,40,51,45,-5,5,-6,-13,6526.652184305374,1642281606863,"How many <b class=""r"">red</b> marbles did your opponent report drawing?",51,51,1642281606863,0,0.9166666666666666
sona-36182,unif,over,trial,25,receiver,100,0.5,5,60,66,64,-4,4,-5,-14,5431.1434936483965,1642281636753,"How many <b class=""r"">red</b> marbles did your opponent report drawing?",66,66,1642281636753,0,0.9166666666666666
sona-36182,unif,over,trial,27,receiver,100,0.5,5,51,55,52,-1,1,-6,-18,5298.8322982410145,1642281661320,"How many <b class=""r"">red</b> marbles did your opponent report drawing?",-1,-1,1642281636753,0,0.9166666666666666
sona-36182,unif,over,trial,29,receiver,100,0.5,5,78,85,79,-1,1,1,-25,5429.041230554387,1642281690053,"How many <b class=""r"">red</b> marbles did your opponent report drawing?",-1,-1,1642281636753,0,0.9166666666666666
sona-36182,unif,over,trial,31,receiver,100,0.5,5,46,52,46,0,0,1,-25,5876.689617794909,1642281721924,"How many <b class=""r"">red</b> marbles did your opponent report drawing?",-1,-1,1642281703946,0,0.9166666666666666
sona-36182,unif,over,trial,33,receiver,100,0.5,5,46,50,47,-1,1,0,-29,6114.546538301311,1642281760346,"How many <b class=""r"">red</b> marbles did your opponent report drawing?",-1,-1,1642281703946,0,0.9166666666666666
sona-36182,unif,over,trial,35,receiver,100,0.5,5,83,90,80,-3,0,-3,-45,5250.315139967401,1642281784962,"How many <b class=""r"">red</b> marbles did your opponent report drawing?",-1,-1,1642281784962,0,0.9166666666666666
sona-36182,unif,over,trial,37,receiver,100,0.5,5,28,35,33,-5,5,-5,-43,5606.304852418462,1642281824767,"How many <b class=""r"">red</b> marbles did your opponent report drawing?",-1,-1,1642281784962,0,0.9166666666666666
sona-36182,unif,over,trial,39,receiver,100,0.5,5,34,36,40,-6,6,-11,-50,5127.607283357918,1642281849345,"How many <b class=""r"">red</b> marbles did your opponent report drawing?",-1,-1,1642281784962,0,0.9166666666666666
sona-36182,unif,over,trial,41,receiver,100,0.5,5,58,60,57,-1,0,-12,-51,6131.15021713508,1642281887490,"How many <b class=""r"">red</b> marbles did your opponent report drawing?",60,60,1642281887490,0,0.9166666666666666
sona-36182,unif,over,trial,43,receiver,100,0.5,5,72,75,71,-1,0,-13,-69,7491.336934270378,1642281920597,"How many <b class=""r"">red</b> marbles did your opponent report drawing?",-1,-1,1642281887490,0,0.9166666666666666
sona-36182,unif,over,trial,45,receiver,100,0.5,5,76,79,75,-1,0,-13,-70,5634.837625514221,1642281944637,"How many <b class=""r"">red</b> marbles did your opponent report drawing?",-1,-1,1642281944637,0,0.9166666666666666
sona-36182,unif,over,trial,47,receiver,100,0.5,5,51,55,53,-2,2,-15,-88,6062.648478808998,1642281975357,"How many <b class=""r"">red</b> marbles did your opponent report drawing?",-1,-1,1642281944637,0,0.9166666666666666
sona-36182,unif,over,trial,49,receiver,100,0.5,5,79,83,79,0,0,-8,-95,6803.937898965764,1642282003558,"How many <b class=""r"">red</b> marbles did your opponent report drawing?",-1,-1,1642281944637,0,0.9166666666666666
sona-36182,unif,over,trial,51,receiver,100,0.5,5,52,60,57,-5,5,-13,-96,6430.873046232899,1642282027435,"How many <b class=""r"">red</b> marbles did your opponent report drawing?",-1,-1,1642282011371,0,0.9166666666666666
sona-36182,unif,over,trial,53,receiver,100,0.5,5,25,30,25,0,0,-8,-101,7454.705545167268,1642282058376,"How many <b class=""r"">red</b> marbles did your opponent report drawing?",-1,-1,1642282011371,0,0.9166666666666666
sona-36182,unif,over,trial,55,receiver,100,0.5,5,46,47,43,-3,0,-11,-108,5299.410779417167,1642282081313,"How many <b class=""r"">red</b> marbles did your opponent report drawing?",-1,-1,1642282081313,0,0.9166666666666666
sona-36182,unif,over,trial,57,receiver,100,0.5,5,62,67,65,-3,3,-14,-110,5562.776714507414,1642282120052,"How many <b class=""r"">red</b> marbles did you actually draw (before any changes)?",-1,-1,1642282102902,0,0.9166666666666666
sona-36182,unif,over,trial,59,receiver,100,0.5,5,66,69,66,0,0,0,-124,7374.520456593924,1642282148816,"How many <b class=""r"">red</b> marbles did you actually draw (before any changes)?",-1,-1,1642282102902,0,0.9166666666666666
sona-36182,unif,over,trial,61,receiver,100,0.5,5,79,82,78,-1,0,-1,-131,5973.559960365696,1642282174465,"How many <b class=""r"">red</b> marbles did you actually draw (before any changes)?",-1,-1,1642282157602,0,0.9166666666666666
sona-36182,unif,over,trial,63,receiver,100,0.5,5,67,72,68,-1,1,3,-135,5795.473064566876,1642282200501,"How many <b class=""r"">red</b> marbles did you actually draw (before any changes)?",-1,-1,1642282157602,0,0.9166666666666666
sona-36182,unif,over,trial,65,receiver,100,0.5,5,49,55,50,-1,1,10,-142,7271.129276235853,1642282226355,"How many <b class=""r"">red</b> marbles did you actually draw (before any changes)?",-1,-1,1642282226355,0,0.9166666666666666
sona-36182,unif,over,trial,67,receiver,100,0.5,5,76,83,79,-3,3,7,-144,7402.051829351447,1642282250080,"How many <b class=""r"">red</b> marbles did you actually draw (before any changes)?",-1,-1,1642282226355,0,0.9166666666666666
sona-36182,unif,over,trial,69,receiver,100,0.5,5,44,47,45,-1,1,10,-147,6184.559864525542,1642282274631,"How many <b class=""r"">red</b> marbles did you actually draw (before any changes)?",-1,-1,1642282226355,0,0.9166666666666666
sona-36182,unif,over,trial,71,receiver,100,0.5,5,73,78,75,-2,2,8,-157,5621.170583925799,1642282299951,"How many <b class=""r"">red</b> marbles did you actually draw (before any changes)?",-1,-1,1642282288356,0,0.9166666666666666
sona-36182,unif,over,trial,73,receiver,100,0.5,5,32,35,31,-1,0,7,-161,5621.639031009896,1642282319943,"How many <b class=""r"">red</b> marbles did you actually draw (before any changes)?",-1,-1,1642282288356,0,0.9166666666666666
sona-36182,unif,over,trial,75,receiver,100,0.5,5,55,62,58,-3,3,4,-159,5279.95044931805,1642282339333,"How many <b class=""r"">red</b> marbles did you actually draw (before any changes)?",-1,-1,1642282339333,0,0.9166666666666666
sona-36182,unif,over,trial,77,receiver,100,0.5,5,18,22,20,-2,2,2,-169,6026.852935911493,1642282367052,"How many <b class=""r"">red</b> marbles did your opponent report drawing?",22,22,1642282367052,0,0.9166666666666666
sona-36182,unif,over,trial,79,receiver,100,0.5,5,61,61,58,-3,0,-1,-184,5841.98176712356,1642282396124,"How many <b class=""r"">red</b> marbles did your opponent report drawing?",-1,-1,1642282367052,0,0.9166666666666666
sona-36182,unif,over,trial,81,receiver,100,0.5,5,68,72,70,-2,2,-3,-184,6640.918523730423,1642282418231,"How many <b class=""r"">red</b> marbles did your opponent report drawing?",72,72,1642282418231,0,0.9166666666666666
sona-36182,unif,over,trial,83,receiver,100,0.5,5,77,80,76,-1,0,-4,-196,5910.310295319732,1642282445553,"How many <b class=""r"">red</b> marbles did your opponent report drawing?",-1,-1,1642282418231,0,0.9166666666666666
sona-36182,unif,over,trial,85,receiver,100,0.5,5,48,52,50,-2,2,-6,-204,5892.313795171767,1642282471999,"How many <b class=""r"">red</b> marbles did your opponent report drawing?",-1,-1,1642282471999,0,0.9166666666666666
sona-36182,unif,over,trial,87,receiver,100,0.5,5,43,45,42,-1,0,-7,-214,5227.658219077394,1642282494574,"How many <b class=""r"">red</b> marbles did your opponent report drawing?",45,45,1642282494574,0,0.9166666666666666
sona-36182,unif,over,trial,89,receiver,100,0.5,5,56,62,60,-4,4,-5,-216,7187.130846203502,1642282534461,"How many <b class=""r"">red</b> marbles did your opponent report drawing?",62,62,1642282534461,0,0.9166666666666666
sona-36182,unif,over,trial,91,receiver,100,0.5,5,83,89,85,-2,2,-7,-224,5182.258653072415,1642282563460,"How many <b class=""r"">red</b> marbles did your opponent report drawing?",-1,-1,1642282552189,0,0.9166666666666666
sona-36182,unif,over,trial,93,receiver,100,0.5,5,48,53,50,-2,2,-9,-225,7114.506924051958,1642282582348,"How many <b class=""r"">red</b> marbles did your opponent report drawing?",-1,-1,1642282552189,0,0.9166666666666666
sona-36182,unif,over,trial,95,receiver,100,0.5,5,84,90,88,-4,4,-13,-231,6523.185472364067,1642282604919,"How many <b class=""r"">red</b> marbles did your opponent report drawing?",-1,-1,1642282604919,0,0.9166666666666666
sona-36182,unif,over,trial,97,receiver,100,0.5,5,46,49,47,-1,1,-14,-232,5926.228337048025,1642282624784,"How many <b class=""r"">red</b> marbles did your opponent report drawing?",-1,-1,1642282604919,0,0.9166666666666666
sona-36182,unif,over,trial,99,receiver,100,0.5,5,35,40,40,-5,5,-19,-228,7149.681470074708,1642282647156,"How many <b class=""r"">red</b> marbles did your opponent report drawing?",-1,-1,1642282604919,0,0.9166666666666666
sona-38036,linear,over,trial,2,receiver,100,0.5,5,58,63,66,-8,8,-8,3,6955.81617833792,1642999568203,"How many <b class=""r"">red</b> marbles did your opponent report drawing?",-1,-1,1642999443769,0,0.9166666666666666
sona-38036,linear,over,trial,4,receiver,100,0.5,5,37,40,45,-8,8,-16,3,5555.688249132106,1642999635417,"How many <b class=""r"">red</b> marbles did your opponent report drawing?",-1,-1,1642999443769,0,0.9166666666666666
sona-38036,linear,over,trial,6,receiver,100,0.5,5,29,32,32,-3,3,-18,5,5353.8483233831075,1642999706231,"How many <b class=""r"">red</b> marbles did your opponent report drawing?",-1,-1,1642999692158,0,0.9166666666666666
sona-38036,linear,over,trial,8,receiver,100,0.5,5,75,78,80,-5,5,-23,5,7057.599770574496,1642999735115,"How many <b class=""r"">red</b> marbles did your opponent report drawing?",-1,-1,1642999692158,0,0.9166666666666666
sona-38036,linear,over,trial,10,receiver,100,0.5,5,47,49,49,-2,2,-25,3,6516.971358025979,1642999825355,"How many <b class=""r"">red</b> marbles did your opponent report drawing?",-1,-1,1642999825356,0,0.9166666666666666
sona-38036,linear,over,trial,12,receiver,100,0.5,5,62,67,60,-2,0,-27,-2,5210.064648618236,1642999844251,"How many <b class=""r"">red</b> marbles did your opponent report drawing?",-1,-1,1642999825356,0,0.9166666666666666
sona-38036,linear,over,trial,14,receiver,100,0.5,5,45,50,51,-6,6,-33,-3,6135.886938953918,1642999862774,"How many <b class=""r"">red</b> marbles did your opponent report drawing?",-1,-1,1642999825356,0,0.9166666666666666
sona-38036,linear,over,trial,16,receiver,100,0.5,5,61,70,71,-10,10,-43,4,6521.8351776375275,1642999885234,"How many <b class=""r"">red</b> marbles did your opponent report drawing?",-1,-1,1642999870174,0,0.9166666666666666
sona-38036,linear,over,trial,18,receiver,100,0.5,5,22,25,26,-4,4,-47,6,5281.457091631899,1642999908571,"How many <b class=""r"">red</b> marbles did your opponent report drawing?",-1,-1,1642999870174,0,0.9166666666666666
sona-38036,linear,over,trial,20,receiver,100,0.5,5,43,49,50,-7,7,-54,5,7456.150618171288,1642999930192,"How many <b class=""r"">red</b> marbles did your opponent report drawing?",-1,-1,1642999930192,0,0.9166666666666666
sona-38036,linear,over,trial,22,receiver,100,0.5,5,23,29,30,-7,7,-61,5,5891.076924418881,1643000049167,"How many <b class=""r"">red</b> marbles did your opponent report drawing?",-1,-1,1642999930192,0,0.9166666666666666
sona-38036,linear,over,trial,24,receiver,100,0.5,5,41,48,49,-8,8,-64,8,6095.493440628627,1643000243705,"How many <b class=""r"">red</b> marbles did your opponent report drawing?",-1,-1,1642999930192,0,0.9166666666666666
sona-38036,linear,over,trial,26,receiver,100,0.5,5,60,65,66,-6,6,-70,6,6124.901828012506,1643000308629,"How many <b class=""r"">red</b> marbles did your opponent report drawing?",-1,-1,1643000294623,0,0.9166666666666666
sona-38036,linear,over,trial,28,receiver,100,0.5,5,89,94,99,-10,10,-71,7,7374.193660914588,1643000397036,"How many <b class=""r"">red</b> marbles did your opponent report drawing?",-1,-1,1643000294623,0,0.9166666666666666
sona-38036,linear,over,trial,30,receiver,100,0.5,5,53,61,62,-9,9,-80,0,6522.94502293114,1643000481980,"How many <b class=""r"">red</b> marbles did your opponent report drawing?",-1,-1,1643000481981,0,0.9166666666666666
sona-38036,linear,over,trial,32,receiver,100,0.5,5,25,32,31,-6,6,-86,-1,5656.981279414799,1643000508597,"How many <b class=""r"">red</b> marbles did your opponent report drawing?",-1,-1,1643000481981,0,0.9166666666666666
sona-38036,linear,over,trial,34,receiver,100,0.5,5,36,50,49,-13,13,-99,6,6238.240591254604,1643000527518,"How many <b class=""r"">red</b> marbles did your opponent report drawing?",50,50,1643000527518,0,0.9166666666666666
sona-38036,linear,over,trial,36,receiver,100,0.5,5,68,73,74,-6,6,-105,5,5523.421057862879,1643000556365,"How many <b class=""r"">red</b> marbles did your opponent report drawing?",-1,-1,1643000544897,0,0.9166666666666666
sona-38036,linear,over,trial,38,receiver,100,0.5,5,34,41,42,-8,8,-113,7,5406.694894848091,1643000576565,"How many <b class=""r"">red</b> marbles did your opponent report drawing?",-1,-1,1643000544897,0,0.9166666666666666
sona-38036,linear,over,trial,40,receiver,100,0.5,5,53,56,55,-2,2,-115,1,5432.124166749121,1643000594016,"How many <b class=""r"">red</b> marbles did your opponent report drawing?",56,55,1643000594016,0,0.9166666666666666
sona-38036,linear,over,trial,42,receiver,100,0.5,5,24,29,22,-2,0,-117,-2,5510.3255583112,1643000623154,"How many <b class=""r"">red</b> marbles did your opponent report drawing?",-1,-1,1643000594016,0,0.9166666666666666
sona-38036,linear,over,trial,44,receiver,100,0.5,5,57,63,66,-9,9,-126,-4,6348.728051528009,1643000642447,"How many <b class=""r"">red</b> marbles did your opponent report drawing?",-1,-1,1643000594016,0,0.9166666666666666
sona-38036,linear,over,trial,46,receiver,100,0.5,5,25,27,28,-3,3,-129,-6,6502.235726281628,1643000665776,"How many <b class=""r"">red</b> marbles did your opponent report drawing?",27,27,1643000665777,0,0.9166666666666666
sona-38036,linear,over,trial,48,receiver,100,0.5,5,45,49,50,-5,5,-134,-6,5362.550062668663,1643000688334,"How many <b class=""r"">red</b> marbles did your opponent report drawing?",-1,-1,1643000665777,0,0.9166666666666666
sona-38036,linear,over,trial,50,receiver,100,0.5,5,63,68,67,-4,4,-138,-8,7450.568201712714,1643000707182,"How many <b class=""r"">red</b> marbles did your opponent report drawing?",-1,-1,1643000707183,0,0.9166666666666666
sona-38036,linear,over,trial,52,receiver,100,0.5,5,59,64,64,-5,5,-143,-13,6442.173758177803,1643000727727,"How many <b class=""r"">red</b> marbles did your opponent report drawing?",-1,-1,1643000707183,0,0.9166666666666666
sona-38036,linear,over,trial,54,receiver,100,0.5,5,58,68,66,-8,8,-151,-10,5979.414137371417,1643000745374,"How many <b class=""r"">red</b> marbles did your opponent report drawing?",-1,-1,1643000707183,0,0.9166666666666666
sona-38036,linear,over,trial,56,receiver,100,0.5,5,37,41,44,-7,7,-158,-9,6456.62500590745,1643000767467,"How many <b class=""r"">red</b> marbles did your opponent report drawing?",-1,-1,1643000755234,0,0.9166666666666666
sona-38036,linear,over,trial,58,receiver,100,0.5,5,23,25,22,-1,0,-159,-13,6676.318783627385,1643000800032,"How many <b class=""r"">red</b> marbles did you actually draw (before any changes)?",-1,-1,1643000780579,0,0.9166666666666666
sona-38036,linear,over,trial,60,receiver,100,0.5,5,47,54,55,-8,8,-167,-9,6705.538868669966,1643000821122,"How many <b class=""r"">red</b> marbles did you actually draw (before any changes)?",-1,-1,1643000821123,0,0.9166666666666666
sona-38036,linear,over,trial,62,receiver,100,0.5,5,49,53,54,-5,5,-172,-6,6939.198141117709,1643000847769,"How many <b class=""r"">red</b> marbles did your opponent report drawing?",53,54,1643000847769,0,0.9166666666666666
sona-38036,linear,over,trial,64,receiver,100,0.5,5,31,33,33,-2,2,-172,-6,5668.683686513114,1643000895525,"How many <b class=""r"">red</b> marbles did you actually draw (before any changes)?",-1,-1,1643000875761,0,0.9166666666666666
sona-38036,linear,over,trial,66,receiver,100,0.5,5,37,45,40,-3,3,-175,-8,5778.317740919958,1643000931528,"How many <b class=""r"">red</b> marbles did you actually draw (before any changes)?",-1,-1,1643000914541,0,0.9166666666666666
sona-38036,linear,over,trial,68,receiver,100,0.5,5,24,31,29,-5,5,-166,-17,5692.7578967962345,1643001049018,"How many <b class=""r"">red</b> marbles did you actually draw (before any changes)?",-1,-1,1643001034046,0,0.9166666666666666
sona-38036,linear,over,trial,70,receiver,100,0.5,5,57,60,61,-4,4,-170,-16,5447.482145342543,1643001126101,"How many <b class=""r"">red</b> marbles did you actually draw (before any changes)?",-1,-1,1643001126101,0,0.9166666666666666
sona-38036,linear,over,trial,72,receiver,100,0.5,5,67,70,72,-5,5,-169,-17,5352.229839239395,1643001351368,"How many <b class=""r"">red</b> marbles did you actually draw (before any changes)?",-1,-1,1643001220146,0,0.9166666666666666
sona-38036,linear,over,trial,74,receiver,100,0.5,5,40,44,45,-5,5,-160,-26,6859.296339721452,1643001504722,"How many <b class=""r"">red</b> marbles did you actually draw (before any changes)?",-1,-1,1643001220146,0,0.9166666666666666
sona-38036,linear,over,trial,76,receiver,100,0.5,5,35,40,41,-6,6,-166,-38,5337.62274301582,1643001617724,"How many <b class=""r"">red</b> marbles did you actually draw (before any changes)?",-1,-1,1643001607973,0,0.9166666666666666
sona-38036,linear,over,trial,78,receiver,100,0.5,5,73,77,76,-3,3,-144,-60,6223.662649425636,1643001823354,"How many <b class=""r"">red</b> marbles did you actually draw (before any changes)?",-1,-1,1643001790938,0,0.9166666666666666
sona-38036,linear,over,trial,80,receiver,100,0.5,5,40,44,45,-5,5,-142,-62,5703.151153598957,1643001899824,"How many <b class=""r"">red</b> marbles did you actually draw (before any changes)?",-1,-1,1643001899824,0,0.9166666666666666
sona-38036,linear,over,trial,82,receiver,100,0.5,5,40,45,44,-4,4,-146,-81,7106.976443408069,1643002093059,"How many <b class=""r"">red</b> marbles did your opponent report drawing?",45,45,1643002093059,0,0.9166666666666666
sona-38036,linear,over,trial,84,receiver,100,0.5,5,45,49,50,-5,5,-151,-84,5587.52294088784,1643002123726,"How many <b class=""r"">red</b> marbles did your opponent report drawing?",-1,-1,1643002093059,0,0.9166666666666666
sona-38036,linear,over,trial,86,receiver,100,0.5,5,48,56,61,-13,13,-164,-76,5463.378140050511,1643002161016,"How many <b class=""r"">red</b> marbles did your opponent report drawing?",-1,-1,1643002145311,0,0.9166666666666666
sona-38036,linear,over,trial,88,receiver,100,0.5,5,84,87,90,-6,6,-170,-76,5157.745484172827,1643002189798,"How many <b class=""r"">red</b> marbles did your opponent report drawing?",-1,-1,1643002145311,0,0.9166666666666666
sona-38036,linear,over,trial,90,receiver,100,0.5,5,58,60,65,-7,7,-177,-96,5673.683920713049,1643002308836,"How many <b class=""r"">red</b> marbles did your opponent report drawing?",-1,-1,1643002308837,0,0.9166666666666666
sona-38036,linear,over,trial,92,receiver,100,0.5,5,46,49,54,-8,8,-185,-116,6618.2610109002435,1643002440582,"How many <b class=""r"">red</b> marbles did your opponent report drawing?",-1,-1,1643002308837,0,0.9166666666666666
sona-38036,linear,over,trial,94,receiver,100,0.5,5,47,50,55,-8,8,-170,-131,6183.971988989224,1643002576009,"How many <b class=""r"">red</b> marbles did your opponent report drawing?",-1,-1,1643002308837,0,0.9166666666666666
sona-38036,linear,over,trial,98,receiver,100,0.5,5,49,56,60,-11,11,-163,-173,5203.038315338677,1643003056642,"How many <b class=""r"">red</b> marbles did your opponent report drawing?",-1,-1,1643002831021,0,0.9166666666666666
sona-38036,linear,over,trial,100,receiver,100,0.5,5,59,62,62,-3,3,-166,-200,5887.394120195953,1643003378382,"How many <b class=""r"">red</b> marbles did your opponent report drawing?",-1,-1,1643003378383,0,0.9166666666666666
sona-32196,unif,over,trial,1,receiver,100,0.5,5,15,19,19,-4,4,-4,4,7172.661520853541,1642306331785,"How many <b class=""r"">red</b> marbles did your opponent report drawing?",19,19,1642306331785,0,0.9166666666666666
sona-32196,unif,over,trial,3,receiver,100,0.5,5,16,22,22,-6,6,18,-18,6487.662309468864,1642306410256,"How many <b class=""r"">red</b> marbles did your opponent report drawing?",-1,-1,1642306331785,0,0.9166666666666666
sona-32196,unif,over,trial,5,receiver,100,0.5,5,57,62,62,-5,5,13,-49,6097.851382023422,1642306507228,"How many <b class=""r"">red</b> marbles did your opponent report drawing?",-1,-1,1642306507228,0,0.9166666666666666
sona-32196,unif,over,trial,7,receiver,100,0.5,5,40,42,42,-2,2,11,-61,6315.568574316738,1642306609669,"How many <b class=""r"">red</b> marbles did your opponent report drawing?",-1,-1,1642306507228,0,0.9166666666666666
sona-32196,unif,over,trial,9,receiver,100,0.5,5,85,91,91,-6,6,12,-62,5530.5444161577725,1642306659291,"How many <b class=""r"">red</b> marbles did your opponent report drawing?",-1,-1,1642306507228,0,0.9166666666666666
sona-32196,unif,over,trial,11,receiver,100,0.5,5,29,34,34,-5,5,7,-60,7181.651764138278,1642306689409,"How many <b class=""r"">red</b> marbles did your opponent report drawing?",-1,-1,1642306675869,0,0.9166666666666666
sona-32196,unif,over,trial,13,receiver,100,0.5,5,57,63,63,-6,6,1,-62,5957.980804177279,1642306712670,"How many <b class=""r"">red</b> marbles did your opponent report drawing?",-1,-1,1642306675869,0,0.9166666666666666
sona-32196,unif,over,trial,15,receiver,100,0.5,5,54,58,58,-4,4,-3,-62,5516.821964826278,1642306746785,"How many <b class=""r"">red</b> marbles did your opponent report drawing?",-1,-1,1642306746785,0,0.9166666666666666
sona-32196,unif,over,trial,17,receiver,100,0.5,5,63,67,67,-4,4,-7,-62,5587.1936714142375,1642306779584,"How many <b class=""r"">red</b> marbles did you actually draw (before any changes)?",-1,-1,1642306756578,0,0.9166666666666666
sona-32196,unif,over,trial,19,receiver,100,0.5,5,33,41,41,-8,8,-15,-58,7050.962392384722,1642306805676,"How many <b class=""r"">red</b> marbles did you actually draw (before any changes)?",-1,-1,1642306756578,0,0.9166666666666666
sona-32196,unif,over,trial,21,receiver,100,0.5,5,56,60,60,-4,4,-19,-73,6117.897768776014,1642306848051,"How many <b class=""r"">red</b> marbles did you actually draw (before any changes)?",-1,-1,1642306834915,0,0.9166666666666666
sona-32196,unif,over,trial,23,receiver,100,0.5,5,23,27,27,-4,4,-17,-75,5978.227436523821,1642306892037,"How many <b class=""r"">red</b> marbles did your opponent report drawing?",27,27,1642306892038,0,0.9166666666666666
sona-32196,unif,over,trial,25,receiver,100,0.5,5,50,53,53,-3,3,-20,-72,6442.380145186658,1642306926198,"How many <b class=""r"">red</b> marbles did your opponent report drawing?",-1,-1,1642306926198,0,0.9166666666666666
sona-32196,unif,over,trial,27,receiver,100,0.5,5,52,56,56,-4,4,-24,-79,5953.913646319882,1642306956686,"How many <b class=""r"">red</b> marbles did your opponent report drawing?",-1,-1,1642306926198,0,0.9166666666666666
sona-32196,unif,over,trial,29,receiver,100,0.5,5,34,38,38,-4,4,-9,-94,6300.410518089044,1642306999318,"How many <b class=""r"">red</b> marbles did your opponent report drawing?",-1,-1,1642306926198,0,0.9166666666666666
sona-32196,unif,over,trial,31,receiver,100,0.5,5,56,60,60,-4,4,-2,-101,5867.562140894981,1642307037994,"How many <b class=""r"">red</b> marbles did your opponent report drawing?",-1,-1,1642307026228,0,0.9166666666666666
sona-32196,unif,over,trial,33,receiver,100,0.5,5,34,40,40,-6,6,-8,-135,6416.044736190966,1642307098418,"How many <b class=""r"">red</b> marbles did your opponent report drawing?",-1,-1,1642307026228,0,0.9166666666666666
sona-32196,unif,over,trial,35,receiver,100,0.5,5,59,64,64,-5,5,-13,-157,6953.781315639541,1642307136696,"How many <b class=""r"">red</b> marbles did your opponent report drawing?",-1,-1,1642307136696,0,0.9166666666666666
sona-32196,unif,over,trial,37,receiver,100,0.5,5,52,56,56,-4,4,-1,-169,6572.344027921083,1642307182135,"How many <b class=""r"">red</b> marbles did your opponent report drawing?",-1,-1,1642307136696,0,0.9166666666666666
sona-32196,unif,over,trial,39,receiver,100,0.5,5,50,53,53,-3,3,-4,-208,6952.30582693963,1642307246523,"How many <b class=""r"">red</b> marbles did your opponent report drawing?",53,53,1642307246523,0,0.9166666666666666
sona-32196,unif,over,trial,41,receiver,100,0.5,5,36,38,38,-2,2,-6,-208,5757.803026256406,1642307273466,"How many <b class=""r"">red</b> marbles did your opponent report drawing?",-1,-1,1642307261786,0,0.9166666666666666
sona-32196,unif,over,trial,43,receiver,100,0.5,5,18,26,26,-8,8,-14,-205,7346.465133180405,1642307293735,"How many <b class=""r"">red</b> marbles did your opponent report drawing?",-1,-1,1642307261786,0,0.9166666666666666
sona-32196,unif,over,trial,45,receiver,100,0.5,5,48,53,53,-5,5,-19,-201,5191.766768385689,1642307322317,"How many <b class=""r"">red</b> marbles did your opponent report drawing?",-1,-1,1642307322318,0,0.9166666666666666
sona-32196,unif,over,trial,47,receiver,100,0.5,5,90,91,50,-40,0,-59,-206,5253.695499705486,1642307354385,"How many <b class=""r"">red</b> marbles did you actually draw (before any changes)?",-1,-1,1642307333152,0,0.9166666666666666
sona-32196,unif,over,trial,49,receiver,100,0.5,5,79,86,10,-69,0,-128,-213,5294.116293304176,1642307382966,"How many <b class=""r"">red</b> marbles did you actually draw (before any changes)?",-1,-1,1642307362349,0,0.9166666666666666
sona-32196,unif,over,trial,51,receiver,100,0.5,5,44,55,55,-11,11,-139,-208,5442.595788184415,1642307401514,"How many <b class=""r"">red</b> marbles did you actually draw (before any changes)?",-1,-1,1642307391031,0,0.9166666666666666
sona-32196,unif,over,trial,53,receiver,100,0.5,5,69,77,77,-8,8,-147,-205,7438.5540062374,1642307418637,"How many <b class=""r"">red</b> marbles did you actually draw (before any changes)?",-1,-1,1642307391031,0,0.9166666666666666
sona-32196,unif,over,trial,55,receiver,100,0.5,5,77,82,82,-5,5,-152,-204,5875.566042165825,1642307437083,"How many <b class=""r"">red</b> marbles did you actually draw (before any changes)?",-1,-1,1642307437083,0,0.9166666666666666
sona-32196,unif,over,trial,57,receiver,100,0.5,5,18,22,22,-4,4,-156,-207,5841.550673420885,1642307456739,"How many <b class=""r"">red</b> marbles did you actually draw (before any changes)?",-1,-1,1642307437083,0,0.9166666666666666
sona-32196,unif,over,trial,59,receiver,100,0.5,5,30,32,32,-2,2,-158,-211,5334.542518015151,1642307474432,"How many <b class=""r"">red</b> marbles did your opponent report drawing?",32,32,1642307474432,0,0.9166666666666666
sona-32196,unif,over,trial,61,receiver,100,0.5,5,61,67,67,-6,6,-164,-209,6436.497496901034,1642307498053,"How many <b class=""r"">red</b> marbles did your opponent report drawing?",-1,-1,1642307487345,0,0.9166666666666666
sona-32196,unif,over,trial,63,receiver,100,0.5,5,71,76,76,-5,5,-169,-207,5256.990037974156,1642307514195,"How many <b class=""r"">red</b> marbles did your opponent report drawing?",-1,-1,1642307487345,0,0.9166666666666666
sona-32196,unif,over,trial,65,receiver,100,0.5,5,46,51,51,-5,5,-174,-206,7394.20454099107,1642307532949,"How many <b class=""r"">red</b> marbles did your opponent report drawing?",-1,-1,1642307532949,0,0.9166666666666666
sona-32196,unif,over,trial,67,receiver,100,0.5,5,11,16,16,-5,5,-179,-205,6732.94954434465,1642307556358,"How many <b class=""r"">red</b> marbles did your opponent report drawing?",-1,-1,1642307532949,0,0.9166666666666666
sona-32196,unif,over,trial,69,receiver,100,0.5,5,37,38,38,-1,1,-180,-208,5968.646317711249,1642307574328,"How many <b class=""r"">red</b> marbles did your opponent report drawing?",-1,-1,1642307532949,0,0.9166666666666666
sona-32196,unif,over,trial,71,receiver,100,0.5,5,26,29,29,-3,3,-183,-209,5321.421316641947,1642307593149,"How many <b class=""r"">red</b> marbles did your opponent report drawing?",-1,-1,1642307582183,0,0.9166666666666666
sona-32196,unif,over,trial,73,receiver,100,0.5,5,38,45,45,-7,7,-190,-207,6125.001553279157,1642307611307,"How many <b class=""r"">red</b> marbles did your opponent report drawing?",-1,-1,1642307582183,0,0.9166666666666666
sona-32196,unif,over,trial,75,receiver,100,0.5,5,76,79,79,-3,3,-193,-213,7487.158231084385,1642307632840,"How many <b class=""r"">red</b> marbles did your opponent report drawing?",-1,-1,1642307632840,0,0.9166666666666666
sona-32196,unif,over,trial,77,receiver,100,0.5,5,83,86,86,-3,3,-196,-225,7260.346190035582,1642307673388,"How many <b class=""r"">red</b> marbles did your opponent report drawing?",-1,-1,1642307632840,0,0.9166666666666666
sona-32196,unif,over,trial,79,receiver,100,0.5,5,79,81,81,-2,2,-178,-243,5212.321609555764,1642307722971,"How many <b class=""r"">red</b> marbles did your opponent report drawing?",-1,-1,1642307632840,0,0.9166666666666666
sona-32196,unif,over,trial,81,receiver,100,0.5,5,15,19,19,-4,4,-182,-247,6848.717601111795,1642307752794,"How many <b class=""r"">red</b> marbles did your opponent report drawing?",-1,-1,1642307738060,0,0.9166666666666666
sona-32196,unif,over,trial,83,receiver,100,0.5,5,73,78,78,-5,5,-169,-260,6468.895449803334,1642307797328,"How many <b class=""r"">red</b> marbles did your opponent report drawing?",-1,-1,1642307738060,0,0.9166666666666666
sona-32196,unif,over,trial,85,receiver,100,0.5,5,58,65,65,-7,7,-149,-280,5652.3584339168865,1642307855025,"How many <b class=""r"">red</b> marbles did your opponent report drawing?",-1,-1,1642307855025,0,0.9166666666666666
sona-32196,unif,over,trial,87,receiver,100,0.5,5,92,94,94,-2,2,-150,-279,6468.594085111202,1642307884750,"How many <b class=""r"">red</b> marbles did your opponent report drawing?",-1,-1,1642307855025,0,0.9166666666666666
sona-32196,unif,over,trial,89,receiver,100,0.5,5,38,43,43,-5,5,-155,-287,5569.082764986727,1642307921891,"How many <b class=""r"">red</b> marbles did your opponent report drawing?",43,43,1642307921891,0,0.9166666666666666
sona-32196,unif,over,trial,91,receiver,100,0.5,5,11,15,15,-4,4,-147,-295,7378.527978430844,1642307975480,"How many <b class=""r"">red</b> marbles did your opponent report drawing?",-1,-1,1642307961798,0,0.9166666666666666
sona-32196,unif,over,trial,93,receiver,100,0.5,5,65,70,70,-5,5,-152,-302,5576.1285833640295,1642308003850,"How many <b class=""r"">red</b> marbles did your opponent report drawing?",70,70,1642308003850,0,0.9166666666666666
sona-32196,unif,over,trial,95,receiver,100,0.5,5,71,78,78,-7,7,-159,-321,7102.9333756347005,1642308059386,"How many <b class=""r"">red</b> marbles did your opponent report drawing?",-1,-1,1642308059386,0,0.9166666666666666
sona-32196,unif,over,trial,97,receiver,100,0.5,5,60,70,70,-10,10,-149,-331,6070.372286327451,1642308106040,"How many <b class=""r"">red</b> marbles did your opponent report drawing?",-1,-1,1642308059386,0,0.9166666666666666
sona-32196,unif,over,trial,99,receiver,100,0.5,5,74,82,82,-8,8,-155,-325,5143.5499431944145,1642308134751,"How many <b class=""r"">red</b> marbles did your opponent report drawing?",-1,-1,1642308059386,0,0.9166666666666666
sona-36878,linear,over,trial,2,receiver,100,0.5,5,61,67,64,-3,3,-3,-2,5821.535926657531,1642311749811,"How many <b class=""r"">red</b> marbles did your opponent report drawing?",-1,-1,1642311632150,0,0.8333333333333334
sona-36878,linear,over,trial,4,receiver,100,0.5,5,62,65,60,-2,0,-5,-2,7164.974352183712,1642311825899,"How many <b class=""r"">red</b> marbles did your opponent report drawing?",-1,-1,1642311632150,0,0.8333333333333334
sona-36878,linear,over,trial,6,receiver,100,0.5,5,73,78,75,-2,2,-7,-8,7387.2544018945855,1642311888913,"How many <b class=""r"">red</b> marbles did your opponent report drawing?",78,78,1642311888913,0,0.8333333333333334
sona-36878,linear,over,trial,8,receiver,100,0.5,5,45,49,53,-8,8,-15,-13,5318.435716175711,1642311947243,"How many <b class=""r"">red</b> marbles did your opponent report drawing?",-1,-1,1642311888913,0,0.8333333333333334
sona-36878,linear,over,trial,10,receiver,100,0.5,5,77,84,75,-2,0,-17,-23,5364.882091725067,1642312011671,"How many <b class=""r"">red</b> marbles did your opponent report drawing?",84,84,1642312011672,0,0.8333333333333334
sona-36878,linear,over,trial,12,receiver,100,0.5,5,36,43,50,-14,14,-31,-23,5703.8324639782695,1642312074500,"How many <b class=""r"">red</b> marbles did your opponent report drawing?",-1,-1,1642312011672,0,0.8333333333333334
sona-36878,linear,over,trial,14,receiver,100,0.5,5,17,21,27,-10,10,-41,-14,7221.8206094735615,1642312125539,"How many <b class=""r"">red</b> marbles did your opponent report drawing?",-1,-1,1642312011672,0,0.8333333333333334
sona-36878,linear,over,trial,16,receiver,100,0.5,5,39,44,45,-6,6,-42,-13,5305.875372975564,1642312181448,"How many <b class=""r"">red</b> marbles did your opponent report drawing?",-1,-1,1642312146412,0,0.8333333333333334
sona-36878,linear,over,trial,18,receiver,100,0.5,5,59,62,58,-1,0,-40,-16,7264.2007247502,1642312252606,"How many <b class=""r"">red</b> marbles did your opponent report drawing?",-1,-1,1642312146412,0,0.8333333333333334
sona-36878,linear,over,trial,20,receiver,100,0.5,5,50,54,56,-6,6,-38,-18,6418.210371057934,1642312307707,"How many <b class=""r"">red</b> marbles did your opponent report drawing?",-1,-1,1642312307707,0,0.8333333333333334
sona-36878,linear,over,trial,22,receiver,100,0.5,5,47,54,60,-13,13,-51,-5,7102.817067127452,1642312356870,"How many <b class=""r"">red</b> marbles did your opponent report drawing?",54,54,1642312356870,0,0.8333333333333334
sona-36878,linear,over,trial,24,receiver,100,0.5,5,45,49,45,0,0,-51,-15,7210.035268757825,1642312414893,"How many <b class=""r"">red</b> marbles did your opponent report drawing?",49,49,1642312414894,0,0.8333333333333334
sona-36878,linear,over,trial,26,receiver,100,0.5,5,54,61,58,-4,4,-55,-14,5378.2836404860145,1642312470856,"How many <b class=""r"">red</b> marbles did your opponent report drawing?",-1,-1,1642312441657,0,0.8333333333333334
sona-36878,linear,over,trial,28,receiver,100,0.5,5,59,63,67,-8,8,-63,-10,6024.100144148697,1642312533804,"How many <b class=""r"">red</b> marbles did you actually draw (before any changes)?",-1,-1,1642312494028,0,0.8333333333333334
sona-36878,linear,over,trial,30,receiver,100,0.5,5,51,55,56,-5,5,-68,-7,5510.845673592028,1642312556993,"How many <b class=""r"">red</b> marbles did you actually draw (before any changes)?",-1,-1,1642312556993,0,0.8333333333333334
sona-36878,linear,over,trial,32,receiver,100,0.5,5,62,67,60,-2,0,-68,-9,7168.471066832935,1642312624785,"How many <b class=""r"">red</b> marbles did you actually draw (before any changes)?",-1,-1,1642312556993,0,0.8333333333333334
sona-36878,linear,over,trial,34,receiver,100,0.5,5,28,31,48,-20,20,-88,0,5908.525280375297,1642312708294,"How many <b class=""r"">red</b> marbles did you actually draw (before any changes)?",-1,-1,1642312556993,0,0.8333333333333334
sona-36878,linear,over,trial,36,receiver,100,0.5,5,45,54,66,-21,21,-109,16,6694.289610343409,1642312759192,"How many <b class=""r"">red</b> marbles did you actually draw (before any changes)?",-1,-1,1642312728815,0,0.8333333333333334
sona-36878,linear,over,trial,38,receiver,100,0.5,5,57,63,70,-13,13,-122,25,5793.61492831167,1642312803184,"How many <b class=""r"">red</b> marbles did you actually draw (before any changes)?",-1,-1,1642312728815,0,0.8333333333333334
sona-36878,linear,over,trial,40,receiver,100,0.5,5,15,17,15,0,0,-119,22,6838.262754627174,1642312861556,"How many <b class=""r"">red</b> marbles did you actually draw (before any changes)?",-1,-1,1642312861556,0,0.8333333333333334
sona-36878,linear,over,trial,42,receiver,100,0.5,5,66,71,65,-1,0,-107,9,7055.687667082435,1642312959453,"How many <b class=""r"">red</b> marbles did you actually draw (before any changes)?",-1,-1,1642312861556,0,0.8333333333333334
sona-36878,linear,over,trial,44,receiver,100,0.5,5,41,43,39,-2,0,-104,4,7033.051729687113,1642313086260,"How many <b class=""r"">red</b> marbles did you actually draw (before any changes)?",-1,-1,1642312861556,0,0.8333333333333334
sona-36878,linear,over,trial,46,receiver,100,0.5,5,15,22,18,-3,3,-98,-2,6571.179715896612,1642313160916,"How many <b class=""r"">red</b> marbles did you actually draw (before any changes)?",-1,-1,1642313128124,0,0.8333333333333334
sona-36878,linear,over,trial,48,receiver,100,0.5,5,14,20,18,-4,4,-92,-8,5571.446852377132,1642313249881,"How many <b class=""r"">red</b> marbles did you actually draw (before any changes)?",-1,-1,1642313128124,0,0.8333333333333334
sona-36878,linear,over,trial,50,receiver,100,0.5,5,74,75,70,-4,0,-96,-36,6113.99018564491,1642313341002,"How many <b class=""r"">red</b> marbles did you actually draw (before any changes)?",-1,-1,1642313341002,0,0.8333333333333334
sona-36878,linear,over,trial,52,receiver,100,0.5,5,48,54,48,0,0,-96,-58,5971.92670563341,1642313470924,"How many <b class=""r"">red</b> marbles did your opponent report drawing?",54,52,1642313470924,0,0.8333333333333334
sona-36878,linear,over,trial,54,receiver,100,0.5,5,75,80,74,-1,0,-82,-73,5568.966217089767,1642313621046,"How many <b class=""r"">red</b> marbles did you actually draw (before any changes)?",-1,-1,1642313577791,0,0.8333333333333334
sona-36878,linear,over,trial,56,receiver,100,0.5,5,50,54,50,0,0,-82,-78,5614.840088764822,1642313679289,"How many <b class=""r"">red</b> marbles did you actually draw (before any changes)?",-1,-1,1642313649266,0,0.8333333333333334
sona-36878,linear,over,trial,58,receiver,100,0.5,5,64,69,60,-4,0,-86,-102,5919.363279204082,1642313749718,"How many <b class=""r"">red</b> marbles did you actually draw (before any changes)?",-1,-1,1642313649266,0,0.8333333333333334
sona-36878,linear,over,trial,60,receiver,100,0.5,5,38,44,40,-2,2,-71,-117,7471.213045374549,1642313861874,"How many <b class=""r"">red</b> marbles did you actually draw (before any changes)?",-1,-1,1642313861874,0,0.8333333333333334
sona-36878,linear,over,trial,62,receiver,100,0.5,5,26,31,40,-14,14,-72,-116,7429.259401058243,1642313968366,"How many <b class=""r"">red</b> marbles did you actually draw (before any changes)?",-1,-1,1642313861874,0,0.8333333333333334
sona-36878,linear,over,trial,64,receiver,100,0.5,5,66,66,60,-6,0,-66,-128,7112.833694106102,1642314080791,"How many <b class=""r"">red</b> marbles did you actually draw (before any changes)?",-1,-1,1642313861874,0,0.8333333333333334
sona-36878,linear,over,trial,66,receiver,100,0.5,5,48,53,50,-2,2,-68,-142,7210.8753082262365,1642314224041,"How many <b class=""r"">red</b> marbles did your opponent report drawing?",53,53,1642314224042,0,0.8333333333333334
sona-36878,linear,over,trial,68,receiver,100,0.5,5,74,77,70,-4,0,-48,-166,6532.062885549328,1642314857090,"How many <b class=""r"">red</b> marbles did your opponent report drawing?",-1,-1,1642314224042,0,0.8333333333333334
sona-36878,linear,over,trial,70,receiver,100,0.5,5,20,26,8,-12,0,-60,-173,5388.199500697592,1642314881182,"How many <b class=""r"">red</b> marbles did your opponent report drawing?",-1,-1,1642314881182,0,0.8333333333333334
sona-36878,linear,over,trial,72,receiver,100,0.5,5,20,22,28,-8,8,-68,-170,5514.169377176128,1642314921292,"How many <b class=""r"">red</b> marbles did your opponent report drawing?",-1,-1,1642314881182,0,0.8333333333333334
sona-36878,linear,over,trial,74,receiver,100,0.5,5,20,20,27,-7,7,-75,-169,5351.8765837746,1642314944254,"How many <b class=""r"">red</b> marbles did your opponent report drawing?",-1,-1,1642314881182,0,0.8333333333333334
sona-36878,linear,over,trial,76,receiver,100,0.5,5,53,61,55,-2,2,-77,-171,5685.017548702427,1642314984965,"How many <b class=""r"">red</b> marbles did your opponent report drawing?",-1,-1,1642314952132,0,0.8333333333333334
sona-36878,linear,over,trial,78,receiver,100,0.5,5,41,44,35,-6,0,-69,-185,6276.114222588487,1642315082277,"How many <b class=""r"">red</b> marbles did your opponent report drawing?",-1,-1,1642314952132,0,0.8333333333333334
sona-36878,linear,over,trial,80,receiver,100,0.5,5,27,29,34,-7,7,-76,-185,5657.495207629683,1642315110264,"How many <b class=""r"">red</b> marbles did your opponent report drawing?",-1,-1,1642315110265,0,0.8333333333333334
sona-36878,linear,over,trial,82,receiver,100,0.5,5,40,43,37,-3,0,-72,-192,5519.881611971747,1642315272315,"How many <b class=""r"">red</b> marbles did your opponent report drawing?",-1,-1,1642315110265,0,0.8333333333333334
sona-36878,linear,over,trial,84,receiver,100,0.5,5,57,68,60,-3,3,-72,-192,6575.627716104878,1642315324350,"How many <b class=""r"">red</b> marbles did your opponent report drawing?",-1,-1,1642315110265,0,0.8333333333333334
sona-36878,linear,over,trial,86,receiver,100,0.5,5,45,51,47,-2,2,-70,-194,6726.7656952285415,1642315367754,"How many <b class=""r"">red</b> marbles did your opponent report drawing?",-1,-1,1642315346132,0,0.8333333333333334
sona-36878,linear,over,trial,88,receiver,100,0.5,5,41,45,40,-1,0,-63,-202,6517.496317374838,1642315424293,"How many <b class=""r"">red</b> marbles did your opponent report drawing?",-1,-1,1642315346132,0,0.8333333333333334
sona-36878,linear,over,trial,90,receiver,100,0.5,5,78,81,75,-3,0,-66,-206,5866.337309111788,1642315445567,"How many <b class=""r"">red</b> marbles did your opponent report drawing?",-1,-1,1642315445567,0,0.8333333333333334
sona-36878,linear,over,trial,92,receiver,100,0.5,5,76,81,74,-2,0,-64,-210,6185.89838969714,1642315511357,"How many <b class=""r"">red</b> marbles did you actually draw (before any changes)?",-1,-1,1642315476156,0,0.8333333333333334
sona-36878,linear,over,trial,94,receiver,100,0.5,5,80,83,75,-5,0,-69,-222,6695.772734196335,1642315548505,"How many <b class=""r"">red</b> marbles did you actually draw (before any changes)?",-1,-1,1642315476156,0,0.8333333333333334
sona-36878,linear,over,trial,96,receiver,100,0.5,5,73,78,65,-8,0,-73,-226,7362.915653753598,1642315594002,"How many <b class=""r"">red</b> marbles did you actually draw (before any changes)?",-1,-1,1642315578700,0,0.8333333333333334
sona-36878,linear,over,trial,98,receiver,100,0.5,5,39,41,45,-6,6,-79,-227,6647.239928703825,1642315617699,"How many <b class=""r"">red</b> marbles did you actually draw (before any changes)?",-1,-1,1642315578700,0,0.8333333333333334
sona-36878,linear,over,trial,100,receiver,100,0.5,5,69,74,64,-5,0,-84,-227,5773.469393775371,1642315645033,"How many <b class=""r"">red</b> marbles did you actually draw (before any changes)?",-1,-1,1642315645033,0,0.8333333333333334
sona-30467,unif,under,trial,2,receiver,100,0.5,5,73,69,69,-4,4,-4,-2,7012.059089613596,1642403351477,"How many <b class=""r"">red</b> marbles did your opponent report drawing?",-1,-1,1642403313549,0,0.9166666666666666
sona-30467,unif,under,trial,4,receiver,100,0.5,5,74,67,67,-7,7,-11,3,5207.613961501562,1642403369056,"How many <b class=""r"">red</b> marbles did your opponent report drawing?",-1,-1,1642403313549,0,0.9166666666666666
sona-30467,unif,under,trial,6,receiver,100,0.5,5,64,59,59,-5,5,-16,-5,6005.783448282236,1642403408494,"How many <b class=""r"">red</b> marbles did you actually draw (before any changes)?",-1,-1,1642403384364,0,0.9166666666666666
sona-30467,unif,under,trial,8,receiver,100,0.5,5,50,41,41,-9,9,-25,0,5615.3801379845645,1642403426034,"How many <b class=""r"">red</b> marbles did you actually draw (before any changes)?",-1,-1,1642403384364,0,0.9166666666666666
sona-30467,unif,under,trial,10,receiver,100,0.5,5,77,73,73,-4,4,-29,-1,5595.898594317461,1642403447312,"How many <b class=""r"">red</b> marbles did you actually draw (before any changes)?",-1,-1,1642403447312,0,0.9166666666666666
sona-30467,unif,under,trial,12,receiver,100,0.5,5,56,50,40,-16,16,-45,-4,6577.551146798425,1642403477326,"How many <b class=""r"">red</b> marbles did you actually draw (before any changes)?",-1,-1,1642403447312,0,0.9166666666666666
sona-30467,unif,under,trial,14,receiver,100,0.5,5,43,39,29,-14,14,-59,-26,5998.194711149986,1642403512950,"How many <b class=""r"">red</b> marbles did your opponent report drawing?",39,39,1642403512950,0,0.9166666666666666
sona-30467,unif,under,trial,16,receiver,100,0.5,5,77,70,60,-17,17,-76,-19,6295.211388398068,1642403540174,"How many <b class=""r"">red</b> marbles did your opponent report drawing?",-1,-1,1642403526708,0,0.9166666666666666
sona-30467,unif,under,trial,18,receiver,100,0.5,5,24,19,19,-5,5,-81,-21,5521.041005968631,1642403556798,"How many <b class=""r"">red</b> marbles did your opponent report drawing?",-1,-1,1642403526708,0,0.9166666666666666
sona-30467,unif,under,trial,20,receiver,100,0.5,5,62,55,45,-17,17,-98,-11,5656.264868367161,1642403576494,"How many <b class=""r"">red</b> marbles did your opponent report drawing?",-1,-1,1642403576494,0,0.9166666666666666
sona-30467,unif,under,trial,22,receiver,100,0.5,5,46,44,54,-8,0,-106,-18,6173.652597901899,1642403595434,"How many <b class=""r"">red</b> marbles did your opponent report drawing?",-1,-1,1642403576494,0,0.9166666666666666
sona-30467,unif,under,trial,24,receiver,100,0.5,5,34,29,39,-5,0,-111,-22,5388.577305220779,1642403611156,"How many <b class=""r"">red</b> marbles did your opponent report drawing?",-1,-1,1642403576494,0,0.9166666666666666
sona-30467,unif,under,trial,26,receiver,100,0.5,5,23,20,20,-3,3,-114,-22,6165.7841904128945,1642403630176,"How many <b class=""r"">red</b> marbles did your opponent report drawing?",-1,-1,1642403619276,0,0.9166666666666666
sona-30467,unif,under,trial,28,receiver,100,0.5,5,48,44,44,-4,4,-118,-20,6633.926014813152,1642403652662,"How many <b class=""r"">red</b> marbles did your opponent report drawing?",44,44,1642403652662,0,0.9166666666666666
sona-30467,unif,under,trial,30,receiver,100,0.5,5,28,21,21,-7,7,-125,-34,5582.660929534128,1642403691959,"How many <b class=""r"">red</b> marbles did you actually draw (before any changes)?",-1,-1,1642403691959,0,0.9166666666666666
sona-30467,unif,under,trial,32,receiver,100,0.5,5,68,65,65,-3,3,-128,-35,5790.163587728766,1642403708872,"How many <b class=""r"">red</b> marbles did you actually draw (before any changes)?",-1,-1,1642403691959,0,0.9166666666666666
sona-30467,unif,under,trial,34,receiver,100,0.5,5,48,45,45,-3,3,-131,-37,6254.890709844158,1642403724407,"How many <b class=""r"">red</b> marbles did you actually draw (before any changes)?",-1,-1,1642403691959,0,0.9166666666666666
sona-30467,unif,under,trial,36,receiver,100,0.5,5,69,62,62,-7,7,-138,-34,6967.3921027362685,1642403741995,"How many <b class=""r"">red</b> marbles did you actually draw (before any changes)?",-1,-1,1642403731494,0,0.9166666666666666
sona-30467,unif,under,trial,38,receiver,100,0.5,5,29,21,21,-8,8,-146,-29,6423.017203070703,1642403757516,"How many <b class=""r"">red</b> marbles did you actually draw (before any changes)?",-1,-1,1642403731494,0,0.9166666666666666
sona-30467,unif,under,trial,40,receiver,100,0.5,5,51,46,46,-5,5,-151,-32,7067.3910582666185,1642403774540,"How many <b class=""r"">red</b> marbles did you actually draw (before any changes)?",-1,-1,1642403774540,0,0.9166666666666666
sona-30467,unif,under,trial,42,receiver,100,0.5,5,52,48,48,-4,4,-153,-30,6008.130298379014,1642403841410,"How many <b class=""r"">red</b> marbles did you actually draw (before any changes)?",-1,-1,1642403774540,0,0.9166666666666666
sona-30467,unif,under,trial,44,receiver,100,0.5,5,35,35,35,0,0,-153,-31,7045.04567546894,1642403865964,"How many <b class=""r"">red</b> marbles did you actually draw (before any changes)?",-1,-1,1642403774540,0,0.9166666666666666
sona-30467,unif,under,trial,46,receiver,100,0.5,5,40,38,30,-10,10,-158,-26,6858.962707797029,1642403908515,"How many <b class=""r"">red</b> marbles did you actually draw (before any changes)?",-1,-1,1642403880288,0,0.9166666666666666
sona-30467,unif,under,trial,48,receiver,100,0.5,5,47,43,40,-7,7,-165,-31,5537.346171713953,1642403947546,"How many <b class=""r"">red</b> marbles did you actually draw (before any changes)?",-1,-1,1642403924224,0,0.9166666666666666
sona-30467,unif,under,trial,50,receiver,100,0.5,5,52,44,40,-12,12,-177,-55,5780.799651897726,1642403980274,"How many <b class=""r"">red</b> marbles did you actually draw (before any changes)?",-1,-1,1642403980274,0,0.9166666666666666
sona-30467,unif,under,trial,52,receiver,100,0.5,5,46,39,36,-10,10,-187,-48,5619.630176716872,1642404002530,"How many <b class=""r"">red</b> marbles did you actually draw (before any changes)?",-1,-1,1642403980274,0,0.9166666666666666
sona-30467,unif,under,trial,54,receiver,100,0.5,5,7,3,3,-4,4,-191,-52,6608.858379230763,1642404028939,"How many <b class=""r"">red</b> marbles did you actually draw (before any changes)?",-1,-1,1642403980274,0,0.9166666666666666
sona-30467,unif,under,trial,56,receiver,100,0.5,5,68,64,60,-8,8,-199,-47,6124.998039214887,1642404063619,"How many <b class=""r"">red</b> marbles did you actually draw (before any changes)?",-1,-1,1642404036475,0,0.9166666666666666
sona-30467,unif,under,trial,58,receiver,100,0.5,5,66,61,30,-36,36,-235,-18,5215.487028545069,1642404087319,"How many <b class=""r"">red</b> marbles did you actually draw (before any changes)?",-1,-1,1642404036475,0,0.9166666666666666
sona-30467,unif,under,trial,60,receiver,100,0.5,5,28,24,9,-19,19,-254,-3,6328.015525073924,1642404106092,"How many <b class=""r"">red</b> marbles did you actually draw (before any changes)?",-1,-1,1642404106092,0,0.9166666666666666
sona-30467,unif,under,trial,62,receiver,100,0.5,5,8,2,2,-6,6,-260,-8,6511.582540544604,1642404133123,"How many <b class=""r"">red</b> marbles did you actually draw (before any changes)?",-1,-1,1642404106092,0,0.9166666666666666
sona-30467,unif,under,trial,64,receiver,100,0.5,5,72,64,64,-8,8,-268,-90,5206.752916320436,1642404192278,"How many <b class=""r"">red</b> marbles did you actually draw (before any changes)?",-1,-1,1642404106092,0,0.9166666666666666
sona-30467,unif,under,trial,66,receiver,100,0.5,5,27,20,20,-7,7,-275,-111,5241.4789039955485,1642404220679,"How many <b class=""r"">red</b> marbles did you actually draw (before any changes)?",-1,-1,1642404211896,0,0.9166666666666666
sona-30467,unif,under,trial,68,receiver,100,0.5,5,32,24,24,-8,8,-283,-136,5153.043982457386,1642404247799,"How many <b class=""r"">red</b> marbles did you actually draw (before any changes)?",-1,-1,1642404211896,0,0.9166666666666666
sona-30467,unif,under,trial,70,receiver,100,0.5,5,80,74,74,-6,6,-289,-155,5886.36655042643,1642404272907,"How many <b class=""r"">red</b> marbles did you actually draw (before any changes)?",-1,-1,1642404272907,0,0.9166666666666666
sona-30467,unif,under,trial,72,receiver,100,0.5,5,53,46,46,-7,7,-296,-201,5952.139895552554,1642404317588,"How many <b class=""r"">red</b> marbles did you actually draw (before any changes)?",-1,-1,1642404272907,0,0.9166666666666666
sona-30467,unif,under,trial,74,receiver,100,0.5,5,31,23,23,-8,8,-304,-197,6146.94123387622,1642404335218,"How many <b class=""r"">red</b> marbles did you actually draw (before any changes)?",-1,-1,1642404272907,0,0.9166666666666666
sona-30467,unif,under,trial,76,receiver,100,0.5,5,45,40,40,-5,5,-309,-234,7486.48549672913,1642404374916,"How many <b class=""r"">red</b> marbles did you actually draw (before any changes)?",-1,-1,1642404362958,0,0.9166666666666666
sona-30467,unif,under,trial,78,receiver,100,0.5,5,27,22,22,-5,5,-314,-256,6606.071388607916,1642404405497,"How many <b class=""r"">red</b> marbles did you actually draw (before any changes)?",-1,-1,1642404362958,0,0.9166666666666666
sona-30467,unif,under,trial,80,receiver,100,0.5,5,52,46,46,-6,6,-320,-297,6223.98413403853,1642404444543,"How many <b class=""r"">red</b> marbles did your opponent report drawing?",46,46,1642404444543,0,0.9166666666666666
sona-30467,unif,under,trial,82,receiver,100,0.5,5,53,45,45,-8,8,-328,-316,5530.105923619714,1642404477554,"How many <b class=""r"">red</b> marbles did your opponent report drawing?",-1,-1,1642404444543,0,0.9166666666666666
sona-30467,unif,under,trial,84,receiver,100,0.5,5,78,75,65,-13,13,-341,-333,6343.900892523565,1642404510974,"How many <b class=""r"">red</b> marbles did you actually draw (before any changes)?",-1,-1,1642404495638,0,0.9166666666666666
sona-30467,unif,under,trial,86,receiver,100,0.5,5,24,21,21,-3,3,-344,-368,6571.167299328461,1642404545622,"How many <b class=""r"">red</b> marbles did you actually draw (before any changes)?",-1,-1,1642404535007,0,0.9166666666666666
sona-30467,unif,under,trial,88,receiver,100,0.5,5,46,42,37,-9,9,-353,-388,7028.582634595085,1642404577391,"How many <b class=""r"">red</b> marbles did you actually draw (before any changes)?",-1,-1,1642404563087,0,0.9166666666666666
sona-30467,unif,under,trial,90,receiver,100,0.5,5,52,48,45,-7,7,-360,-409,5851.391262034533,1642404608301,"How many <b class=""r"">red</b> marbles did you actually draw (before any changes)?",-1,-1,1642404608301,0,0.9166666666666666
sona-30467,unif,under,trial,92,receiver,100,0.5,5,65,61,60,-5,5,-365,-426,6624.904295362873,1642404637349,"How many <b class=""r"">red</b> marbles did you actually draw (before any changes)?",-1,-1,1642404608301,0,0.9166666666666666
sona-30467,unif,under,trial,94,receiver,100,0.5,5,51,46,44,-7,7,-372,-428,5269.1316042105955,1642404657143,"How many <b class=""r"">red</b> marbles did you actually draw (before any changes)?",-1,-1,1642404608301,0,0.9166666666666666
sona-30467,unif,under,trial,96,receiver,100,0.5,5,39,39,36,-3,3,-375,-462,6203.56975136698,1642404690762,"How many <b class=""r"">red</b> marbles did you actually draw (before any changes)?",-1,-1,1642404678949,0,0.9166666666666666
sona-30467,unif,under,trial,98,receiver,100,0.5,5,55,48,45,-10,10,-385,-473,6355.3686325315475,1642404721849,"How many <b class=""r"">red</b> marbles did you actually draw (before any changes)?",-1,-1,1642404707739,0,0.9166666666666666
sona-30467,unif,under,trial,100,receiver,100,0.5,5,72,66,60,-12,12,-397,-495,6459.105120202872,1642404752399,"How many <b class=""r"">red</b> marbles did you actually draw (before any changes)?",-1,-1,1642404752399,0,0.9166666666666666
sona-37064,linear,under,trial,2,receiver,100,0.5,5,52,49,60,-8,0,-8,-7,6766.172632294036,1642305523165,"How many <b class=""r"">red</b> marbles did you actually draw (before any changes)?",-1,-1,1642305499868,0,0.8333333333333334
sona-37064,linear,under,trial,4,receiver,100,0.5,5,28,22,40,-12,0,-20,-11,5150.288735129829,1642305549747,"How many <b class=""r"">red</b> marbles did you actually draw (before any changes)?",-1,-1,1642305499868,0,0.8333333333333334
sona-37064,linear,under,trial,6,receiver,100,0.5,5,36,31,50,-14,0,-34,-17,6559.374294383615,1642305611884,"How many <b class=""r"">red</b> marbles did you actually draw (before any changes)?",-1,-1,1642305582672,0,0.8333333333333334
sona-37064,linear,under,trial,8,receiver,100,0.5,5,47,42,60,-13,0,-47,-24,7184.972893599734,1642305650892,"How many <b class=""r"">red</b> marbles did you actually draw (before any changes)?",-1,-1,1642305582672,0,0.8333333333333334
sona-37064,linear,under,trial,10,receiver,100,0.5,5,59,51,70,-11,0,-58,-35,5451.283545126507,1642305675969,"How many <b class=""r"">red</b> marbles did you actually draw (before any changes)?",-1,-1,1642305675969,0,0.8333333333333334
sona-37064,linear,under,trial,14,receiver,100,0.5,5,26,25,30,-4,0,-65,-44,6845.963050707014,1642305738911,"How many <b class=""r"">red</b> marbles did you actually draw (before any changes)?",-1,-1,1642305675969,0,0.8333333333333334
sona-37064,linear,under,trial,16,receiver,100,0.5,5,60,56,62,-2,0,-67,-57,5269.501430368107,1642305763788,"How many <b class=""r"">red</b> marbles did you actually draw (before any changes)?",-1,-1,1642305752906,0,0.8333333333333334
sona-37064,linear,under,trial,18,receiver,100,0.5,5,35,32,39,-4,0,-71,-62,7263.514658182243,1642305797754,"How many <b class=""r"">red</b> marbles did you actually draw (before any changes)?",-1,-1,1642305752906,0,0.8333333333333334
sona-37064,linear,under,trial,20,receiver,100,0.5,5,40,36,42,-2,0,-73,-77,6521.501834524408,1642305826671,"How many <b class=""r"">red</b> marbles did you actually draw (before any changes)?",-1,-1,1642305826671,0,0.8333333333333334
sona-37064,linear,under,trial,22,receiver,100,0.5,5,63,61,67,-4,0,-77,-89,5894.922202048615,1642305858925,"How many <b class=""r"">red</b> marbles did you actually draw (before any changes)?",-1,-1,1642305826671,0,0.8333333333333334
sona-37064,linear,under,trial,24,receiver,100,0.5,5,13,12,20,-7,0,-84,-98,5431.737593460441,1642305902546,"How many <b class=""r"">red</b> marbles did you actually draw (before any changes)?",-1,-1,1642305826671,0,0.8333333333333334
sona-37064,linear,under,trial,26,receiver,100,0.5,5,47,44,50,-3,0,-87,-111,6718.912195803225,1642305929569,"How many <b class=""r"">red</b> marbles did your opponent report drawing?",44,41,1642305929569,0,0.8333333333333334
sona-37064,linear,under,trial,28,receiver,100,0.5,5,52,46,50,-2,2,-89,-118,5931.793241857364,1642305966743,"How many <b class=""r"">red</b> marbles did your opponent report drawing?",-1,-1,1642305929569,0,0.8333333333333334
sona-37064,linear,under,trial,30,receiver,100,0.5,5,68,61,65,-3,3,-92,-124,7497.16375054668,1642305990088,"How many <b class=""r"">red</b> marbles did your opponent report drawing?",-1,-1,1642305990088,0,0.8333333333333334
sona-37064,linear,under,trial,32,receiver,100,0.5,5,60,57,61,-1,0,-93,-128,5161.354490635824,1642306016229,"How many <b class=""r"">red</b> marbles did your opponent report drawing?",-1,-1,1642305990088,0,0.8333333333333334
sona-37064,linear,under,trial,34,receiver,100,0.5,5,59,58,61,-2,0,-95,-134,6049.500865708433,1642306040486,"How many <b class=""r"">red</b> marbles did your opponent report drawing?",-1,-1,1642305990088,0,0.8333333333333334
sona-37064,linear,under,trial,36,receiver,100,0.5,5,62,58,62,0,0,-95,-143,5859.035805985896,1642306062039,"How many <b class=""r"">red</b> marbles did your opponent report drawing?",-1,-1,1642306051376,0,0.8333333333333334
sona-37064,linear,under,trial,38,receiver,100,0.5,5,77,74,80,-3,0,-98,-153,5202.317226473551,1642306085393,"How many <b class=""r"">red</b> marbles did your opponent report drawing?",-1,-1,1642306051376,0,0.8333333333333334
sona-37064,linear,under,trial,40,receiver,100,0.5,5,42,39,43,-1,0,-99,-161,6423.605424424199,1642306105947,"How many <b class=""r"">red</b> marbles did your opponent report drawing?",-1,-1,1642306105947,0,0.8333333333333334
sona-37064,linear,under,trial,42,receiver,100,0.5,5,19,16,20,-1,0,-100,-175,6374.580900015704,1642306138236,"How many <b class=""r"">red</b> marbles did you actually draw (before any changes)?",-1,-1,1642306120998,0,0.8333333333333334
sona-37064,linear,under,trial,44,receiver,100,0.5,5,69,62,66,-3,3,-103,-183,5172.272076382295,1642306159865,"How many <b class=""r"">red</b> marbles did you actually draw (before any changes)?",-1,-1,1642306120998,0,0.8333333333333334
sona-37064,linear,under,trial,46,receiver,100,0.5,5,25,21,24,-1,1,-104,-187,6144.493703936105,1642306183040,"How many <b class=""r"">red</b> marbles did your opponent report drawing?",21,21,1642306183040,0,0.8333333333333334
sona-37064,linear,under,trial,48,receiver,100,0.5,5,58,55,60,-2,0,-106,-193,5997.519625618908,1642306213383,"How many <b class=""r"">red</b> marbles did your opponent report drawing?",-1,-1,1642306183040,0,0.8333333333333334
sona-37064,linear,under,trial,50,receiver,100,0.5,5,50,45,47,-3,3,-109,-194,7142.8824789757455,1642306233407,"How many <b class=""r"">red</b> marbles did your opponent report drawing?",-1,-1,1642306233407,0,0.8333333333333334
sona-37064,linear,under,trial,52,receiver,100,0.5,5,52,47,49,-3,3,-112,-195,7472.181197201949,1642306256010,"How many <b class=""r"">red</b> marbles did your opponent report drawing?",-1,-1,1642306233407,0,0.8333333333333334
sona-37064,linear,under,trial,54,receiver,100,0.5,5,28,24,27,-1,1,-113,-205,7364.88770040718,1642306281638,"How many <b class=""r"">red</b> marbles did your opponent report drawing?",-1,-1,1642306233407,0,0.8333333333333334
sona-37064,linear,under,trial,56,receiver,100,0.5,5,80,76,80,0,0,-113,-212,5419.94685150922,1642306309839,"How many <b class=""r"">red</b> marbles did your opponent report drawing?",76,76,1642306309839,0,0.8333333333333334
sona-37064,linear,under,trial,58,receiver,100,0.5,5,20,18,23,-3,0,-116,-221,7203.862573346436,1642306338640,"How many <b class=""r"">red</b> marbles did your opponent report drawing?",18,18,1642306338640,0,0.8333333333333334
sona-37064,linear,under,trial,60,receiver,100,0.5,5,35,30,33,-2,2,-118,-229,5286.782652536457,1642306363006,"How many <b class=""r"">red</b> marbles did your opponent report drawing?",-1,-1,1642306363006,0,0.8333333333333334
sona-37064,linear,under,trial,62,receiver,100,0.5,5,45,40,43,-2,2,-120,-236,5245.48184145915,1642306387095,"How many <b class=""r"">red</b> marbles did your opponent report drawing?",-1,-1,1642306363006,0,0.8333333333333334
sona-37064,linear,under,trial,64,receiver,100,0.5,5,15,11,14,-1,1,-121,-240,5339.259234731786,1642306413742,"How many <b class=""r"">red</b> marbles did your opponent report drawing?",-1,-1,1642306363006,0,0.8333333333333334
sona-37064,linear,under,trial,66,receiver,100,0.5,5,62,56,60,-2,2,-123,-244,5421.524271379889,1642306438624,"How many <b class=""r"">red</b> marbles did your opponent report drawing?",-1,-1,1642306427376,0,0.8333333333333334
sona-37064,linear,under,trial,68,receiver,100,0.5,5,37,28,28,-9,9,-132,-240,5312.45566977079,1642306460695,"How many <b class=""r"">red</b> marbles did your opponent report drawing?",-1,-1,1642306427376,0,0.8333333333333334
sona-37064,linear,under,trial,70,receiver,100,0.5,5,30,24,25,-5,5,-137,-241,5938.533584790224,1642306481762,"How many <b class=""r"">red</b> marbles did your opponent report drawing?",-1,-1,1642306481762,0,0.8333333333333334
sona-37064,linear,under,trial,72,receiver,100,0.5,5,21,16,18,-3,3,-140,-245,6906.174742211953,1642306512265,"How many <b class=""r"">red</b> marbles did your opponent report drawing?",16,16,1642306512265,0,0.8333333333333334
sona-37064,linear,under,trial,74,receiver,100,0.5,5,64,60,55,-9,9,-149,-244,6270.151576906823,1642306544263,"How many <b class=""r"">red</b> marbles did your opponent report drawing?",-1,-1,1642306512265,0,0.8333333333333334
sona-37064,linear,under,trial,76,receiver,100,0.5,5,46,40,35,-11,11,-160,-242,6538.153003493929,1642306575663,"How many <b class=""r"">red</b> marbles did your opponent report drawing?",-1,-1,1642306561120,0,0.8333333333333334
sona-37064,linear,under,trial,78,receiver,100,0.5,5,47,44,46,-1,1,-161,-245,5480.496736587529,1642306595556,"How many <b class=""r"">red</b> marbles did your opponent report drawing?",-1,-1,1642306561120,0,0.8333333333333334
sona-37064,linear,under,trial,80,receiver,100,0.5,5,14,12,18,-4,0,-165,-251,6163.24420311385,1642306615353,"How many <b class=""r"">red</b> marbles did your opponent report drawing?",-1,-1,1642306615353,0,0.8333333333333334
sona-37064,linear,under,trial,82,receiver,100,0.5,5,52,47,50,-2,2,-167,-255,5536.4784312466845,1642306637185,"How many <b class=""r"">red</b> marbles did your opponent report drawing?",-1,-1,1642306615353,0,0.8333333333333334
sona-37064,linear,under,trial,84,receiver,100,0.5,5,70,67,90,-20,0,-187,-260,6220.2378690205205,1642306658784,"How many <b class=""r"">red</b> marbles did your opponent report drawing?",-1,-1,1642306615353,0,0.8333333333333334
sona-37064,linear,under,trial,86,receiver,100,0.5,5,29,27,50,-21,0,-208,-267,6312.367807102812,1642306682916,"How many <b class=""r"">red</b> marbles did you actually draw (before any changes)?",-1,-1,1642306668152,0,0.8333333333333334
sona-37064,linear,under,trial,88,receiver,100,0.5,5,31,25,45,-14,0,-222,-274,5138.977374915765,1642306706543,"How many <b class=""r"">red</b> marbles did you actually draw (before any changes)?",-1,-1,1642306668152,0,0.8333333333333334
sona-37064,linear,under,trial,90,receiver,100,0.5,5,98,94,99,-1,0,-223,-283,5137.1614684689775,1642306730035,"How many <b class=""r"">red</b> marbles did you actually draw (before any changes)?",-1,-1,1642306730035,0,0.8333333333333334
sona-37064,linear,under,trial,92,receiver,100,0.5,5,36,33,38,-2,0,-225,-294,5723.696409764606,1642306756868,"How many <b class=""r"">red</b> marbles did you actually draw (before any changes)?",-1,-1,1642306730035,0,0.8333333333333334
sona-37064,linear,under,trial,94,receiver,100,0.5,5,62,57,67,-5,0,-230,-296,5747.845593621787,1642306778380,"How many <b class=""r"">red</b> marbles did your opponent report drawing?",57,57,1642306778380,0,0.8333333333333334
sona-37064,linear,under,trial,96,receiver,100,0.5,5,45,41,58,-13,0,-243,-302,5734.340202970883,1642306801391,"How many <b class=""r"">red</b> marbles did your opponent report drawing?",-1,-1,1642306789978,0,0.8333333333333334
sona-37064,linear,under,trial,98,receiver,100,0.5,5,27,25,36,-9,0,-252,-312,5608.645240059492,1642306824592,"How many <b class=""r"">red</b> marbles did your opponent report drawing?",-1,-1,1642306789978,0,0.8333333333333334
sona-37064,linear,under,trial,100,receiver,100,0.5,5,61,53,69,-8,0,-260,-320,6331.016303113609,1642306847883,"How many <b class=""r"">red</b> marbles did your opponent report drawing?",-1,-1,1642306847883,0,0.8333333333333334
sona-40732,unif,over,trial,2,receiver,100,0.5,5,51,54,52,-1,1,-1,-6,6959.658948743149,1642462057432,"How many <b class=""r"">red</b> marbles did you actually draw (before any changes)?",-1,-1,1642462030222,0,1
sona-40732,unif,over,trial,4,receiver,100,0.5,5,64,70,66,-2,2,-3,-4,5815.503879734704,1642462095106,"How many <b class=""r"">red</b> marbles did you actually draw (before any changes)?",-1,-1,1642462030222,0,1
sona-40732,unif,over,trial,6,receiver,100,0.5,5,59,66,62,-3,3,-6,-7,5755.52647952509,1642462256315,"How many <b class=""r"">red</b> marbles did you actually draw (before any changes)?",-1,-1,1642462184763,0,1
sona-40732,unif,over,trial,8,receiver,100,0.5,5,18,22,25,-7,7,-13,-3,6064.081618848622,1642462340114,"How many <b class=""r"">red</b> marbles did you actually draw (before any changes)?",-1,-1,1642462184763,0,1
sona-40732,unif,over,trial,10,receiver,100,0.5,5,32,37,41,-9,9,-7,-9,6624.723870817442,1642462410565,"How many <b class=""r"">red</b> marbles did you actually draw (before any changes)?",-1,-1,1642462410565,0,1
sona-40732,unif,over,trial,12,receiver,100,0.5,5,63,67,61,-2,0,-8,-10,5974.328901827355,1642462459164,"How many <b class=""r"">red</b> marbles did you actually draw (before any changes)?",-1,-1,1642462410565,0,1
sona-40732,unif,over,trial,14,receiver,100,0.5,5,30,34,34,-4,4,-12,-31,6685.037206662741,1642462520073,"How many <b class=""r"">red</b> marbles did you actually draw (before any changes)?",-1,-1,1642462410565,0,1
sona-40732,unif,over,trial,16,receiver,100,0.5,5,24,28,33,-9,9,-21,-48,6768.331842042429,1642462593756,"How many <b class=""r"">red</b> marbles did you actually draw (before any changes)?",-1,-1,1642462562752,0,1
sona-40732,unif,over,trial,18,receiver,100,0.5,5,5,16,22,-17,17,-38,-43,6996.8648745714745,1642462630372,"How many <b class=""r"">red</b> marbles did you actually draw (before any changes)?",-1,-1,1642462562752,0,1
sona-40732,unif,over,trial,20,receiver,100,0.5,5,12,15,22,-10,10,-48,-43,7022.141657267206,1642462655907,"How many <b class=""r"">red</b> marbles did you actually draw (before any changes)?",-1,-1,1642462655907,0,1
sona-40732,unif,over,trial,22,receiver,100,0.5,5,44,47,47,-3,3,-51,-50,6804.191647644388,1642462683002,"How many <b class=""r"">red</b> marbles did you actually draw (before any changes)?",-1,-1,1642462655907,0,1
sona-40732,unif,over,trial,24,receiver,100,0.5,5,25,31,33,-8,8,-59,-42,5272.292037782734,1642462722413,"How many <b class=""r"">red</b> marbles did you actually draw (before any changes)?",-1,-1,1642462655907,0,1
sona-40732,unif,over,trial,26,receiver,100,0.5,5,53,58,53,0,0,-59,-44,5698.984346515081,1642462764441,"How many <b class=""r"">red</b> marbles did you actually draw (before any changes)?",-1,-1,1642462733703,0,1
sona-40732,unif,over,trial,28,receiver,100,0.5,5,48,52,48,0,0,-59,-54,5392.894399043595,1642462802721,"How many <b class=""r"">red</b> marbles did you actually draw (before any changes)?",-1,-1,1642462733703,0,1
sona-40732,unif,over,trial,30,receiver,100,0.5,5,46,51,50,-4,4,-63,-53,6944.944642476905,1642462881302,"How many <b class=""r"">red</b> marbles did you actually draw (before any changes)?",-1,-1,1642462881302,0,1
sona-40732,unif,over,trial,32,receiver,100,0.5,5,37,42,37,0,0,-63,-106,5454.962221806003,1642462950001,"How many <b class=""r"">red</b> marbles did you actually draw (before any changes)?",-1,-1,1642462881302,0,1
sona-40732,unif,over,trial,34,receiver,100,0.5,5,73,79,71,-2,0,-65,-125,5889.771729267095,1642462990616,"How many <b class=""r"">red</b> marbles did you actually draw (before any changes)?",-1,-1,1642462881302,0,1
sona-40732,unif,over,trial,36,receiver,100,0.5,5,75,77,70,-5,0,-70,-133,7430.604210270197,1642463050831,"How many <b class=""r"">red</b> marbles did you actually draw (before any changes)?",-1,-1,1642463019297,0,1
sona-40732,unif,over,trial,38,receiver,100,0.5,5,25,30,35,-10,10,-80,-161,7459.080202602748,1642463097984,"How many <b class=""r"">red</b> marbles did you actually draw (before any changes)?",-1,-1,1642463019297,0,1
sona-40732,unif,over,trial,40,receiver,100,0.5,5,47,53,48,-1,1,-81,-182,5349.213734250176,1642463146877,"How many <b class=""r"">red</b> marbles did you actually draw (before any changes)?",-1,-1,1642463146877,0,1
sona-40732,unif,over,trial,42,receiver,100,0.5,5,46,52,48,-2,2,-83,-209,5405.269921580564,1642463190286,"How many <b class=""r"">red</b> marbles did you actually draw (before any changes)?",-1,-1,1642463146877,0,1
sona-40732,unif,over,trial,44,receiver,100,0.5,5,12,19,25,-13,13,-88,-204,5781.488239492941,1642463225576,"How many <b class=""r"">red</b> marbles did you actually draw (before any changes)?",-1,-1,1642463146877,0,1
sona-40732,unif,over,trial,46,receiver,100,0.5,5,42,45,41,-1,0,-89,-209,6088.8066828977935,1642463255537,"How many <b class=""r"">red</b> marbles did your opponent report drawing?",45,45,1642463255537,0,1
sona-40732,unif,over,trial,48,receiver,100,0.5,5,69,74,68,-1,0,-90,-238,5687.529586643695,1642463304713,"How many <b class=""r"">red</b> marbles did your opponent report drawing?",74,74,1642463304713,0,1
sona-40732,unif,over,trial,50,receiver,100,0.5,5,57,59,54,-3,0,-93,-244,6178.967665358736,1642463337684,"How many <b class=""r"">red</b> marbles did your opponent report drawing?",-1,-1,1642463337684,0,1
sona-40732,unif,over,trial,52,receiver,100,0.5,5,50,57,52,-2,2,-95,-244,7001.16753941206,1642463374153,"How many <b class=""r"">red</b> marbles did your opponent report drawing?",-1,-1,1642463337684,0,1
sona-40732,unif,over,trial,54,receiver,100,0.5,5,52,61,55,-3,3,-98,-245,5762.137144952249,1642463400375,"How many <b class=""r"">red</b> marbles did your opponent report drawing?",-1,-1,1642463337684,0,1
sona-40732,unif,over,trial,56,receiver,100,0.5,5,38,43,37,-1,0,-99,-250,5215.023882356438,1642463425572,"How many <b class=""r"">red</b> marbles did your opponent report drawing?",-1,-1,1642463409629,0,1
sona-40732,unif,over,trial,58,receiver,100,0.5,5,81,85,78,-3,0,-102,-268,6879.604312011356,1642463460464,"How many <b class=""r"">red</b> marbles did your opponent report drawing?",85,85,1642463460464,0,1
sona-40732,unif,over,trial,60,receiver,100,0.5,5,76,80,74,-2,0,-104,-274,5172.816483955579,1642463491243,"How many <b class=""r"">red</b> marbles did your opponent report drawing?",80,80,1642463491243,0,1
sona-40732,unif,over,trial,62,receiver,100,0.5,5,72,78,71,-1,0,-105,-288,6328.245767748813,1642463547472,"How many <b class=""r"">red</b> marbles did your opponent report drawing?",-1,-1,1642463491243,0,1
sona-40732,unif,over,trial,64,receiver,100,0.5,5,31,36,39,-8,8,-106,-287,5156.112166418745,1642463587164,"How many <b class=""r"">red</b> marbles did your opponent report drawing?",-1,-1,1642463491243,0,1
sona-40732,unif,over,trial,66,receiver,100,0.5,5,31,38,38,-7,7,-110,-283,5314.746416385176,1642463624362,"How many <b class=""r"">red</b> marbles did your opponent report drawing?",-1,-1,1642463606877,0,1
sona-40732,unif,over,trial,68,receiver,100,0.5,5,70,75,70,0,0,-110,-289,7407.445023988641,1642463656611,"How many <b class=""r"">red</b> marbles did your opponent report drawing?",-1,-1,1642463606877,0,1
sona-40732,unif,over,trial,70,receiver,100,0.5,5,20,25,28,-8,8,-118,-286,5257.25266535821,1642463677321,"How many <b class=""r"">red</b> marbles did your opponent report drawing?",-1,-1,1642463677321,0,1
sona-40732,unif,over,trial,72,receiver,100,0.5,5,68,74,69,-1,1,-97,-307,5980.914249391096,1642463742251,"How many <b class=""r"">red</b> marbles did you actually draw (before any changes)?",-1,-1,1642463720026,0,1
sona-40732,unif,over,trial,74,receiver,100,0.5,5,37,44,43,-6,6,-103,-309,5135.985198195252,1642463768955,"How many <b class=""r"">red</b> marbles did you actually draw (before any changes)?",-1,-1,1642463720026,0,1
sona-40732,unif,over,trial,76,receiver,100,0.5,5,52,58,53,-1,1,-98,-314,5613.715609804527,1642463820641,"How many <b class=""r"">red</b> marbles did you actually draw (before any changes)?",-1,-1,1642463786590,0,1
sona-40732,unif,over,trial,78,receiver,100,0.5,5,54,61,57,-3,3,-101,-338,6074.8713862842515,1642463857365,"How many <b class=""r"">red</b> marbles did you actually draw (before any changes)?",-1,-1,1642463786590,0,1
sona-40732,unif,over,trial,80,receiver,100,0.5,5,61,69,65,-4,4,-105,-354,5148.200776382846,1642463894951,"How many <b class=""r"">red</b> marbles did you actually draw (before any changes)?",-1,-1,1642463894952,0,1
sona-40732,unif,over,trial,82,receiver,100,0.5,5,76,79,74,-2,0,-107,-362,6652.545796064569,1642463925874,"How many <b class=""r"">red</b> marbles did you actually draw (before any changes)?",-1,-1,1642463894952,0,1
sona-40732,unif,over,trial,84,receiver,100,0.5,5,16,20,25,-9,9,-116,-358,5313.878304545326,1642463968041,"How many <b class=""r"">red</b> marbles did you actually draw (before any changes)?",-1,-1,1642463945558,0,1
sona-40732,unif,over,trial,86,receiver,100,0.5,5,26,29,33,-7,7,-123,-356,7284.17905671755,1642463991642,"How many <b class=""r"">red</b> marbles did you actually draw (before any changes)?",-1,-1,1642463977265,0,1
sona-40732,unif,over,trial,88,receiver,100,0.5,5,49,53,50,-1,1,-124,-360,6223.157867879196,1642464011068,"How many <b class=""r"">red</b> marbles did you actually draw (before any changes)?",-1,-1,1642463977265,0,1
sona-40732,unif,over,trial,90,receiver,100,0.5,5,73,79,72,-1,0,-125,-362,6528.44818520339,1642464031659,"How many <b class=""r"">red</b> marbles did you actually draw (before any changes)?",-1,-1,1642464031659,0,1
sona-40732,unif,over,trial,92,receiver,100,0.5,5,21,28,28,-7,7,-132,-358,5421.0488151970685,1642464056114,"How many <b class=""r"">red</b> marbles did you actually draw (before any changes)?",-1,-1,1642464031659,0,1
sona-40732,unif,over,trial,94,receiver,100,0.5,5,73,79,74,-1,1,-133,-362,6259.693315707516,1642464083391,"How many <b class=""r"">red</b> marbles did you actually draw (before any changes)?",-1,-1,1642464063525,0,1
sona-40732,unif,over,trial,96,receiver,100,0.5,5,14,18,23,-9,9,-142,-375,5726.28935076684,1642464117603,"How many <b class=""r"">red</b> marbles did you actually draw (before any changes)?",-1,-1,1642464104380,0,1
sona-40732,unif,over,trial,98,receiver,100,0.5,5,72,76,70,-2,0,-133,-386,5635.193970657181,1642464149731,"How many <b class=""r"">red</b> marbles did you actually draw (before any changes)?",-1,-1,1642464104380,0,1
sona-40732,unif,over,trial,100,receiver,100,0.5,5,37,39,36,-1,0,-117,-403,5202.442538359406,1642464190294,"How many <b class=""r"">red</b> marbles did your opponent report drawing?",39,39,1642464190295,0,1
sona-29538,linear,over,trial,1,receiver,100,0.5,5,67,72,64,-3,0,-3,0,6100.41707086106,1643002187390,"How many <b class=""r"">red</b> marbles did your opponent report drawing?",72,72,1643002187390,0,0.8333333333333334
sona-29538,linear,over,trial,3,receiver,100,0.5,5,62,70,64,-2,2,-5,1,6942.466880197266,1643002327672,"How many <b class=""r"">red</b> marbles did your opponent report drawing?",-1,-1,1643002187390,0,0.8333333333333334
sona-29538,linear,over,trial,5,receiver,100,0.5,5,15,18,12,-3,0,-6,-1,7218.338203149648,1643002390505,"How many <b class=""r"">red</b> marbles did your opponent report drawing?",-1,-1,1643002390505,0,0.8333333333333334
sona-29538,linear,over,trial,7,receiver,100,0.5,5,59,68,65,-6,6,-12,2,6912.580967619535,1643002426587,"How many <b class=""r"">red</b> marbles did your opponent report drawing?",-1,-1,1643002390505,0,0.8333333333333334
sona-29538,linear,over,trial,9,receiver,100,0.5,5,65,72,70,-5,5,-17,1,7451.439213855841,1643002456737,"How many <b class=""r"">red</b> marbles did your opponent report drawing?",-1,-1,1643002390505,0,0.8333333333333334
sona-29538,linear,over,trial,11,receiver,100,0.5,5,38,41,41,-3,3,-18,2,6158.04220886077,1643002520103,"How many <b class=""r"">red</b> marbles did your opponent report drawing?",-1,-1,1643002500453,0,0.8333333333333334
sona-29538,linear,over,trial,13,receiver,100,0.5,5,68,72,65,-3,0,-21,-9,5222.406485025828,1643002560886,"How many <b class=""r"">red</b> marbles did your opponent report drawing?",-1,-1,1643002500453,0,0.8333333333333334
sona-29538,linear,over,trial,15,receiver,100,0.5,5,36,42,30,-6,0,-27,-19,5276.267797902628,1643002592969,"How many <b class=""r"">red</b> marbles did your opponent report drawing?",-1,-1,1643002592969,0,0.8333333333333334
sona-29538,linear,over,trial,17,receiver,100,0.5,5,56,62,58,-2,2,-29,-23,6956.233304687321,1643002624802,"How many <b class=""r"">red</b> marbles did your opponent report drawing?",-1,-1,1643002592969,0,0.8333333333333334
sona-29538,linear,over,trial,19,receiver,100,0.5,5,67,73,64,-3,0,-31,-24,6335.315427289672,1643002664185,"How many <b class=""r"">red</b> marbles did your opponent report drawing?",-1,-1,1643002592969,0,0.8333333333333334
sona-29538,linear,over,trial,21,receiver,100,0.5,5,37,42,35,-2,0,-33,-28,5935.413654233873,1643002693651,"How many <b class=""r"">red</b> marbles did your opponent report drawing?",-1,-1,1643002678784,0,0.8333333333333334
sona-29538,linear,over,trial,23,receiver,100,0.5,5,51,56,44,-7,0,-36,-32,5243.090967433594,1643002743517,"How many <b class=""r"">red</b> marbles did your opponent report drawing?",-1,-1,1643002678784,0,0.8333333333333334
sona-29538,linear,over,trial,25,receiver,100,0.5,5,32,38,32,0,0,-36,-39,6250.408353441435,1643002781450,"How many <b class=""r"">red</b> marbles did your opponent report drawing?",-1,-1,1643002781450,0,0.8333333333333334
sona-29538,linear,over,trial,27,receiver,100,0.5,5,8,11,7,-1,0,-37,-47,6492.019458780193,1643002855633,"How many <b class=""r"">red</b> marbles did your opponent report drawing?",-1,-1,1643002781450,0,0.8333333333333334
sona-29538,linear,over,trial,29,receiver,100,0.5,5,48,54,49,-1,1,-38,-55,5487.2488632796785,1643002891332,"How many <b class=""r"">red</b> marbles did your opponent report drawing?",54,54,1643002891332,0,0.8333333333333334
sona-29538,linear,over,trial,31,receiver,100,0.5,5,54,61,53,-1,0,-39,-58,6891.577032737647,1643002974659,"How many <b class=""r"">red</b> marbles did your opponent report drawing?",-1,-1,1643002960025,0,0.8333333333333334
sona-29538,linear,over,trial,33,receiver,100,0.5,5,23,34,29,-6,6,-45,-52,7386.506976007632,1643003010573,"How many <b class=""r"">red</b> marbles did your opponent report drawing?",-1,-1,1643002960025,0,0.8333333333333334
sona-29538,linear,over,trial,35,receiver,100,0.5,5,66,70,63,-3,0,-48,-55,6752.474255087431,1643003031790,"How many <b class=""r"">red</b> marbles did your opponent report drawing?",-1,-1,1643003031790,0,0.8333333333333334
sona-29538,linear,over,trial,37,receiver,100,0.5,5,33,36,32,-1,0,-49,-60,5792.353276451908,1643003074489,"How many <b class=""r"">red</b> marbles did your opponent report drawing?",-1,-1,1643003031790,0,0.8333333333333334
sona-29538,linear,over,trial,39,receiver,100,0.5,5,47,55,49,-2,2,-51,-63,6041.7125811479855,1643003104559,"How many <b class=""r"">red</b> marbles did your opponent report drawing?",-1,-1,1643003031790,0,0.8333333333333334
sona-29538,linear,over,trial,41,receiver,100,0.5,5,65,70,64,-1,0,-47,-68,5353.462448802493,1643003142288,"How many <b class=""r"">red</b> marbles did your opponent report drawing?",-1,-1,1643003129405,0,0.8333333333333334
sona-29538,linear,over,trial,43,receiver,100,0.5,5,70,75,64,-6,0,-53,-74,5189.668099165969,1643003204153,"How many <b class=""r"">red</b> marbles did you actually draw (before any changes)?",-1,-1,1643003175387,0,0.8333333333333334
sona-29538,linear,over,trial,45,receiver,100,0.5,5,23,29,24,-1,1,-54,-75,6969.181850064539,1643003243220,"How many <b class=""r"">red</b> marbles did you actually draw (before any changes)?",-1,-1,1643003243220,0,0.8333333333333334
sona-29538,linear,over,trial,47,receiver,100,0.5,5,80,82,76,-4,0,-58,-85,5279.105223822604,1643003283435,"How many <b class=""r"">red</b> marbles did you actually draw (before any changes)?",-1,-1,1643003243220,0,0.8333333333333334
sona-29538,linear,over,trial,49,receiver,100,0.5,5,21,25,17,-4,0,-62,-89,5678.55341462465,1643003316485,"How many <b class=""r"">red</b> marbles did you actually draw (before any changes)?",-1,-1,1643003243220,0,0.8333333333333334
sona-29538,linear,over,trial,51,receiver,100,0.5,5,74,76,72,-2,0,-64,-89,5474.876972266668,1643003359051,"How many <b class=""r"">red</b> marbles did you actually draw (before any changes)?",-1,-1,1643003338768,0,0.8333333333333334
sona-29538,linear,over,trial,53,receiver,100,0.5,5,79,84,76,-3,0,-65,-91,6223.08919712577,1643003412634,"How many <b class=""r"">red</b> marbles did you actually draw (before any changes)?",-1,-1,1643003338768,0,0.8333333333333334
sona-29538,linear,over,trial,55,receiver,100,0.5,5,32,37,34,-2,2,-67,-91,6325.666270285668,1643003447033,"How many <b class=""r"">red</b> marbles did you actually draw (before any changes)?",-1,-1,1643003447033,0,0.8333333333333334
sona-29538,linear,over,trial,57,receiver,100,0.5,5,42,46,42,0,0,-67,-106,5132.444290738227,1643003494849,"How many <b class=""r"">red</b> marbles did you actually draw (before any changes)?",-1,-1,1643003477300,0,0.8333333333333334
sona-29538,linear,over,trial,59,receiver,100,0.5,5,89,96,89,0,0,-67,-110,5546.953797522233,1643003532082,"How many <b class=""r"">red</b> marbles did you actually draw (before any changes)?",-1,-1,1643003510950,0,0.8333333333333334
sona-29538,linear,over,trial,61,receiver,100,0.5,5,81,85,72,-9,0,-76,-114,7414.694436313115,1643003559016,"How many <b class=""r"">red</b> marbles did you actually draw (before any changes)?",-1,-1,1643003541899,0,0.8333333333333334
sona-29538,linear,over,trial,63,receiver,100,0.5,5,55,59,54,-1,0,-77,-117,6274.30115883193,1643003578932,"How many <b class=""r"">red</b> marbles did you actually draw (before any changes)?",-1,-1,1643003541899,0,0.8333333333333334
sona-29538,linear,over,trial,65,receiver,100,0.5,5,55,60,56,-1,1,-78,-122,6089.456254494111,1643003599164,"How many <b class=""r"">red</b> marbles did you actually draw (before any changes)?",-1,-1,1643003599165,0,0.8333333333333334
sona-29538,linear,over,trial,67,receiver,100,0.5,5,71,73,68,-3,0,-80,-123,7474.289012579139,1643003633698,"How many <b class=""r"">red</b> marbles did you actually draw (before any changes)?",-1,-1,1643003599165,0,0.8333333333333334
sona-29538,linear,over,trial,69,receiver,100,0.5,5,78,81,78,0,0,-80,-127,5873.044553302427,1643003678780,"How many <b class=""r"">red</b> marbles did you actually draw (before any changes)?",-1,-1,1643003599165,0,0.8333333333333334
sona-29538,linear,over,trial,71,receiver,100,0.5,5,19,26,22,-3,3,-82,-125,5632.965984928405,1643003726663,"How many <b class=""r"">red</b> marbles did you actually draw (before any changes)?",-1,-1,1643003711297,0,0.8333333333333334
sona-29538,linear,over,trial,73,receiver,100,0.5,5,28,34,28,0,0,-82,-128,5785.738106195948,1643003762046,"How many <b class=""r"">red</b> marbles did you actually draw (before any changes)?",-1,-1,1643003740863,0,0.8333333333333334
sona-29538,linear,over,trial,75,receiver,100,0.5,5,34,39,34,0,0,-82,-133,5217.116107365159,1643003798078,"How many <b class=""r"">red</b> marbles did you actually draw (before any changes)?",-1,-1,1643003798078,0,0.8333333333333334
sona-29538,linear,over,trial,77,receiver,100,0.5,5,50,55,52,-2,2,-82,-133,6166.302241845428,1643003836428,"How many <b class=""r"">red</b> marbles did you actually draw (before any changes)?",-1,-1,1643003798078,0,0.8333333333333334
sona-29538,linear,over,trial,79,receiver,100,0.5,5,21,24,20,-1,0,-83,-133,5452.046870026871,1643003886427,"How many <b class=""r"">red</b> marbles did your opponent report drawing?",24,23,1643003886428,0,0.8333333333333334
sona-29538,linear,over,trial,81,receiver,100,0.5,5,68,71,65,-3,0,-86,-134,5855.675474512382,1643003937010,"How many <b class=""r"">red</b> marbles did your opponent report drawing?",-1,-1,1643003925443,0,0.8333333333333334
sona-29538,linear,over,trial,83,receiver,100,0.5,5,70,74,69,-1,0,-87,-134,5160.599478278043,1643003972976,"How many <b class=""r"">red</b> marbles did your opponent report drawing?",-1,-1,1643003925443,0,0.8333333333333334
sona-29538,linear,over,trial,85,receiver,100,0.5,5,47,54,50,-3,3,-90,-134,5935.652166274456,1643003997159,"How many <b class=""r"">red</b> marbles did your opponent report drawing?",54,54,1643003997159,0,0.8333333333333334
sona-29538,linear,over,trial,87,receiver,100,0.5,5,56,62,57,-1,1,-89,-135,5464.231448596918,1643004037258,"How many <b class=""r"">red</b> marbles did your opponent report drawing?",-1,-1,1643003997159,0,0.8333333333333334
sona-29538,linear,over,trial,89,receiver,100,0.5,5,43,47,44,-1,1,-90,-136,6093.290704119048,1643004072392,"How many <b class=""r"">red</b> marbles did your opponent report drawing?",-1,-1,1643003997159,0,0.8333333333333334
sona-29538,linear,over,trial,91,receiver,100,0.5,5,33,40,34,-1,1,-91,-136,6631.01290947644,1643004105225,"How many <b class=""r"">red</b> marbles did your opponent report drawing?",-1,-1,1643004091127,0,0.8333333333333334
