subjID,cost,goal,exptPart,trialNumber,roleCurrent,marblesSampled,probRed,lambda,k,ksay,kest,playerTrialScore,oppTrialScore,playerTotalScore,oppTotalScore,waitTime,responseTime,catchQuestion,catchKey,catchResponse,catchTime,trialTime,accuracy
sona-36244,linear,over,trial,2,sender,100,0.5,5,13,13,9,0,-4,-1,-4,2113.327977605919,1642854077474,"How many <b class=""r"">red</b> marbles did your opponent report drawing?",-1,-1,1642854021498,0,0.8333333333333334
sona-36244,linear,over,trial,4,sender,100,0.5,5,36,53,46,10,-10,8,-13,2292.9053476395784,1642854175091,"How many <b class=""r"">red</b> marbles did your opponent report drawing?",-1,-1,1642854021498,0,0.8333333333333334
sona-36244,linear,over,trial,6,sender,100,0.5,5,29,46,38,9,-9,9,-22,2237.569283561956,1642854264487,"How many <b class=""r"">red</b> marbles did your opponent report drawing?",-1,-1,1642854192229,0,0.8333333333333334
sona-36244,linear,over,trial,8,sender,100,0.5,5,58,58,56,0,-2,6,-24,2468.620930342988,1642854284965,"How many <b class=""r"">red</b> marbles did you actually draw (before any changes)?",58,42,1642854284966,0,0.8333333333333334
sona-36244,linear,over,trial,10,sender,100,0.5,5,83,83,78,0,-5,3,-29,2765.6411654182066,1642854333490,"How many <b class=""r"">red</b> marbles did you actually draw (before any changes)?",83,83,1642854333490,0,0.8333333333333334
sona-36244,linear,over,trial,12,sender,100,0.5,5,73,73,72,0,-1,0,-30,2429.0750916062166,1642854361023,"How many <b class=""r"">red</b> marbles did you actually draw (before any changes)?",-1,-1,1642854333490,0,0.8333333333333334
sona-36244,linear,over,trial,14,sender,100,0.5,5,46,46,42,0,-4,0,-34,2608.238274946319,1642854398965,"How many <b class=""r"">red</b> marbles did you actually draw (before any changes)?",46,46,1642854398965,0,0.8333333333333334
sona-36244,linear,over,trial,16,sender,100,0.5,5,57,57,52,0,-5,-4,-39,2079.0078443318853,1642854450472,"How many <b class=""r"">red</b> marbles did you actually draw (before any changes)?",57,57,1642854450472,0,0.8333333333333334
sona-36244,linear,over,trial,18,sender,100,0.5,5,92,92,84,0,-8,-5,-47,2563.509926897623,1642854478127,"How many <b class=""r"">red</b> marbles did you actually draw (before any changes)?",-1,-1,1642854450472,0,0.8333333333333334
sona-36244,linear,over,trial,20,sender,100,0.5,5,46,51,48,2,-2,-4,-48,2202.764643070655,1642854517029,"How many <b class=""r"">red</b> marbles did you actually draw (before any changes)?",-1,-1,1642854517029,0,0.8333333333333334
sona-36244,linear,over,trial,22,sender,100,0.5,5,43,51,45,2,-2,-3,-50,3074.2438992860784,1642854567007,"How many <b class=""r"">red</b> marbles did you actually draw (before any changes)?",-1,-1,1642854517029,0,0.8333333333333334
sona-36244,linear,over,trial,24,sender,100,0.5,5,48,48,45,0,-3,-3,-53,2230.734341702817,1642854588369,"How many <b class=""r"">red</b> marbles did you actually draw (before any changes)?",-1,-1,1642854517029,0,0.8333333333333334
sona-36244,linear,over,trial,26,sender,100,0.5,5,91,91,80,0,-11,-5,-64,2704.2691609249177,1642854611786,"How many <b class=""r"">red</b> marbles did you actually draw (before any changes)?",-1,-1,1642854601458,0,0.8333333333333334
sona-36244,linear,over,trial,28,sender,100,0.5,5,19,19,13,0,-6,-6,-70,2281.9910173384947,1642854650301,"How many <b class=""r"">red</b> marbles did you actually draw (before any changes)?",-1,-1,1642854601458,0,0.8333333333333334
sona-36244,linear,over,trial,30,sender,100,0.5,5,76,76,72,0,-4,-8,-74,2466.114331290977,1642854671815,"How many <b class=""r"">red</b> marbles did you actually draw (before any changes)?",-1,-1,1642854671815,0,0.8333333333333334
sona-36244,linear,over,trial,32,sender,100,0.5,5,70,70,67,0,-3,-12,-73,2971.548989589448,1642854701214,"How many <b class=""r"">red</b> marbles did you actually draw (before any changes)?",-1,-1,1642854671815,0,0.8333333333333334
sona-36244,linear,over,trial,34,sender,100,0.5,5,44,44,39,0,-5,-18,-72,2182.844460923903,1642854723681,"How many <b class=""r"">red</b> marbles did you actually draw (before any changes)?",-1,-1,1642854671815,0,0.8333333333333334
sona-36244,linear,over,trial,36,sender,100,0.5,5,76,80,75,0,-1,-22,-69,2248.3255990194166,1642854791879,"How many <b class=""r"">red</b> marbles did you actually draw (before any changes)?",-1,-1,1642854736382,0,0.8333333333333334
sona-36244,linear,over,trial,38,sender,100,0.5,5,52,52,42,0,-10,-26,-79,2167.98136370057,1642854815387,"How many <b class=""r"">red</b> marbles did you actually draw (before any changes)?",-1,-1,1642854736382,0,0.8333333333333334
sona-36244,linear,over,trial,40,sender,100,0.5,5,25,37,29,4,-4,-23,-83,2670.9423861138266,1642854993628,"How many <b class=""r"">red</b> marbles did you actually draw (before any changes)?",-1,-1,1642854993628,0,0.8333333333333334
sona-36244,linear,over,trial,42,sender,100,0.5,5,53,53,50,0,-3,-33,-76,2191.2214605688205,1642855045956,"How many <b class=""r"">red</b> marbles did you actually draw (before any changes)?",-1,-1,1642854993628,0,0.8333333333333334
sona-36244,linear,over,trial,44,sender,100,0.5,5,26,26,23,0,-3,-33,-79,2190.5795542143132,1642855107291,"How many <b class=""r"">red</b> marbles did you actually draw (before any changes)?",-1,-1,1642854993628,0,0.8333333333333334
sona-36244,linear,over,trial,46,sender,100,0.5,5,73,73,67,0,-6,-34,-84,2591.933089906867,1642855135844,"How many <b class=""r"">red</b> marbles did you actually draw (before any changes)?",-1,-1,1642855122356,0,0.8333333333333334
sona-36244,linear,over,trial,48,sender,100,0.5,5,76,76,73,0,-3,-35,-86,3177.1839352108705,1642855188239,"How many <b class=""r"">red</b> marbles did you actually draw (before any changes)?",-1,-1,1642855122356,0,0.8333333333333334
sona-36244,linear,over,trial,50,sender,100,0.5,5,64,64,60,0,-4,-36,-90,2468.0369168611583,1642855208187,"How many <b class=""r"">red</b> marbles did you actually draw (before any changes)?",-1,-1,1642855208187,0,0.8333333333333334
sona-36244,linear,over,trial,52,sender,100,0.5,5,50,50,45,0,-5,-36,-95,2361.528904736743,1642855226823,"How many <b class=""r"">red</b> marbles did you actually draw (before any changes)?",-1,-1,1642855208187,0,0.8333333333333334
sona-36244,linear,over,trial,54,sender,100,0.5,5,56,56,56,0,0,-38,-93,2620.3552076866863,1642855283061,"How many <b class=""r"">red</b> marbles did you actually draw (before any changes)?",-1,-1,1642855208187,0,0.8333333333333334
sona-36244,linear,over,trial,56,sender,100,0.5,5,83,83,77,0,-6,-40,-97,2378.325137527312,1642855313794,"How many <b class=""r"">red</b> marbles did you actually draw (before any changes)?",83,59,1642855313794,0,0.8333333333333334
sona-36244,linear,over,trial,58,sender,100,0.5,5,12,12,7,0,-5,-42,-100,3111.807682083526,1642855377723,"How many <b class=""r"">red</b> marbles did you actually draw (before any changes)?",12,12,1642855377723,0,0.8333333333333334
sona-36244,linear,over,trial,60,sender,100,0.5,5,34,34,33,0,-1,-44,-101,2845.548581194212,1642855438223,"How many <b class=""r"">red</b> marbles did you actually draw (before any changes)?",-1,-1,1642855438223,0,0.8333333333333334
sona-36244,linear,over,trial,62,sender,100,0.5,5,46,56,55,9,-9,-41,-110,3005.1289462577215,1642855483065,"How many <b class=""r"">red</b> marbles did you actually draw (before any changes)?",-1,-1,1642855438223,0,0.8333333333333334
sona-36244,linear,over,trial,64,sender,100,0.5,5,81,81,78,0,-3,-45,-113,2906.942569800673,1642855505194,"How many <b class=""r"">red</b> marbles did you actually draw (before any changes)?",-1,-1,1642855438223,0,0.8333333333333334
sona-36244,linear,over,trial,66,sender,100,0.5,5,15,15,13,0,-2,-49,-111,2153.7390165066954,1642855566611,"How many <b class=""r"">red</b> marbles did you actually draw (before any changes)?",-1,-1,1642855554876,0,0.8333333333333334
sona-36244,linear,over,trial,68,sender,100,0.5,5,62,62,58,0,-4,-54,-110,3181.892124182352,1642855603406,"How many <b class=""r"">red</b> marbles did you actually draw (before any changes)?",-1,-1,1642855554876,0,0.8333333333333334
sona-36244,linear,over,trial,70,sender,100,0.5,5,57,57,54,0,-3,-55,-113,2555.074385341235,1642855778486,"How many <b class=""r"">red</b> marbles did you actually draw (before any changes)?",-1,-1,1642855778486,0,0.8333333333333334
sona-36244,linear,over,trial,72,sender,100,0.5,5,84,84,82,0,-2,-61,-109,2104.033311521822,1642855801375,"How many <b class=""r"">red</b> marbles did you actually draw (before any changes)?",-1,-1,1642855778486,0,0.8333333333333334
sona-36244,linear,over,trial,74,sender,100,0.5,5,64,64,58,0,-6,-62,-115,2265.6053127288515,1642855853592,"How many <b class=""r"">red</b> marbles did you actually draw (before any changes)?",-1,-1,1642855778486,0,0.8333333333333334
sona-36244,linear,over,trial,76,sender,100,0.5,5,53,53,48,0,-5,-65,-117,2277.7080094472803,1642855894361,"How many <b class=""r"">red</b> marbles did you actually draw (before any changes)?",53,53,1642855894361,0,0.8333333333333334
sona-36244,linear,over,trial,78,sender,100,0.5,5,55,70,63,8,-8,-59,-123,2939.866596043115,1642855976346,"How many <b class=""r"">red</b> marbles did you actually draw (before any changes)?",55,50,1642855976346,0,0.8333333333333334
sona-36244,linear,over,trial,80,sender,100,0.5,5,35,27,23,0,-12,-61,-135,2562.996041985747,1642856042906,"How many <b class=""r"">red</b> marbles did you actually draw (before any changes)?",-1,-1,1642856042906,0,0.8333333333333334
sona-36244,linear,over,trial,82,sender,100,0.5,5,51,51,47,0,-4,-65,-135,2485.9934372591515,1642856066771,"How many <b class=""r"">red</b> marbles did you actually draw (before any changes)?",-1,-1,1642856042906,0,0.8333333333333334
sona-36244,linear,over,trial,84,sender,100,0.5,5,87,87,82,0,-5,-66,-140,2838.742809547961,1642856087710,"How many <b class=""r"">red</b> marbles did you actually draw (before any changes)?",-1,-1,1642856042906,0,0.8333333333333334
sona-36244,linear,over,trial,86,sender,100,0.5,5,31,22,16,0,-15,-71,-150,2078.003412256257,1642856136566,"How many <b class=""r"">red</b> marbles did you actually draw (before any changes)?",-1,-1,1642856104310,0,0.8333333333333334
sona-36244,linear,over,trial,88,sender,100,0.5,5,36,36,35,0,-1,-71,-151,2170.0820428418792,1642856152543,"How many <b class=""r"">red</b> marbles did you actually draw (before any changes)?",-1,-1,1642856104310,0,0.8333333333333334
sona-36244,linear,over,trial,90,sender,100,0.5,5,51,51,48,0,-3,-72,-154,2580.6019700021066,1642856172372,"How many <b class=""r"">red</b> marbles did you actually draw (before any changes)?",-1,-1,1642856172372,0,0.8333333333333334
sona-36244,linear,over,trial,92,sender,100,0.5,5,16,16,15,0,-1,-73,-154,3245.9013305096405,1642856195537,"How many <b class=""r"">red</b> marbles did you actually draw (before any changes)?",-1,-1,1642856172372,0,0.8333333333333334
sona-36244,linear,over,trial,94,sender,100,0.5,5,35,35,31,0,-4,-74,-158,2630.398181616482,1642856212994,"How many <b class=""r"">red</b> marbles did you actually draw (before any changes)?",35,35,1642856212994,0,0.8333333333333334
sona-36244,linear,over,trial,96,sender,100,0.5,5,60,60,53,0,-7,-74,-165,2065.514536703363,1642856242963,"How many <b class=""r"">red</b> marbles did you actually draw (before any changes)?",-1,-1,1642856230267,0,0.8333333333333334
sona-36244,linear,over,trial,98,sender,100,0.5,5,47,47,44,0,-3,-75,-167,2410.660854038745,1642856260020,"How many <b class=""r"">red</b> marbles did you actually draw (before any changes)?",-1,-1,1642856230267,0,0.8333333333333334
sona-36244,linear,over,trial,100,sender,100,0.5,5,67,67,65,0,-2,-75,-169,2915.6800492457405,1642856278677,"How many <b class=""r"">red</b> marbles did you actually draw (before any changes)?",-1,-1,1642856278677,0,0.8333333333333334
sona-36182,unif,over,trial,2,sender,100,0.5,5,67,71,70,3,-3,-6,6,2893.408146181612,1642281303071,"How many <b class=""r"">red</b> marbles did your opponent report drawing?",-1,-1,1642281248409,0,0.9166666666666666
sona-36182,unif,over,trial,4,sender,100,0.5,5,53,56,52,0,-1,-8,5,2362.728734171768,1642281332526,"How many <b class=""r"">red</b> marbles did your opponent report drawing?",-1,-1,1642281248409,0,0.9166666666666666
sona-36182,unif,over,trial,6,sender,100,0.5,5,38,41,38,0,0,-9,6,2968.0107382349943,1642281369112,"How many <b class=""r"">red</b> marbles did your opponent report drawing?",-1,-1,1642281343220,0,0.9166666666666666
sona-36182,unif,over,trial,8,sender,100,0.5,5,32,37,33,1,-1,-9,5,3196.7529916054077,1642281396001,"How many <b class=""r"">red</b> marbles did your opponent report drawing?",-1,-1,1642281343220,0,0.9166666666666666
sona-36182,unif,over,trial,10,sender,100,0.5,5,35,42,33,0,-2,-11,5,2354.1292581075168,1642281422555,"How many <b class=""r"">red</b> marbles did your opponent report drawing?",-1,-1,1642281422555,0,0.9166666666666666
sona-36182,unif,over,trial,12,sender,100,0.5,5,62,62,56,0,-6,-11,-1,2953.793155338377,1642281448181,"How many <b class=""r"">red</b> marbles did your opponent report drawing?",-1,-1,1642281422555,0,0.9166666666666666
sona-36182,unif,over,trial,14,sender,100,0.5,5,62,65,64,2,-2,-11,-1,2167.3196479042836,1642281472264,"How many <b class=""r"">red</b> marbles did your opponent report drawing?",-1,-1,1642281422555,0,0.9166666666666666
sona-36182,unif,over,trial,16,sender,100,0.5,5,28,36,31,3,-3,-10,-2,2306.602096024737,1642281500445,"How many <b class=""r"">red</b> marbles did your opponent report drawing?",-1,-1,1642281482752,0,0.9166666666666666
sona-36182,unif,over,trial,18,sender,100,0.5,5,40,44,40,0,0,-14,2,2579.3524950903584,1642281526446,"How many <b class=""r"">red</b> marbles did your opponent report drawing?",-1,-1,1642281482752,0,0.9166666666666666
sona-36182,unif,over,trial,20,sender,100,0.5,5,13,36,31,18,-18,1,-16,3226.2985314320845,1642281568252,"How many <b class=""r"">red</b> marbles did your opponent report drawing?",-1,-1,1642281568252,0,0.9166666666666666
sona-36182,unif,over,trial,22,sender,100,0.5,5,79,79,75,0,-4,-1,-18,2386.524648679979,1642281595841,"How many <b class=""r"">red</b> marbles did your opponent report drawing?",-1,-1,1642281568252,0,0.9166666666666666
sona-36182,unif,over,trial,24,sender,100,0.5,5,46,56,51,5,-5,-1,-18,3210.475274337699,1642281626632,"How many <b class=""r"">red</b> marbles did your opponent report drawing?",-1,-1,1642281606863,0,0.9166666666666666
sona-36182,unif,over,trial,26,sender,100,0.5,5,50,50,45,0,-5,-5,-19,2633.4411101902074,1642281651248,"How many <b class=""r"">red</b> marbles did your opponent report drawing?",-1,-1,1642281636753,0,0.9166666666666666
sona-36182,unif,over,trial,28,sender,100,0.5,5,34,46,42,8,-8,2,-26,2498.38185865679,1642281675756,"How many <b class=""r"">red</b> marbles did your opponent report drawing?",-1,-1,1642281636753,0,0.9166666666666666
sona-36182,unif,over,trial,30,sender,100,0.5,5,57,66,57,0,0,1,-25,3161.962040557909,1642281703946,"How many <b class=""r"">red</b> marbles did your opponent report drawing?",-1,-1,1642281703946,0,0.9166666666666666
sona-36182,unif,over,trial,32,sender,100,0.5,5,80,80,75,0,-5,1,-30,2376.879119381133,1642281730314,"How many <b class=""r"">red</b> marbles did your opponent report drawing?",-1,-1,1642281703946,0,0.9166666666666666
sona-36182,unif,over,trial,34,sender,100,0.5,5,58,48,42,0,-16,0,-45,2181.309327442391,1642281775645,"How many <b class=""r"">red</b> marbles did your opponent report drawing?",-1,-1,1642281703946,0,0.9166666666666666
sona-36182,unif,over,trial,36,sender,100,0.5,5,35,43,38,3,-3,0,-48,2361.1117846474012,1642281814802,"How many <b class=""r"">red</b> marbles did your opponent report drawing?",-1,-1,1642281784962,0,0.9166666666666666
sona-36182,unif,over,trial,38,sender,100,0.5,5,71,64,58,0,-13,-5,-56,2683.2628162328474,1642281837831,"How many <b class=""r"">red</b> marbles did your opponent report drawing?",-1,-1,1642281784962,0,0.9166666666666666
sona-36182,unif,over,trial,40,sender,100,0.5,5,50,57,49,0,-1,-11,-51,2260.882669125084,1642281866248,"How many <b class=""r"">red</b> marbles did your opponent report drawing?",-1,-1,1642281866248,0,0.9166666666666666
sona-36182,unif,over,trial,42,sender,100,0.5,5,87,73,69,0,-18,-12,-69,2503.5996796465124,1642281908515,"How many <b class=""r"">red</b> marbles did your opponent report drawing?",-1,-1,1642281887490,0,0.9166666666666666
sona-36182,unif,over,trial,44,sender,100,0.5,5,71,75,72,1,-1,-12,-70,2306.2711541552717,1642281932967,"How many <b class=""r"">red</b> marbles did your opponent report drawing?",-1,-1,1642281887490,0,0.9166666666666666
sona-36182,unif,over,trial,46,sender,100,0.5,5,87,75,67,0,-20,-13,-90,3174.8206213126996,1642281962709,"How many <b class=""r"">red</b> marbles did your opponent report drawing?",-1,-1,1642281944637,0,0.9166666666666666
sona-36182,unif,over,trial,48,sender,100,0.5,5,63,71,70,7,-7,-8,-95,2921.4195589169003,1642281991023,"How many <b class=""r"">red</b> marbles did your opponent report drawing?",-1,-1,1642281944637,0,0.9166666666666666
sona-36182,unif,over,trial,50,sender,100,0.5,5,69,69,63,0,-6,-8,-101,2212.1178294041997,1642282011371,"How many <b class=""r"">red</b> marbles did your opponent report drawing?",-1,-1,1642282011371,0,0.9166666666666666
sona-36182,unif,over,trial,52,sender,100,0.5,5,68,76,73,5,-5,-8,-101,2741.786981086442,1642282043643,"How many <b class=""r"">red</b> marbles did your opponent report drawing?",-1,-1,1642282011371,0,0.9166666666666666
sona-36182,unif,over,trial,54,sender,100,0.5,5,18,18,11,0,-7,-8,-108,2092.9058769197727,1642282067858,"How many <b class=""r"">red</b> marbles did your opponent report drawing?",-1,-1,1642282011371,0,0.9166666666666666
sona-36182,unif,over,trial,56,sender,100,0.5,5,13,13,8,0,-5,-11,-113,2243.0919575701755,1642282102902,"How many <b class=""r"">red</b> marbles did you actually draw (before any changes)?",13,13,1642282102902,0,0.9166666666666666
sona-36182,unif,over,trial,58,sender,100,0.5,5,16,32,30,14,-14,0,-124,2105.6747685847167,1642282137407,"How many <b class=""r"">red</b> marbles did you actually draw (before any changes)?",-1,-1,1642282102902,0,0.9166666666666666
sona-36182,unif,over,trial,60,sender,100,0.5,5,35,35,28,0,-7,0,-131,2849.633574837867,1642282157602,"How many <b class=""r"">red</b> marbles did you actually draw (before any changes)?",-1,-1,1642282157602,0,0.9166666666666666
sona-36182,unif,over,trial,62,sender,100,0.5,5,14,24,19,5,-5,4,-136,2797.394859706801,1642282189767,"How many <b class=""r"">red</b> marbles did you actually draw (before any changes)?",-1,-1,1642282157602,0,0.9166666666666666
sona-36182,unif,over,trial,64,sender,100,0.5,5,23,35,31,8,-8,11,-143,2908.709072300144,1642282215979,"How many <b class=""r"">red</b> marbles did you actually draw (before any changes)?",-1,-1,1642282157602,0,0.9166666666666666
sona-36182,unif,over,trial,66,sender,100,0.5,5,74,74,69,0,-5,10,-147,2631.019352443329,1642282237968,"How many <b class=""r"">red</b> marbles did you actually draw (before any changes)?",-1,-1,1642282226355,0,0.9166666666666666
sona-36182,unif,over,trial,68,sender,100,0.5,5,60,65,64,4,-4,11,-148,2754.529006212726,1642282264000,"How many <b class=""r"">red</b> marbles did you actually draw (before any changes)?",-1,-1,1642282226355,0,0.9166666666666666
sona-36182,unif,over,trial,70,sender,100,0.5,5,44,39,32,0,-12,10,-159,3062.171087067875,1642282288356,"How many <b class=""r"">red</b> marbles did you actually draw (before any changes)?",-1,-1,1642282288356,0,0.9166666666666666
sona-36182,unif,over,trial,72,sender,100,0.5,5,83,83,79,0,-4,8,-161,2799.077815112136,1642282307947,"How many <b class=""r"">red</b> marbles did you actually draw (before any changes)?",-1,-1,1642282288356,0,0.9166666666666666
sona-36182,unif,over,trial,74,sender,100,0.5,5,60,65,59,0,-1,7,-162,2135.5788670622455,1642282330198,"How many <b class=""r"">red</b> marbles did you actually draw (before any changes)?",-1,-1,1642282288356,0,0.9166666666666666
sona-36182,unif,over,trial,76,sender,100,0.5,5,56,48,44,0,-12,4,-171,3108.720762294972,1642282355678,"How many <b class=""r"">red</b> marbles did you actually draw (before any changes)?",-1,-1,1642282339333,0,0.9166666666666666
sona-36182,unif,over,trial,78,sender,100,0.5,5,95,83,80,0,-15,2,-184,2279.334546958351,1642282386203,"How many <b class=""r"">red</b> marbles did your opponent report drawing?",-1,-1,1642282367052,0,0.9166666666666666
sona-36182,unif,over,trial,80,sender,100,0.5,5,92,92,90,0,-2,-1,-186,2777.853922569742,1642282405585,"How many <b class=""r"">red</b> marbles did your opponent report drawing?",-1,-1,1642282405585,0,0.9166666666666666
sona-36182,unif,over,trial,82,sender,100,0.5,5,50,42,38,0,-12,-3,-196,2376.4907896890372,1642282436064,"How many <b class=""r"">red</b> marbles did your opponent report drawing?",-1,-1,1642282418231,0,0.9166666666666666
sona-36182,unif,over,trial,84,sender,100,0.5,5,74,65,64,0,-10,-4,-206,2925.320552995767,1642282462316,"How many <b class=""r"">red</b> marbles did your opponent report drawing?",-1,-1,1642282418231,0,0.9166666666666666
sona-36182,unif,over,trial,86,sender,100,0.5,5,52,47,42,0,-10,-6,-214,2276.7912133998375,1642282485652,"How many <b class=""r"">red</b> marbles did your opponent report drawing?",-1,-1,1642282471999,0,0.9166666666666666
sona-36182,unif,over,trial,88,sender,100,0.5,5,42,53,48,6,-6,-1,-220,2094.3297594634296,1642282514365,"How many <b class=""r"">red</b> marbles did you actually draw (before any changes)?",42,48,1642282514365,0,0.9166666666666666
sona-36182,unif,over,trial,90,sender,100,0.5,5,64,57,54,0,-10,-5,-226,2457.740419267301,1642282552189,"How many <b class=""r"">red</b> marbles did your opponent report drawing?",-1,-1,1642282552189,0,0.9166666666666666
sona-36182,unif,over,trial,92,sender,100,0.5,5,19,19,16,0,-3,-7,-227,2468.760169233664,1642282571782,"How many <b class=""r"">red</b> marbles did your opponent report drawing?",-1,-1,1642282552189,0,0.9166666666666666
sona-36182,unif,over,trial,94,sender,100,0.5,5,61,56,51,0,-10,-9,-235,2689.3671567006713,1642282594550,"How many <b class=""r"">red</b> marbles did your opponent report drawing?",-1,-1,1642282552189,0,0.9166666666666666
sona-36182,unif,over,trial,96,sender,100,0.5,5,71,71,69,0,-2,-13,-233,2194.01674686544,1642282614623,"How many <b class=""r"">red</b> marbles did your opponent report drawing?",-1,-1,1642282604919,0,0.9166666666666666
sona-36182,unif,over,trial,98,sender,100,0.5,5,63,70,62,0,-1,-14,-233,2204.09229682605,1642282635920,"How many <b class=""r"">red</b> marbles did your opponent report drawing?",-1,-1,1642282604919,0,0.9166666666666666
sona-36182,unif,over,trial,100,sender,100,0.5,5,29,23,16,0,-13,-19,-241,2689.1117011107062,1642282662746,"How many <b class=""r"">red</b> marbles did your opponent report drawing?",-1,-1,1642282662746,0,0.9166666666666666
sona-38036,linear,over,trial,1,sender,100,0.5,5,66,68,61,0,-5,0,-5,2353.4669164855786,1642999520310,"How many <b class=""r"">red</b> marbles did your opponent report drawing?",-1,-1,1642999443769,0,0.9166666666666666
sona-38036,linear,over,trial,3,sender,100,0.5,5,57,59,49,0,-8,-8,-5,2221.9996104032807,1642999615894,"How many <b class=""r"">red</b> marbles did your opponent report drawing?",-1,-1,1642999443769,0,0.9166666666666666
sona-38036,linear,over,trial,5,sender,100,0.5,5,33,41,34,1,-1,-15,2,2926.6643467258473,1642999692157,"How many <b class=""r"">red</b> marbles did your opponent report drawing?",-1,-1,1642999692158,0,0.9166666666666666
sona-38036,linear,over,trial,7,sender,100,0.5,5,44,44,39,0,-5,-18,0,2838.2885847653793,1642999718526,"How many <b class=""r"">red</b> marbles did your opponent report drawing?",-1,-1,1642999692158,0,0.9166666666666666
sona-38036,linear,over,trial,9,sender,100,0.5,5,14,14,10,0,-4,-23,1,2366.701303170412,1642999748977,"How many <b class=""r"">red</b> marbles did your opponent report drawing?",-1,-1,1642999692158,0,0.9166666666666666
sona-38036,linear,over,trial,11,sender,100,0.5,5,57,57,52,0,-5,-25,-2,2123.6765837019475,1642999835298,"How many <b class=""r"">red</b> marbles did your opponent report drawing?",-1,-1,1642999825356,0,0.9166666666666666
sona-38036,linear,over,trial,13,sender,100,0.5,5,74,74,67,0,-7,-27,-9,2384.2797392439616,1642999853174,"How many <b class=""r"">red</b> marbles did your opponent report drawing?",-1,-1,1642999825356,0,0.9166666666666666
sona-38036,linear,over,trial,15,sender,100,0.5,5,49,49,46,0,-3,-33,-6,2840.1749973608876,1642999870173,"How many <b class=""r"">red</b> marbles did your opponent report drawing?",-1,-1,1642999870174,0,0.9166666666666666
sona-38036,linear,over,trial,17,sender,100,0.5,5,44,44,42,0,-2,-43,2,3112.556547424163,1642999897924,"How many <b class=""r"">red</b> marbles did your opponent report drawing?",-1,-1,1642999870174,0,0.9166666666666666
sona-38036,linear,over,trial,19,sender,100,0.5,5,32,32,24,0,-8,-47,-2,2772.0619209087154,1642999918626,"How many <b class=""r"">red</b> marbles did your opponent report drawing?",-1,-1,1642999870174,0,0.9166666666666666
sona-38036,linear,over,trial,21,sender,100,0.5,5,27,40,20,0,-7,-54,-2,2543.585240863801,1643000034228,"How many <b class=""r"">red</b> marbles did your opponent report drawing?",-1,-1,1642999930192,0,0.9166666666666666
sona-38036,linear,over,trial,23,sender,100,0.5,5,51,61,56,5,-5,-56,0,3216.3683471067498,1643000157525,"How many <b class=""r"">red</b> marbles did your opponent report drawing?",-1,-1,1642999930192,0,0.9166666666666666
sona-38036,linear,over,trial,25,sender,100,0.5,5,38,38,30,0,-8,-64,0,3195.626940833025,1643000294623,"How many <b class=""r"">red</b> marbles did your opponent report drawing?",-1,-1,1643000294623,0,0.9166666666666666
sona-38036,linear,over,trial,27,sender,100,0.5,5,49,62,58,9,-9,-61,-3,2233.678972045073,1643000378735,"How many <b class=""r"">red</b> marbles did your opponent report drawing?",-1,-1,1643000294623,0,0.9166666666666666
sona-38036,linear,over,trial,29,sender,100,0.5,5,35,22,19,0,-16,-71,-9,2574.3166963466165,1643000470976,"How many <b class=""r"">red</b> marbles did your opponent report drawing?",-1,-1,1643000294623,0,0.9166666666666666
sona-38036,linear,over,trial,31,sender,100,0.5,5,48,48,41,0,-7,-80,-7,2314.445103850232,1643000491726,"How many <b class=""r"">red</b> marbles did your opponent report drawing?",-1,-1,1643000481981,0,0.9166666666666666
sona-38036,linear,over,trial,33,sender,100,0.5,5,77,77,71,0,-6,-86,-7,2226.1992349626976,1643000516188,"How many <b class=""r"">red</b> marbles did your opponent report drawing?",-1,-1,1643000481981,0,0.9166666666666666
sona-38036,linear,over,trial,35,sender,100,0.5,5,64,64,57,0,-7,-99,-1,2707.1898031994224,1643000544896,"How many <b class=""r"">red</b> marbles did your opponent report drawing?",-1,-1,1643000544897,0,0.9166666666666666
sona-38036,linear,over,trial,37,sender,100,0.5,5,71,71,65,0,-6,-105,-1,2307.9741877916404,1643000564712,"How many <b class=""r"">red</b> marbles did your opponent report drawing?",-1,-1,1643000544897,0,0.9166666666666666
sona-38036,linear,over,trial,39,sender,100,0.5,5,57,57,49,0,-8,-113,-1,2807.0589432810953,1643000585025,"How many <b class=""r"">red</b> marbles did your opponent report drawing?",-1,-1,1643000544897,0,0.9166666666666666
sona-38036,linear,over,trial,41,sender,100,0.5,5,63,63,60,0,-3,-115,-2,3116.7616254605377,1643000612497,"How many <b class=""r"">red</b> marbles did your opponent report drawing?",-1,-1,1643000594016,0,0.9166666666666666
sona-38036,linear,over,trial,43,sender,100,0.5,5,56,56,45,0,-11,-117,-13,2835.93658007727,1643000632581,"How many <b class=""r"">red</b> marbles did your opponent report drawing?",-1,-1,1643000594016,0,0.9166666666666666
sona-38036,linear,over,trial,45,sender,100,0.5,5,60,60,55,0,-5,-126,-9,2920.5325126657126,1643000650157,"How many <b class=""r"">red</b> marbles did your opponent report drawing?",-1,-1,1643000650157,0,0.9166666666666666
sona-38036,linear,over,trial,47,sender,100,0.5,5,40,40,35,0,-5,-129,-11,2586.6119854318085,1643000679471,"How many <b class=""r"">red</b> marbles did your opponent report drawing?",-1,-1,1643000665777,0,0.9166666666666666
sona-38036,linear,over,trial,49,sender,100,0.5,5,66,66,60,0,-6,-134,-12,2464.7773165101967,1643000695404,"How many <b class=""r"">red</b> marbles did your opponent report drawing?",-1,-1,1643000665777,0,0.9166666666666666
sona-38036,linear,over,trial,51,sender,100,0.5,5,50,50,40,0,-10,-138,-18,2851.33610186799,1643000718302,"How many <b class=""r"">red</b> marbles did your opponent report drawing?",-1,-1,1643000707183,0,0.9166666666666666
sona-38036,linear,over,trial,53,sender,100,0.5,5,45,45,40,0,-5,-143,-18,2742.129007913152,1643000736354,"How many <b class=""r"">red</b> marbles did your opponent report drawing?",-1,-1,1643000707183,0,0.9166666666666666
sona-38036,linear,over,trial,55,sender,100,0.5,5,39,39,33,0,-6,-151,-16,2173.2650864697343,1643000755233,"How many <b class=""r"">red</b> marbles did your opponent report drawing?",-1,-1,1643000755234,0,0.9166666666666666
sona-38036,linear,over,trial,57,sender,100,0.5,5,49,49,45,0,-4,-158,-13,2541.9831039874243,1643000780578,"How many <b class=""r"">red</b> marbles did you actually draw (before any changes)?",49,41,1643000780579,0,0.9166666666666666
sona-38036,linear,over,trial,59,sender,100,0.5,5,50,51,46,0,-4,-159,-17,2917.5761763945393,1643000810358,"How many <b class=""r"">red</b> marbles did you actually draw (before any changes)?",-1,-1,1643000780579,0,0.9166666666666666
sona-38036,linear,over,trial,61,sender,100,0.5,5,61,63,59,0,-2,-167,-11,2198.923238890283,1643000836885,"How many <b class=""r"">red</b> marbles did you actually draw (before any changes)?",-1,-1,1643000821123,0,0.9166666666666666
sona-38036,linear,over,trial,63,sender,100,0.5,5,76,81,78,2,-2,-170,-8,3207.969308569257,1643000875761,"How many <b class=""r"">red</b> marbles did you actually draw (before any changes)?",76,79,1643000875761,0,0.9166666666666666
sona-38036,linear,over,trial,65,sender,100,0.5,5,56,60,51,0,-5,-172,-11,2580.034091673885,1643000914541,"How many <b class=""r"">red</b> marbles did you actually draw (before any changes)?",-1,-1,1643000914541,0,0.9166666666666666
sona-38036,linear,over,trial,67,sender,100,0.5,5,59,76,73,14,-14,-161,-22,2752.6548189036803,1643001034046,"How many <b class=""r"">red</b> marbles did you actually draw (before any changes)?",59,59,1643001034046,0,0.9166666666666666
sona-38036,linear,over,trial,69,sender,100,0.5,5,37,38,34,0,-3,-166,-20,3032.4502585071314,1643001071074,"How many <b class=""r"">red</b> marbles did you actually draw (before any changes)?",-1,-1,1643001034046,0,0.9166666666666666
sona-38036,linear,over,trial,71,sender,100,0.5,5,79,89,85,6,-6,-164,-22,2135.602358321338,1643001220146,"How many <b class=""r"">red</b> marbles did you actually draw (before any changes)?",79,79,1643001220146,0,0.9166666666666666
sona-38036,linear,over,trial,77,sender,100,0.5,5,60,91,85,25,-25,-141,-63,2643.0348856765404,1643001790937,"How many <b class=""r"">red</b> marbles did you actually draw (before any changes)?",60,60,1643001790938,0,0.9166666666666666
sona-38036,linear,over,trial,83,sender,100,0.5,5,45,46,37,0,-8,-146,-89,2300.2159703268803,1643002114285,"How many <b class=""r"">red</b> marbles did your opponent report drawing?",-1,-1,1643002093059,0,0.9166666666666666
sona-38036,linear,over,trial,85,sender,100,0.5,5,52,56,47,0,-5,-151,-89,2181.228665087013,1643002145310,"How many <b class=""r"">red</b> marbles did your opponent report drawing?",-1,-1,1643002145311,0,0.9166666666666666
sona-38036,linear,over,trial,87,sender,100,0.5,5,48,50,42,0,-6,-164,-82,2537.693527627687,1643002179237,"How many <b class=""r"">red</b> marbles did your opponent report drawing?",-1,-1,1643002145311,0,0.9166666666666666
sona-38036,linear,over,trial,89,sender,100,0.5,5,42,18,15,0,-27,-170,-103,3083.3257505317324,1643002298519,"How many <b class=""r"">red</b> marbles did your opponent report drawing?",-1,-1,1643002145311,0,0.9166666666666666
sona-38036,linear,over,trial,91,sender,100,0.5,5,41,17,13,0,-28,-177,-124,2257.478130879731,1643002421899,"How many <b class=""r"">red</b> marbles did your opponent report drawing?",-1,-1,1643002308837,0,0.9166666666666666
sona-38036,linear,over,trial,95,sender,100,0.5,5,42,81,76,34,-34,-136,-165,3140.4346782089196,1643002831019,"How many <b class=""r"">red</b> marbles did your opponent report drawing?",-1,-1,1643002831021,0,0.9166666666666666
sona-32196,unif,over,trial,2,sender,100,0.5,5,29,61,57,28,-28,24,-24,3097.50123211725,1642306387773,"How many <b class=""r"">red</b> marbles did your opponent report drawing?",-1,-1,1642306331785,0,0.9166666666666666
sona-32196,unif,over,trial,4,sender,100,0.5,5,75,51,39,0,-36,18,-54,2131.9590256746988,1642306475236,"How many <b class=""r"">red</b> marbles did your opponent report drawing?",-1,-1,1642306331785,0,0.9166666666666666
sona-32196,unif,over,trial,6,sender,100,0.5,5,59,50,45,0,-14,13,-63,3181.9186367980615,1642306579174,"How many <b class=""r"">red</b> marbles did your opponent report drawing?",-1,-1,1642306507228,0,0.9166666666666666
sona-32196,unif,over,trial,8,sender,100,0.5,5,39,50,46,7,-7,18,-68,2314.1949443873555,1642306639268,"How many <b class=""r"">red</b> marbles did your opponent report drawing?",-1,-1,1642306507228,0,0.9166666666666666
sona-32196,unif,over,trial,10,sender,100,0.5,5,48,48,45,0,-3,12,-65,2341.6815534293787,1642306675868,"How many <b class=""r"">red</b> marbles did your opponent report drawing?",-1,-1,1642306675869,0,0.9166666666666666
sona-32196,unif,over,trial,12,sender,100,0.5,5,46,46,38,0,-8,7,-68,2501.8904285889057,1642306702234,"How many <b class=""r"">red</b> marbles did your opponent report drawing?",-1,-1,1642306675869,0,0.9166666666666666
sona-32196,unif,over,trial,14,sender,100,0.5,5,40,40,36,0,-4,1,-66,2072.2521764039498,1642306728126,"How many <b class=""r"">red</b> marbles did your opponent report drawing?",-1,-1,1642306675869,0,0.9166666666666666
sona-32196,unif,over,trial,16,sender,100,0.5,5,61,61,57,0,-4,-3,-66,2388.4340200129436,1642306756578,"How many <b class=""r"">red</b> marbles did you actually draw (before any changes)?",61,64,1642306756578,0,0.9166666666666666
sona-32196,unif,over,trial,18,sender,100,0.5,5,50,50,46,0,-4,-7,-66,2490.7061032061947,1642306791738,"How many <b class=""r"">red</b> marbles did you actually draw (before any changes)?",-1,-1,1642306756578,0,0.9166666666666666
sona-32196,unif,over,trial,20,sender,100,0.5,5,63,50,44,0,-19,-15,-77,2967.2787264679205,1642306834914,"How many <b class=""r"">red</b> marbles did you actually draw (before any changes)?",-1,-1,1642306834915,0,0.9166666666666666
sona-32196,unif,over,trial,22,sender,100,0.5,5,38,50,44,6,-6,-13,-79,2734.1530947014203,1642306881907,"How many <b class=""r"">red</b> marbles did you actually draw (before any changes)?",-1,-1,1642306834915,0,0.9166666666666666
sona-32196,unif,over,trial,24,sender,100,0.5,5,46,50,46,0,0,-17,-75,2610.4700264451467,1642306914888,"How many <b class=""r"">red</b> marbles did your opponent report drawing?",-1,-1,1642306892038,0,0.9166666666666666
sona-32196,unif,over,trial,26,sender,100,0.5,5,58,50,47,0,-11,-20,-83,2152.6523380351764,1642306945767,"How many <b class=""r"">red</b> marbles did your opponent report drawing?",-1,-1,1642306926198,0,0.9166666666666666
sona-32196,unif,over,trial,28,sender,100,0.5,5,27,49,46,19,-19,-5,-98,2419.8645889211725,1642306989649,"How many <b class=""r"">red</b> marbles did your opponent report drawing?",-1,-1,1642306926198,0,0.9166666666666666
sona-32196,unif,over,trial,30,sender,100,0.5,5,36,53,47,11,-11,2,-105,3171.7838875740285,1642307026228,"How many <b class=""r"">red</b> marbles did your opponent report drawing?",-1,-1,1642307026228,0,0.9166666666666666
sona-32196,unif,over,trial,32,sender,100,0.5,5,79,50,39,0,-40,-2,-141,2706.9485103514044,1642307086260,"How many <b class=""r"">red</b> marbles did your opponent report drawing?",-1,-1,1642307026228,0,0.9166666666666666
sona-32196,unif,over,trial,34,sender,100,0.5,5,67,49,40,0,-27,-8,-162,2131.512145724916,1642307123247,"How many <b class=""r"">red</b> marbles did your opponent report drawing?",-1,-1,1642307026228,0,0.9166666666666666
sona-32196,unif,over,trial,36,sender,100,0.5,5,20,43,36,16,-16,3,-173,2293.4634660784795,1642307170923,"How many <b class=""r"">red</b> marbles did your opponent report drawing?",-1,-1,1642307136696,0,0.9166666666666666
sona-32196,unif,over,trial,38,sender,100,0.5,5,88,50,46,0,-42,-1,-211,2499.145579173517,1642307225001,"How many <b class=""r"">red</b> marbles did you actually draw (before any changes)?",88,50,1642307225001,0,0.9166666666666666
sona-32196,unif,over,trial,40,sender,100,0.5,5,57,57,55,0,-2,-4,-210,3198.802106962421,1642307261786,"How many <b class=""r"">red</b> marbles did your opponent report drawing?",-1,-1,1642307261786,0,0.9166666666666666
sona-32196,unif,over,trial,42,sender,100,0.5,5,41,41,36,0,-5,-6,-213,2619.1999148970444,1642307281724,"How many <b class=""r"">red</b> marbles did your opponent report drawing?",-1,-1,1642307261786,0,0.9166666666666666
sona-32196,unif,over,trial,44,sender,100,0.5,5,38,38,37,0,-1,-14,-206,3060.85347026256,1642307313379,"How many <b class=""r"">red</b> marbles did your opponent report drawing?",-1,-1,1642307261786,0,0.9166666666666666
sona-32196,unif,over,trial,46,sender,100,0.5,5,21,21,16,0,-5,-19,-206,2075.342352794777,1642307333152,"How many <b class=""r"">red</b> marbles did you actually draw (before any changes)?",21,21,1642307333152,0,0.9166666666666666
sona-32196,unif,over,trial,48,sender,100,0.5,5,36,36,29,0,-7,-59,-213,2169.0858995035305,1642307362349,"How many <b class=""r"">red</b> marbles did you actually draw (before any changes)?",36,39,1642307362349,0,0.9166666666666666
sona-32196,unif,over,trial,50,sender,100,0.5,5,82,82,76,0,-6,-128,-219,2586.1113803759595,1642307391031,"How many <b class=""r"">red</b> marbles did you actually draw (before any changes)?",-1,-1,1642307391031,0,0.9166666666666666
sona-32196,unif,over,trial,52,sender,100,0.5,5,64,64,59,0,-5,-139,-213,2399.9823774088122,1642307407863,"How many <b class=""r"">red</b> marbles did you actually draw (before any changes)?",-1,-1,1642307391031,0,0.9166666666666666
sona-32196,unif,over,trial,54,sender,100,0.5,5,60,60,56,0,-4,-147,-209,3205.799273523868,1642307427887,"How many <b class=""r"">red</b> marbles did you actually draw (before any changes)?",-1,-1,1642307391031,0,0.9166666666666666
sona-32196,unif,over,trial,56,sender,100,0.5,5,40,40,33,0,-7,-152,-211,2517.2065369779325,1642307447346,"How many <b class=""r"">red</b> marbles did you actually draw (before any changes)?",-1,-1,1642307437083,0,0.9166666666666666
sona-32196,unif,over,trial,58,sender,100,0.5,5,72,72,66,0,-6,-156,-213,2758.2567477498396,1642307464323,"How many <b class=""r"">red</b> marbles did you actually draw (before any changes)?",-1,-1,1642307437083,0,0.9166666666666666
sona-32196,unif,over,trial,60,sender,100,0.5,5,58,58,54,0,-4,-158,-215,2787.1211755322283,1642307487345,"How many <b class=""r"">red</b> marbles did your opponent report drawing?",-1,-1,1642307487345,0,0.9166666666666666
sona-32196,unif,over,trial,62,sender,100,0.5,5,68,68,65,0,-3,-164,-212,2521.0371320321688,1642307505834,"How many <b class=""r"">red</b> marbles did your opponent report drawing?",-1,-1,1642307487345,0,0.9166666666666666
sona-32196,unif,over,trial,64,sender,100,0.5,5,59,59,55,0,-4,-169,-211,2999.5847683297297,1642307522046,"How many <b class=""r"">red</b> marbles did your opponent report drawing?",-1,-1,1642307487345,0,0.9166666666666666
sona-32196,unif,over,trial,66,sender,100,0.5,5,62,62,58,0,-4,-174,-210,2725.2340131494875,1642307545423,"How many <b class=""r"">red</b> marbles did your opponent report drawing?",-1,-1,1642307532949,0,0.9166666666666666
sona-32196,unif,over,trial,68,sender,100,0.5,5,27,27,23,0,-4,-179,-209,2716.1638750878,1642307564473,"How many <b class=""r"">red</b> marbles did your opponent report drawing?",-1,-1,1642307532949,0,0.9166666666666666
sona-32196,unif,over,trial,70,sender,100,0.5,5,46,46,42,0,-4,-180,-212,2399.140233227221,1642307582183,"How many <b class=""r"">red</b> marbles did your opponent report drawing?",-1,-1,1642307582183,0,0.9166666666666666
sona-32196,unif,over,trial,72,sender,100,0.5,5,49,49,44,0,-5,-183,-214,2727.933677344651,1642307600889,"How many <b class=""r"">red</b> marbles did your opponent report drawing?",-1,-1,1642307582183,0,0.9166666666666666
sona-32196,unif,over,trial,74,sender,100,0.5,5,49,50,40,0,-9,-190,-216,2068.759871684627,1642307621414,"How many <b class=""r"">red</b> marbles did your opponent report drawing?",-1,-1,1642307582183,0,0.9166666666666666
sona-32196,unif,over,trial,76,sender,100,0.5,5,58,50,43,0,-15,-193,-228,3215.010183095628,1642307662379,"How many <b class=""r"">red</b> marbles did your opponent report drawing?",-1,-1,1642307632840,0,0.9166666666666666
sona-32196,unif,over,trial,78,sender,100,0.5,5,24,49,44,20,-20,-176,-245,2947.005469976066,1642307713002,"How many <b class=""r"">red</b> marbles did your opponent report drawing?",-1,-1,1642307632840,0,0.9166666666666666
sona-32196,unif,over,trial,80,sender,100,0.5,5,55,50,47,0,-8,-178,-251,2927.750495115046,1642307738060,"How many <b class=""r"">red</b> marbles did your opponent report drawing?",-1,-1,1642307738060,0,0.9166666666666666
sona-32196,unif,over,trial,82,sender,100,0.5,5,28,51,46,18,-18,-164,-265,3049.492857185421,1642307784866,"How many <b class=""r"">red</b> marbles did your opponent report drawing?",-1,-1,1642307738060,0,0.9166666666666666
sona-32196,unif,over,trial,84,sender,100,0.5,5,18,51,45,27,-27,-142,-287,3234.212295255471,1642307843404,"How many <b class=""r"">red</b> marbles did your opponent report drawing?",-1,-1,1642307738060,0,0.9166666666666666
sona-32196,unif,over,trial,86,sender,100,0.5,5,46,52,47,1,-1,-148,-281,2281.6602066876017,1642307873681,"How many <b class=""r"">red</b> marbles did your opponent report drawing?",-1,-1,1642307855025,0,0.9166666666666666
sona-32196,unif,over,trial,88,sender,100,0.5,5,59,49,46,0,-13,-150,-292,2121.152462888721,1642307910783,"How many <b class=""r"">red</b> marbles did your opponent report drawing?",-1,-1,1642307855025,0,0.9166666666666666
sona-32196,unif,over,trial,90,sender,100,0.5,5,28,48,40,12,-12,-143,-299,2262.3251744734835,1642307961798,"How many <b class=""r"">red</b> marbles did your opponent report drawing?",-1,-1,1642307961798,0,0.9166666666666666
sona-32196,unif,over,trial,92,sender,100,0.5,5,56,51,44,0,-12,-147,-307,2512.1610094567513,1642307992360,"How many <b class=""r"">red</b> marbles did your opponent report drawing?",-1,-1,1642307961798,0,0.9166666666666666
sona-32196,unif,over,trial,94,sender,100,0.5,5,72,50,46,0,-26,-152,-328,3173.733094314199,1642308047860,"How many <b class=""r"">red</b> marbles did your opponent report drawing?",-1,-1,1642308003850,0,0.9166666666666666
sona-32196,unif,over,trial,96,sender,100,0.5,5,26,50,46,20,-20,-139,-341,2843.4709699562345,1642308095290,"How many <b class=""r"">red</b> marbles did your opponent report drawing?",-1,-1,1642308059386,0,0.9166666666666666
sona-32196,unif,over,trial,98,sender,100,0.5,5,44,49,46,2,-2,-147,-333,2151.089909448584,1642308125625,"How many <b class=""r"">red</b> marbles did your opponent report drawing?",-1,-1,1642308059386,0,0.9166666666666666
sona-32196,unif,over,trial,100,sender,100,0.5,5,36,51,50,14,-14,-141,-339,2359.320495555563,1642308159358,"How many <b class=""r"">red</b> marbles did your opponent report drawing?",-1,-1,1642308159358,0,0.9166666666666666
sona-36878,linear,over,trial,1,sender,100,0.5,5,56,59,51,0,-5,0,-5,2503.484614048135,1642311694733,"How many <b class=""r"">red</b> marbles did your opponent report drawing?",-1,-1,1642311632150,0,0.8333333333333334
sona-36878,linear,over,trial,3,sender,100,0.5,5,36,42,36,0,0,-3,-2,2164.7903902562516,1642311783531,"How many <b class=""r"">red</b> marbles did your opponent report drawing?",-1,-1,1642311632150,0,0.8333333333333334
sona-36878,linear,over,trial,5,sender,100,0.5,5,61,59,53,0,-8,-5,-10,2930.2993599961387,1642311862599,"How many <b class=""r"">red</b> marbles did your opponent report drawing?",-1,-1,1642311862599,0,0.8333333333333334
sona-36878,linear,over,trial,7,sender,100,0.5,5,54,45,41,0,-13,-7,-21,2141.0241367539347,1642311922459,"How many <b class=""r"">red</b> marbles did your opponent report drawing?",-1,-1,1642311888913,0,0.8333333333333334
sona-36878,linear,over,trial,9,sender,100,0.5,5,70,63,60,0,-10,-15,-23,2367.241951101303,1642311978978,"How many <b class=""r"">red</b> marbles did your opponent report drawing?",-1,-1,1642311888913,0,0.8333333333333334
sona-36878,linear,over,trial,11,sender,100,0.5,5,35,28,21,0,-14,-17,-37,2677.369319697003,1642312050786,"How many <b class=""r"">red</b> marbles did your opponent report drawing?",-1,-1,1642312011672,0,0.8333333333333334
sona-36878,linear,over,trial,13,sender,100,0.5,5,60,66,59,0,-1,-31,-24,2530.6495991900165,1642312104096,"How many <b class=""r"">red</b> marbles did your opponent report drawing?",-1,-1,1642312011672,0,0.8333333333333334
sona-36878,linear,over,trial,15,sender,100,0.5,5,85,90,90,5,-5,-36,-19,2959.3160073840454,1642312146412,"How many <b class=""r"">red</b> marbles did your opponent report drawing?",-1,-1,1642312146412,0,0.8333333333333334
sona-36878,linear,over,trial,17,sender,100,0.5,5,61,66,64,3,-3,-39,-16,3206.925437707423,1642312225980,"How many <b class=""r"">red</b> marbles did your opponent report drawing?",-1,-1,1642312146412,0,0.8333333333333334
sona-36878,linear,over,trial,19,sender,100,0.5,5,46,57,54,8,-8,-32,-24,2137.2727672677147,1642312290331,"How many <b class=""r"">red</b> marbles did your opponent report drawing?",-1,-1,1642312146412,0,0.8333333333333334
sona-36878,linear,over,trial,21,sender,100,0.5,5,36,42,36,0,0,-38,-18,2228.2381006221267,1642312332034,"How many <b class=""r"">red</b> marbles did your opponent report drawing?",-1,-1,1642312307707,0,0.8333333333333334
sona-36878,linear,over,trial,23,sender,100,0.5,5,53,48,43,0,-10,-51,-15,2942.0221221761963,1642312393536,"How many <b class=""r"">red</b> marbles did your opponent report drawing?",-1,-1,1642312356870,0,0.8333333333333334
sona-36878,linear,over,trial,25,sender,100,0.5,5,42,45,39,0,-3,-51,-18,2678.8263610656186,1642312441657,"How many <b class=""r"">red</b> marbles did your opponent report drawing?",-1,-1,1642312441657,0,0.8333333333333334
sona-36878,linear,over,trial,27,sender,100,0.5,5,39,37,35,0,-4,-55,-18,3215.7743166145174,1642312494028,"How many <b class=""r"">red</b> marbles did you actually draw (before any changes)?",39,39,1642312494028,0,0.8333333333333334
sona-36878,linear,over,trial,29,sender,100,0.5,5,50,50,48,0,-2,-63,-12,3086.357410698894,1642312545600,"How many <b class=""r"">red</b> marbles did you actually draw (before any changes)?",-1,-1,1642312494028,0,0.8333333333333334
sona-36878,linear,over,trial,31,sender,100,0.5,5,23,29,25,2,-2,-66,-9,2717.4420623251945,1642312596523,"How many <b class=""r"">red</b> marbles did you actually draw (before any changes)?",-1,-1,1642312556993,0,0.8333333333333334
sona-36878,linear,over,trial,33,sender,100,0.5,5,68,62,57,0,-11,-68,-20,2494.1502360776894,1642312652954,"How many <b class=""r"">red</b> marbles did you actually draw (before any changes)?",-1,-1,1642312556993,0,0.8333333333333334
sona-36878,linear,over,trial,35,sender,100,0.5,5,55,51,50,0,-5,-88,-5,2974.8950625676466,1642312728815,"How many <b class=""r"">red</b> marbles did you actually draw (before any changes)?",-1,-1,1642312728815,0,0.8333333333333334
sona-36878,linear,over,trial,37,sender,100,0.5,5,91,95,87,0,-4,-109,12,3153.4538154895736,1642312786620,"How many <b class=""r"">red</b> marbles did you actually draw (before any changes)?",-1,-1,1642312728815,0,0.8333333333333334
sona-36878,linear,over,trial,39,sender,100,0.5,5,30,41,33,3,-3,-119,22,2350.8607864745027,1642312840084,"How many <b class=""r"">red</b> marbles did you actually draw (before any changes)?",-1,-1,1642312728815,0,0.8333333333333334
sona-36878,linear,over,trial,41,sender,100,0.5,5,22,41,35,13,-13,-106,9,2593.120145994485,1642312926986,"How many <b class=""r"">red</b> marbles did you actually draw (before any changes)?",-1,-1,1642312861556,0,0.8333333333333334
sona-36878,linear,over,trial,43,sender,100,0.5,5,33,46,38,5,-5,-102,4,2460.34247442741,1642313058611,"How many <b class=""r"">red</b> marbles did you actually draw (before any changes)?",-1,-1,1642312861556,0,0.8333333333333334
sona-36878,linear,over,trial,45,sender,100,0.5,5,29,42,38,9,-9,-95,-5,3075.974828206209,1642313128124,"How many <b class=""r"">red</b> marbles did you actually draw (before any changes)?",-1,-1,1642313128124,0,0.8333333333333334
sona-36878,linear,over,trial,47,sender,100,0.5,5,36,53,46,10,-10,-88,-12,2590.489668126611,1642313216671,"How many <b class=""r"">red</b> marbles did you actually draw (before any changes)?",-1,-1,1642313128124,0,0.8333333333333334
sona-36878,linear,over,trial,49,sender,100,0.5,5,82,64,54,0,-28,-92,-36,2134.546020739637,1642313315976,"How many <b class=""r"">red</b> marbles did you actually draw (before any changes)?",-1,-1,1642313128124,0,0.8333333333333334
sona-36878,linear,over,trial,51,sender,100,0.5,5,62,42,40,0,-22,-96,-58,2453.143559976033,1642313445456,"How many <b class=""r"">red</b> marbles did you actually draw (before any changes)?",-1,-1,1642313341002,0,0.8333333333333334
sona-36878,linear,over,trial,53,sender,100,0.5,5,18,39,33,15,-15,-81,-73,2988.773121392028,1642313577791,"How many <b class=""r"">red</b> marbles did you actually draw (before any changes)?",18,18,1642313577791,0,0.8333333333333334
sona-36878,linear,over,trial,55,sender,100,0.5,5,64,61,59,0,-5,-82,-78,2747.988498378817,1642313649266,"How many <b class=""r"">red</b> marbles did you actually draw (before any changes)?",-1,-1,1642313649266,0,0.8333333333333334
sona-36878,linear,over,trial,57,sender,100,0.5,5,71,54,47,0,-24,-82,-102,2667.3690995957895,1642313736213,"How many <b class=""r"">red</b> marbles did you actually draw (before any changes)?",-1,-1,1642313649266,0,0.8333333333333334
sona-36878,linear,over,trial,59,sender,100,0.5,5,28,48,45,17,-17,-69,-119,3147.457981944331,1642313843209,"How many <b class=""r"">red</b> marbles did you actually draw (before any changes)?",-1,-1,1642313649266,0,0.8333333333333334
sona-36878,linear,over,trial,61,sender,100,0.5,5,37,56,50,13,-13,-58,-130,2253.1194667792943,1642313944119,"How many <b class=""r"">red</b> marbles did you actually draw (before any changes)?",-1,-1,1642313861874,0,0.8333333333333334
sona-36878,linear,over,trial,63,sender,100,0.5,5,35,52,47,12,-12,-60,-128,2495.505332138807,1642314043293,"How many <b class=""r"">red</b> marbles did you actually draw (before any changes)?",-1,-1,1642313861874,0,0.8333333333333334
sona-36878,linear,over,trial,65,sender,100,0.5,5,83,72,67,0,-16,-66,-144,2283.8135427379502,1642314126007,"How many <b class=""r"">red</b> marbles did you actually draw (before any changes)?",83,32,1642314126008,0,0.8333333333333334
sona-36878,linear,over,trial,67,sender,100,0.5,5,8,40,32,24,-24,-44,-166,3084.4361578835847,1642314840918,"How many <b class=""r"">red</b> marbles did your opponent report drawing?",-1,-1,1642314224042,0,0.8333333333333334
sona-36878,linear,over,trial,69,sender,100,0.5,5,46,46,39,0,-7,-48,-173,2193.4320484948703,1642314868730,"How many <b class=""r"">red</b> marbles did your opponent report drawing?",-1,-1,1642314224042,0,0.8333333333333334
sona-36878,linear,over,trial,71,sender,100,0.5,5,28,28,23,0,-5,-60,-178,2579.119884650822,1642314896964,"How many <b class=""r"">red</b> marbles did your opponent report drawing?",-1,-1,1642314881182,0,0.8333333333333334
sona-36878,linear,over,trial,73,sender,100,0.5,5,38,38,32,0,-6,-68,-176,2987.7964800573964,1642314928028,"How many <b class=""r"">red</b> marbles did your opponent report drawing?",-1,-1,1642314881182,0,0.8333333333333334
sona-36878,linear,over,trial,75,sender,100,0.5,5,42,42,38,0,-4,-75,-173,3008.3556417455147,1642314952132,"How many <b class=""r"">red</b> marbles did your opponent report drawing?",-1,-1,1642314952132,0,0.8333333333333334
sona-36878,linear,over,trial,77,sender,100,0.5,5,23,41,37,14,-14,-63,-185,2581.5082435296417,1642315067522,"How many <b class=""r"">red</b> marbles did your opponent report drawing?",-1,-1,1642314952132,0,0.8333333333333334
sona-36878,linear,over,trial,79,sender,100,0.5,5,36,36,29,0,-7,-69,-192,2148.597143928748,1642315090192,"How many <b class=""r"">red</b> marbles did your opponent report drawing?",-1,-1,1642314952132,0,0.8333333333333334
sona-36878,linear,over,trial,81,sender,100,0.5,5,33,45,40,7,-7,-69,-192,2876.643108648097,1642315256008,"How many <b class=""r"">red</b> marbles did your opponent report drawing?",-1,-1,1642315110265,0,0.8333333333333334
sona-36878,linear,over,trial,83,sender,100,0.5,5,57,67,60,3,-3,-69,-195,2680.043399236666,1642315300855,"How many <b class=""r"">red</b> marbles did your opponent report drawing?",-1,-1,1642315110265,0,0.8333333333333334
sona-36878,linear,over,trial,85,sender,100,0.5,5,43,52,47,4,-4,-68,-196,2435.532260916322,1642315346132,"How many <b class=""r"">red</b> marbles did your opponent report drawing?",-1,-1,1642315346132,0,0.8333333333333334
sona-36878,linear,over,trial,87,sender,100,0.5,5,38,49,46,8,-8,-62,-202,3007.577631101358,1642315400393,"How many <b class=""r"">red</b> marbles did your opponent report drawing?",-1,-1,1642315346132,0,0.8333333333333334
sona-36878,linear,over,trial,89,sender,100,0.5,5,59,59,55,0,-4,-63,-206,2643.8576605231024,1642315431981,"How many <b class=""r"">red</b> marbles did your opponent report drawing?",-1,-1,1642315346132,0,0.8333333333333334
sona-36878,linear,over,trial,91,sender,100,0.5,5,35,43,39,4,-4,-62,-210,2130.375563151839,1642315476156,"How many <b class=""r"">red</b> marbles did you actually draw (before any changes)?",35,78,1642315476156,0,0.8333333333333334
sona-36878,linear,over,trial,93,sender,100,0.5,5,70,61,58,0,-12,-64,-222,2560.114740764649,1642315535580,"How many <b class=""r"">red</b> marbles did you actually draw (before any changes)?",-1,-1,1642315476156,0,0.8333333333333334
sona-36878,linear,over,trial,95,sender,100,0.5,5,42,52,46,4,-4,-65,-226,3208.461859567677,1642315578700,"How many <b class=""r"">red</b> marbles did you actually draw (before any changes)?",-1,-1,1642315578700,0,0.8333333333333334
sona-36878,linear,over,trial,97,sender,100,0.5,5,47,47,40,0,-7,-73,-233,2892.454864679632,1642315603596,"How many <b class=""r"">red</b> marbles did you actually draw (before any changes)?",-1,-1,1642315578700,0,0.8333333333333334
sona-36878,linear,over,trial,99,sender,100,0.5,5,30,36,30,0,0,-79,-227,2156.5721369509915,1642315633498,"How many <b class=""r"">red</b> marbles did you actually draw (before any changes)?",-1,-1,1642315578700,0,0.8333333333333334
sona-30467,unif,under,trial,1,sender,100,0.5,5,69,69,75,0,-6,0,-6,2422.283518849833,1642403340496,"How many <b class=""r"">red</b> marbles did your opponent report drawing?",-1,-1,1642403313549,0,0.9166666666666666
sona-30467,unif,under,trial,3,sender,100,0.5,5,90,90,92,0,-2,-4,-4,2156.7303339607643,1642403361245,"How many <b class=""r"">red</b> marbles did your opponent report drawing?",-1,-1,1642403313549,0,0.9166666666666666
sona-30467,unif,under,trial,5,sender,100,0.5,5,32,41,45,0,-13,-11,-10,3095.5627988505216,1642403384364,"How many <b class=""r"">red</b> marbles did you actually draw (before any changes)?",32,32,1642403384364,0,0.9166666666666666
sona-30467,unif,under,trial,7,sender,100,0.5,5,72,72,76,0,-4,-16,-9,2074.2221991356737,1642403416183,"How many <b class=""r"">red</b> marbles did you actually draw (before any changes)?",-1,-1,1642403384364,0,0.9166666666666666
sona-30467,unif,under,trial,9,sender,100,0.5,5,43,43,48,0,-5,-25,-5,2093.367970390207,1642403434294,"How many <b class=""r"">red</b> marbles did you actually draw (before any changes)?",-1,-1,1642403384364,0,0.9166666666666666
sona-30467,unif,under,trial,11,sender,100,0.5,5,51,64,70,0,-19,-29,-20,2913.7258049469538,1642403467844,"How many <b class=""r"">red</b> marbles did you actually draw (before any changes)?",-1,-1,1642403447312,0,0.9166666666666666
sona-30467,unif,under,trial,13,sender,100,0.5,5,35,63,71,0,-36,-45,-40,2614.1636964819577,1642403503618,"How many <b class=""r"">red</b> marbles did you actually draw (before any changes)?",-1,-1,1642403447312,0,0.9166666666666666
sona-30467,unif,under,trial,15,sender,100,0.5,5,60,64,70,0,-10,-59,-36,2146.9515199800517,1642403526708,"How many <b class=""r"">red</b> marbles did your opponent report drawing?",-1,-1,1642403526708,0,0.9166666666666666
sona-30467,unif,under,trial,17,sender,100,0.5,5,71,71,78,0,-7,-76,-26,2307.5212723636128,1642403547865,"How many <b class=""r"">red</b> marbles did your opponent report drawing?",-1,-1,1642403526708,0,0.9166666666666666
sona-30467,unif,under,trial,19,sender,100,0.5,5,37,37,44,0,-7,-81,-28,2548.863357748571,1642403567070,"How many <b class=""r"">red</b> marbles did your opponent report drawing?",-1,-1,1642403526708,0,0.9166666666666666
sona-30467,unif,under,trial,21,sender,100,0.5,5,75,75,82,0,-7,-98,-18,2201.7903138226748,1642403586294,"How many <b class=""r"">red</b> marbles did your opponent report drawing?",-1,-1,1642403576494,0,0.9166666666666666
sona-30467,unif,under,trial,23,sender,100,0.5,5,56,56,60,0,-4,-106,-22,3095.2523716477126,1642403603181,"How many <b class=""r"">red</b> marbles did your opponent report drawing?",-1,-1,1642403576494,0,0.9166666666666666
sona-30467,unif,under,trial,27,sender,100,0.5,5,13,13,15,0,-2,-114,-24,3020.6492793471243,1642403637436,"How many <b class=""r"">red</b> marbles did you actually draw (before any changes)?",13,13,1642403637436,0,0.9166666666666666
sona-30467,unif,under,trial,29,sender,100,0.5,5,13,28,34,0,-21,-118,-41,2980.973823607934,1642403673015,"How many <b class=""r"">red</b> marbles did you actually draw (before any changes)?",13,19,1642403673015,0,0.9166666666666666
sona-30467,unif,under,trial,31,sender,100,0.5,5,44,44,48,0,-4,-125,-38,2224.666039603446,1642403700733,"How many <b class=""r"">red</b> marbles did you actually draw (before any changes)?",-1,-1,1642403691959,0,0.9166666666666666
sona-30467,unif,under,trial,33,sender,100,0.5,5,37,37,42,0,-5,-128,-40,2386.9463528627957,1642403715675,"How many <b class=""r"">red</b> marbles did you actually draw (before any changes)?",-1,-1,1642403691959,0,0.9166666666666666
sona-30467,unif,under,trial,35,sender,100,0.5,5,68,68,72,0,-4,-131,-41,2471.9043924495772,1642403731494,"How many <b class=""r"">red</b> marbles did you actually draw (before any changes)?",-1,-1,1642403731494,0,0.9166666666666666
sona-30467,unif,under,trial,37,sender,100,0.5,5,67,67,70,0,-3,-138,-37,2690.0044554434703,1642403748464,"How many <b class=""r"">red</b> marbles did you actually draw (before any changes)?",-1,-1,1642403731494,0,0.9166666666666666
sona-30467,unif,under,trial,39,sender,100,0.5,5,18,18,26,0,-8,-146,-37,2651.132071925157,1642403764844,"How many <b class=""r"">red</b> marbles did you actually draw (before any changes)?",-1,-1,1642403731494,0,0.9166666666666666
sona-30467,unif,under,trial,41,sender,100,0.5,5,74,67,72,2,-2,-149,-34,2602.35889804442,1642403832643,"How many <b class=""r"">red</b> marbles did you actually draw (before any changes)?",-1,-1,1642403774540,0,0.9166666666666666
sona-30467,unif,under,trial,43,sender,100,0.5,5,31,24,32,0,-1,-153,-31,2235.353541185354,1642403855624,"How many <b class=""r"">red</b> marbles did you actually draw (before any changes)?",-1,-1,1642403774540,0,0.9166666666666666
sona-30467,unif,under,trial,45,sender,100,0.5,5,56,47,51,5,-5,-148,-36,2889.4684594444516,1642403880288,"How many <b class=""r"">red</b> marbles did you actually draw (before any changes)?",-1,-1,1642403880288,0,0.9166666666666666
sona-30467,unif,under,trial,47,sender,100,0.5,5,50,59,62,0,-12,-158,-38,2323.085194575503,1642403924224,"How many <b class=""r"">red</b> marbles did you actually draw (before any changes)?",50,46,1642403924224,0,0.9166666666666666
sona-30467,unif,under,trial,49,sender,100,0.5,5,18,48,54,0,-36,-165,-67,3155.1196942534257,1642403972021,"How many <b class=""r"">red</b> marbles did you actually draw (before any changes)?",-1,-1,1642403924224,0,0.9166666666666666
sona-30467,unif,under,trial,51,sender,100,0.5,5,70,70,73,0,-3,-177,-58,2469.3587624207316,1642403993000,"How many <b class=""r"">red</b> marbles did you actually draw (before any changes)?",-1,-1,1642403980274,0,0.9166666666666666
sona-30467,unif,under,trial,53,sender,100,0.5,5,33,33,41,0,-8,-187,-56,2496.4490434573117,1642404012723,"How many <b class=""r"">red</b> marbles did you actually draw (before any changes)?",-1,-1,1642403980274,0,0.9166666666666666
sona-30467,unif,under,trial,55,sender,100,0.5,5,73,73,76,0,-3,-191,-55,2583.142557345738,1642404036475,"How many <b class=""r"">red</b> marbles did you actually draw (before any changes)?",-1,-1,1642404036475,0,0.9166666666666666
sona-30467,unif,under,trial,57,sender,100,0.5,5,29,29,36,0,-7,-199,-54,2555.2630136275566,1642404076821,"How many <b class=""r"">red</b> marbles did you actually draw (before any changes)?",-1,-1,1642404036475,0,0.9166666666666666
sona-30467,unif,under,trial,59,sender,100,0.5,5,66,66,70,0,-4,-235,-22,2129.471598947811,1642404094260,"How many <b class=""r"">red</b> marbles did you actually draw (before any changes)?",-1,-1,1642404036475,0,0.9166666666666666
sona-30467,unif,under,trial,61,sender,100,0.5,5,22,28,33,0,-11,-254,-14,2795.507296933267,1642404124984,"How many <b class=""r"">red</b> marbles did you actually draw (before any changes)?",-1,-1,1642404106092,0,0.9166666666666666
sona-30467,unif,under,trial,63,sender,100,0.5,5,3,85,93,0,-90,-260,-98,2822.859319407061,1642404185044,"How many <b class=""r"">red</b> marbles did you actually draw (before any changes)?",-1,-1,1642404106092,0,0.9166666666666666
sona-30467,unif,under,trial,65,sender,100,0.5,5,62,86,90,0,-28,-268,-118,2565.1824143817794,1642404211896,"How many <b class=""r"">red</b> marbles did you actually draw (before any changes)?",-1,-1,1642404211896,0,0.9166666666666666
sona-30467,unif,under,trial,67,sender,100,0.5,5,65,90,98,0,-33,-275,-144,2395.975907276528,1642404240564,"How many <b class=""r"">red</b> marbles did you actually draw (before any changes)?",-1,-1,1642404211896,0,0.9166666666666666
sona-30467,unif,under,trial,69,sender,100,0.5,5,35,55,60,0,-25,-283,-161,2215.465798433189,1642404264149,"How many <b class=""r"">red</b> marbles did you actually draw (before any changes)?",-1,-1,1642404211896,0,0.9166666666666666
sona-30467,unif,under,trial,71,sender,100,0.5,5,37,89,90,0,-53,-289,-208,3218.488151526824,1642404309354,"How many <b class=""r"">red</b> marbles did you actually draw (before any changes)?",-1,-1,1642404272907,0,0.9166666666666666
sona-30467,unif,under,trial,73,sender,100,0.5,5,71,71,75,0,-4,-296,-205,2145.0135998692967,1642404325467,"How many <b class=""r"">red</b> marbles did you actually draw (before any changes)?",-1,-1,1642404272907,0,0.9166666666666666
sona-30467,unif,under,trial,75,sender,100,0.5,5,23,63,65,0,-42,-304,-239,3084.024972819725,1642404362957,"How many <b class=""r"">red</b> marbles did you actually draw (before any changes)?",-1,-1,1642404362958,0,0.9166666666666666
sona-30467,unif,under,trial,77,sender,100,0.5,5,52,77,79,0,-27,-309,-261,2781.2380426511677,1642404396112,"How many <b class=""r"">red</b> marbles did you actually draw (before any changes)?",-1,-1,1642404362958,0,0.9166666666666666
sona-30467,unif,under,trial,79,sender,100,0.5,5,21,63,68,0,-47,-314,-303,2838.8808397450507,1642404435215,"How many <b class=""r"">red</b> marbles did you actually draw (before any changes)?",-1,-1,1642404362958,0,0.9166666666666666
sona-30467,unif,under,trial,81,sender,100,0.5,5,52,75,79,0,-27,-320,-324,2221.60694761786,1642404469554,"How many <b class=""r"">red</b> marbles did your opponent report drawing?",-1,-1,1642404444543,0,0.9166666666666666
sona-30467,unif,under,trial,83,sender,100,0.5,5,52,71,82,0,-30,-328,-346,2214.332022193971,1642404495638,"How many <b class=""r"">red</b> marbles did you actually draw (before any changes)?",52,52,1642404495638,0,0.9166666666666666
sona-30467,unif,under,trial,85,sender,100,0.5,5,30,65,68,0,-38,-341,-371,2547.354510672761,1642404535007,"How many <b class=""r"">red</b> marbles did you actually draw (before any changes)?",-1,-1,1642404535007,0,0.9166666666666666
sona-30467,unif,under,trial,87,sender,100,0.5,5,64,85,93,0,-29,-344,-397,2476.607742102635,1642404563087,"How many <b class=""r"">red</b> marbles did you actually draw (before any changes)?",64,64,1642404563087,0,0.9166666666666666
sona-30467,unif,under,trial,89,sender,100,0.5,5,51,76,79,0,-28,-353,-416,3035.6755453600204,1642404597854,"How many <b class=""r"">red</b> marbles did you actually draw (before any changes)?",-1,-1,1642404563087,0,0.9166666666666666
sona-30467,unif,under,trial,91,sender,100,0.5,5,63,81,85,0,-22,-360,-431,2262.6572622815684,1642404626654,"How many <b class=""r"">red</b> marbles did you actually draw (before any changes)?",-1,-1,1642404608301,0,0.9166666666666666
sona-30467,unif,under,trial,93,sender,100,0.5,5,84,88,93,0,-9,-365,-435,3043.477273979569,1642404648658,"How many <b class=""r"">red</b> marbles did you actually draw (before any changes)?",-1,-1,1642404608301,0,0.9166666666666666
sona-30467,unif,under,trial,95,sender,100,0.5,5,37,65,74,0,-37,-372,-465,2426.0717192713128,1642404678949,"How many <b class=""r"">red</b> marbles did you actually draw (before any changes)?",-1,-1,1642404678949,0,0.9166666666666666
sona-30467,unif,under,trial,97,sender,100,0.5,5,4,21,25,0,-21,-375,-483,3240.0083992881036,1642404707738,"How many <b class=""r"">red</b> marbles did you actually draw (before any changes)?",4,4,1642404707739,0,0.9166666666666666
sona-30467,unif,under,trial,99,sender,100,0.5,5,41,68,75,0,-34,-385,-507,2095.226952877393,1642404743398,"How many <b class=""r"">red</b> marbles did you actually draw (before any changes)?",-1,-1,1642404707739,0,0.9166666666666666
sona-37064,linear,under,trial,1,sender,100,0.5,5,47,51,54,0,-7,0,-7,3068.7720660833597,1642305499868,"How many <b class=""r"">red</b> marbles did you actually draw (before any changes)?",47,41,1642305499868,0,0.8333333333333334
sona-37064,linear,under,trial,3,sender,100,0.5,5,94,94,98,0,-4,-8,-11,2438.4397974707263,1642305536206,"How many <b class=""r"">red</b> marbles did you actually draw (before any changes)?",-1,-1,1642305499868,0,0.8333333333333334
sona-37064,linear,under,trial,5,sender,100,0.5,5,62,66,68,0,-6,-20,-17,2072.306829373155,1642305582672,"How many <b class=""r"">red</b> marbles did you actually draw (before any changes)?",-1,-1,1642305582672,0,0.8333333333333334
sona-37064,linear,under,trial,7,sender,100,0.5,5,57,61,64,0,-7,-34,-24,2223.521606828058,1642305635913,"How many <b class=""r"">red</b> marbles did you actually draw (before any changes)?",-1,-1,1642305582672,0,0.8333333333333334
sona-37064,linear,under,trial,9,sender,100,0.5,5,52,56,63,0,-11,-47,-35,2253.6157605095505,1642305665629,"How many <b class=""r"">red</b> marbles did you actually draw (before any changes)?",-1,-1,1642305582672,0,0.8333333333333334
sona-37064,linear,under,trial,11,sender,100,0.5,5,58,61,68,0,-10,-58,-45,2150.725516534982,1642305691995,"How many <b class=""r"">red</b> marbles did you actually draw (before any changes)?",-1,-1,1642305675969,0,0.8333333333333334
sona-37064,linear,under,trial,13,sender,100,0.5,5,17,16,19,0,-2,-61,-44,3161.624391102323,1642305722642,"How many <b class=""r"">red</b> marbles did you actually draw (before any changes)?",-1,-1,1642305675969,0,0.8333333333333334
sona-37064,linear,under,trial,15,sender,100,0.5,5,67,70,80,0,-13,-65,-57,2441.2415701944165,1642305752906,"How many <b class=""r"">red</b> marbles did you actually draw (before any changes)?",-1,-1,1642305752906,0,0.8333333333333334
sona-37064,linear,under,trial,17,sender,100,0.5,5,42,41,47,0,-5,-67,-62,3202.840897488836,1642305783934,"How many <b class=""r"">red</b> marbles did you actually draw (before any changes)?",-1,-1,1642305752906,0,0.8333333333333334
sona-37064,linear,under,trial,19,sender,100,0.5,5,36,40,51,0,-15,-71,-77,2698.953778528056,1642305817018,"How many <b class=""r"">red</b> marbles did you actually draw (before any changes)?",-1,-1,1642305752906,0,0.8333333333333334
sona-37064,linear,under,trial,21,sender,100,0.5,5,53,59,65,0,-12,-73,-89,2577.080269257778,1642305847573,"How many <b class=""r"">red</b> marbles did you actually draw (before any changes)?",-1,-1,1642305826671,0,0.8333333333333334
sona-37064,linear,under,trial,23,sender,100,0.5,5,77,81,86,0,-9,-77,-98,3122.0371339476073,1642305893508,"How many <b class=""r"">red</b> marbles did you actually draw (before any changes)?",-1,-1,1642305826671,0,0.8333333333333334
sona-37064,linear,under,trial,25,sender,100,0.5,5,51,57,64,0,-13,-84,-111,3226.2834667494785,1642305918577,"How many <b class=""r"">red</b> marbles did you actually draw (before any changes)?",-1,-1,1642305918577,0,0.8333333333333334
sona-37064,linear,under,trial,27,sender,100,0.5,5,66,69,75,0,-9,-87,-120,3025.163463229002,1642305957931,"How many <b class=""r"">red</b> marbles did your opponent report drawing?",-1,-1,1642305929569,0,0.8333333333333334
sona-37064,linear,under,trial,29,sender,100,0.5,5,40,45,49,0,-9,-89,-127,2365.675007327266,1642305979405,"How many <b class=""r"">red</b> marbles did your opponent report drawing?",-1,-1,1642305929569,0,0.8333333333333334
sona-37064,linear,under,trial,31,sender,100,0.5,5,67,69,71,0,-4,-92,-128,2759.6516794265062,1642306005132,"How many <b class=""r"">red</b> marbles did your opponent report drawing?",-1,-1,1642305990088,0,0.8333333333333334
sona-37064,linear,under,trial,33,sender,100,0.5,5,25,28,31,0,-6,-93,-134,2701.7883878234225,1642306029993,"How many <b class=""r"">red</b> marbles did your opponent report drawing?",-1,-1,1642305990088,0,0.8333333333333334
sona-37064,linear,under,trial,35,sender,100,0.5,5,63,65,72,0,-9,-95,-143,3107.7094520415453,1642306051376,"How many <b class=""r"">red</b> marbles did your opponent report drawing?",-1,-1,1642306051376,0,0.8333333333333334
sona-37064,linear,under,trial,37,sender,100,0.5,5,17,21,27,0,-10,-95,-153,2740.3349514800284,1642306074857,"How many <b class=""r"">red</b> marbles did your opponent report drawing?",-1,-1,1642306051376,0,0.8333333333333334
sona-37064,linear,under,trial,39,sender,100,0.5,5,67,69,75,0,-8,-98,-161,2146.0921094940986,1642306095346,"How many <b class=""r"">red</b> marbles did your opponent report drawing?",-1,-1,1642306051376,0,0.8333333333333334
sona-37064,linear,under,trial,41,sender,100,0.5,5,39,45,53,0,-14,-99,-175,3238.5829683552092,1642306120998,"How many <b class=""r"">red</b> marbles did you actually draw (before any changes)?",39,39,1642306120998,0,0.8333333333333334
sona-37064,linear,under,trial,43,sender,100,0.5,5,48,52,59,0,-11,-100,-186,2850.805194180505,1642306150931,"How many <b class=""r"">red</b> marbles did you actually draw (before any changes)?",-1,-1,1642306120998,0,0.8333333333333334
sona-37064,linear,under,trial,45,sender,100,0.5,5,44,47,49,0,-5,-103,-188,2723.7031599124125,1642306171548,"How many <b class=""r"">red</b> marbles did you actually draw (before any changes)?",-1,-1,1642306171548,0,0.8333333333333334
sona-37064,linear,under,trial,47,sender,100,0.5,5,39,43,45,0,-6,-104,-193,2711.552578810206,1642306202469,"How many <b class=""r"">red</b> marbles did your opponent report drawing?",-1,-1,1642306183040,0,0.8333333333333334
sona-37064,linear,under,trial,49,sender,100,0.5,5,77,77,81,0,-4,-106,-197,2523.581927151369,1642306222729,"How many <b class=""r"">red</b> marbles did your opponent report drawing?",-1,-1,1642306183040,0,0.8333333333333334
sona-37064,linear,under,trial,51,sender,100,0.5,5,56,57,60,0,-4,-109,-198,2390.4088485937805,1642306243878,"How many <b class=""r"">red</b> marbles did your opponent report drawing?",-1,-1,1642306233407,0,0.8333333333333334
sona-37064,linear,under,trial,53,sender,100,0.5,5,73,75,84,0,-11,-112,-206,2274.643867411041,1642306269559,"How many <b class=""r"">red</b> marbles did your opponent report drawing?",-1,-1,1642306233407,0,0.8333333333333334
sona-37064,linear,under,trial,55,sender,100,0.5,5,32,36,39,0,-7,-113,-212,3232.392633059927,1642306296840,"How many <b class=""r"">red</b> marbles did your opponent report drawing?",-1,-1,1642306296841,0,0.8333333333333334
sona-37064,linear,under,trial,57,sender,100,0.5,5,77,80,86,0,-9,-113,-221,3149.7285439781986,1642306327898,"How many <b class=""r"">red</b> marbles did your opponent report drawing?",-1,-1,1642306309839,0,0.8333333333333334
sona-37064,linear,under,trial,59,sender,100,0.5,5,80,82,90,0,-10,-116,-231,2148.1856260702234,1642306355013,"How many <b class=""r"">red</b> marbles did your opponent report drawing?",-1,-1,1642306338640,0,0.8333333333333334
sona-37064,linear,under,trial,61,sender,100,0.5,5,39,44,48,0,-9,-118,-238,2280.6400714645174,1642306377846,"How many <b class=""r"">red</b> marbles did your opponent report drawing?",-1,-1,1642306363006,0,0.8333333333333334
sona-37064,linear,under,trial,63,sender,100,0.5,5,64,67,69,0,-5,-120,-241,2225.7979369846107,1642306401622,"How many <b class=""r"">red</b> marbles did your opponent report drawing?",-1,-1,1642306363006,0,0.8333333333333334
sona-37064,linear,under,trial,65,sender,100,0.5,5,68,71,74,0,-6,-121,-246,3182.334155836692,1642306427376,"How many <b class=""r"">red</b> marbles did your opponent report drawing?",-1,-1,1642306427376,0,0.8333333333333334
sona-37064,linear,under,trial,69,sender,100,0.5,5,67,69,73,0,-6,-132,-246,2199.723477660519,1642306471626,"How many <b class=""r"">red</b> marbles did your opponent report drawing?",-1,-1,1642306427376,0,0.8333333333333334
sona-37064,linear,under,trial,71,sender,100,0.5,5,52,54,59,0,-7,-137,-248,3216.2255739765565,1642306492905,"How many <b class=""r"">red</b> marbles did you actually draw (before any changes)?",52,51,1642306492905,0,0.8333333333333334
sona-37064,linear,under,trial,73,sender,100,0.5,5,47,50,55,0,-8,-140,-253,2898.678282024228,1642306533210,"How many <b class=""r"">red</b> marbles did your opponent report drawing?",-1,-1,1642306512265,0,0.8333333333333334
sona-37064,linear,under,trial,75,sender,100,0.5,5,27,32,36,0,-9,-149,-253,3117.78847520247,1642306561120,"How many <b class=""r"">red</b> marbles did your opponent report drawing?",-1,-1,1642306561120,0,0.8333333333333334
sona-37064,linear,under,trial,77,sender,100,0.5,5,76,76,80,0,-4,-160,-246,2784.0960396921855,1642306584443,"How many <b class=""r"">red</b> marbles did your opponent report drawing?",-1,-1,1642306561120,0,0.8333333333333334
sona-37064,linear,under,trial,79,sender,100,0.5,5,43,44,49,0,-6,-161,-251,2389.6541001434084,1642306604015,"How many <b class=""r"">red</b> marbles did your opponent report drawing?",-1,-1,1642306561120,0,0.8333333333333334
sona-37064,linear,under,trial,81,sender,100,0.5,5,72,71,78,0,-6,-165,-257,3202.63711225991,1642306627802,"How many <b class=""r"">red</b> marbles did your opponent report drawing?",-1,-1,1642306615353,0,0.8333333333333334
sona-37064,linear,under,trial,83,sender,100,0.5,5,41,43,46,0,-5,-167,-260,2386.7823300928317,1642306646852,"How many <b class=""r"">red</b> marbles did your opponent report drawing?",-1,-1,1642306615353,0,0.8333333333333334
sona-37064,linear,under,trial,85,sender,100,0.5,5,48,48,55,0,-7,-187,-267,2681.3540300147956,1642306668152,"How many <b class=""r"">red</b> marbles did you actually draw (before any changes)?",48,48,1642306668152,0,0.8333333333333334
sona-37064,linear,under,trial,87,sender,100,0.5,5,44,48,51,0,-7,-208,-274,3185.599223834701,1642306697264,"How many <b class=""r"">red</b> marbles did you actually draw (before any changes)?",-1,-1,1642306668152,0,0.8333333333333334
sona-37064,linear,under,trial,89,sender,100,0.5,5,67,69,76,0,-9,-222,-283,2670.6480471542714,1642306718910,"How many <b class=""r"">red</b> marbles did you actually draw (before any changes)?",-1,-1,1642306668152,0,0.8333333333333334
sona-37064,linear,under,trial,91,sender,100,0.5,5,72,77,83,0,-11,-223,-294,2995.3910317131904,1642306747040,"How many <b class=""r"">red</b> marbles did you actually draw (before any changes)?",-1,-1,1642306730035,0,0.8333333333333334
sona-37064,linear,under,trial,93,sender,100,0.5,5,24,25,26,0,-2,-225,-296,2293.105854757645,1642306769095,"How many <b class=""r"">red</b> marbles did you actually draw (before any changes)?",-1,-1,1642306730035,0,0.8333333333333334
sona-37064,linear,under,trial,95,sender,100,0.5,5,74,74,80,0,-6,-230,-302,2201.768456061935,1642306789977,"How many <b class=""r"">red</b> marbles did your opponent report drawing?",-1,-1,1642306789978,0,0.8333333333333334
sona-37064,linear,under,trial,97,sender,100,0.5,5,76,81,86,0,-10,-243,-312,2292.210432035562,1642306814894,"How many <b class=""r"">red</b> marbles did your opponent report drawing?",-1,-1,1642306789978,0,0.8333333333333334
sona-37064,linear,under,trial,99,sender,100,0.5,5,18,21,26,0,-8,-252,-320,2338.4117942408657,1642306837060,"How many <b class=""r"">red</b> marbles did your opponent report drawing?",-1,-1,1642306789978,0,0.8333333333333334
sona-40732,unif,over,trial,1,sender,100,0.5,5,87,87,80,0,-7,0,-7,2522.726715581367,1642462030222,"How many <b class=""r"">red</b> marbles did you actually draw (before any changes)?",87,87,1642462030222,0,1
sona-40732,unif,over,trial,3,sender,100,0.5,5,20,22,20,0,0,-1,-6,2405.8940205089284,1642462077282,"How many <b class=""r"">red</b> marbles did you actually draw (before any changes)?",-1,-1,1642462030222,0,1
sona-40732,unif,over,trial,5,sender,100,0.5,5,50,52,44,0,-6,-3,-10,2953.774221830744,1642462184763,"How many <b class=""r"">red</b> marbles did you actually draw (before any changes)?",-1,-1,1642462184763,0,1
sona-40732,unif,over,trial,7,sender,100,0.5,5,82,82,79,0,-3,-6,-10,2563.448092140965,1642462271508,"How many <b class=""r"">red</b> marbles did you actually draw (before any changes)?",-1,-1,1642462184763,0,1
sona-40732,unif,over,trial,9,sender,100,0.5,5,42,65,57,15,-15,2,-18,3083.6654583632917,1642462395690,"How many <b class=""r"">red</b> marbles did you actually draw (before any changes)?",-1,-1,1642462184763,0,1
sona-40732,unif,over,trial,11,sender,100,0.5,5,48,55,49,1,-1,-6,-10,3032.0372205246877,1642462445516,"How many <b class=""r"">red</b> marbles did you actually draw (before any changes)?",-1,-1,1642462410565,0,1
sona-40732,unif,over,trial,13,sender,100,0.5,5,44,24,19,0,-25,-8,-35,2198.6556678975776,1642462496257,"How many <b class=""r"">red</b> marbles did you actually draw (before any changes)?",-1,-1,1642462410565,0,1
sona-40732,unif,over,trial,15,sender,100,0.5,5,54,30,28,0,-26,-12,-57,2746.3005483228526,1642462562752,"How many <b class=""r"">red</b> marbles did you actually draw (before any changes)?",-1,-1,1642462562752,0,1
sona-40732,unif,over,trial,17,sender,100,0.5,5,27,27,15,0,-12,-21,-60,3245.9220404913694,1642462606277,"How many <b class=""r"">red</b> marbles did you actually draw (before any changes)?",-1,-1,1642462562752,0,1
sona-40732,unif,over,trial,19,sender,100,0.5,5,53,53,43,0,-10,-38,-53,2276.1177534415137,1642462643457,"How many <b class=""r"">red</b> marbles did you actually draw (before any changes)?",-1,-1,1642462562752,0,1
sona-40732,unif,over,trial,21,sender,100,0.5,5,19,19,9,0,-10,-48,-53,2933.9136098474537,1642462670787,"How many <b class=""r"">red</b> marbles did you actually draw (before any changes)?",-1,-1,1642462655907,0,1
sona-40732,unif,over,trial,23,sender,100,0.5,5,73,80,73,0,0,-51,-50,2890.139003000287,1642462709180,"How many <b class=""r"">red</b> marbles did you actually draw (before any changes)?",-1,-1,1642462655907,0,1
sona-40732,unif,over,trial,25,sender,100,0.5,5,23,23,21,0,-2,-59,-44,2291.92731074548,1642462733703,"How many <b class=""r"">red</b> marbles did you actually draw (before any changes)?",-1,-1,1642462733703,0,1
sona-40732,unif,over,trial,27,sender,100,0.5,5,54,48,44,0,-10,-59,-54,2232.458994334267,1642462791180,"How many <b class=""r"">red</b> marbles did you actually draw (before any changes)?",-1,-1,1642462733703,0,1
sona-40732,unif,over,trial,29,sender,100,0.5,5,76,83,73,0,-3,-59,-57,2071.5583359247184,1642462869116,"How many <b class=""r"">red</b> marbles did you actually draw (before any changes)?",-1,-1,1642462733703,0,1
sona-40732,unif,over,trial,31,sender,100,0.5,5,65,17,12,0,-53,-63,-106,2559.7552582876383,1642462938217,"How many <b class=""r"">red</b> marbles did you actually draw (before any changes)?",-1,-1,1642462881302,0,1
sona-40732,unif,over,trial,33,sender,100,0.5,5,43,31,24,0,-19,-63,-125,3223.5261014730218,1642462970743,"How many <b class=""r"">red</b> marbles did you actually draw (before any changes)?",-1,-1,1642462881302,0,1
sona-40732,unif,over,trial,35,sender,100,0.5,5,45,40,37,0,-8,-65,-133,2275.7979810530715,1642463019297,"How many <b class=""r"">red</b> marbles did you actually draw (before any changes)?",-1,-1,1642463019297,0,1
sona-40732,unif,over,trial,37,sender,100,0.5,5,69,37,31,0,-38,-70,-171,2741.742435547165,1642463085184,"How many <b class=""r"">red</b> marbles did you actually draw (before any changes)?",-1,-1,1642463019297,0,1
sona-40732,unif,over,trial,39,sender,100,0.5,5,50,31,28,0,-22,-80,-183,2087.0596350661363,1642463126794,"How many <b class=""r"">red</b> marbles did you actually draw (before any changes)?",50,50,1642463126794,0,1
sona-40732,unif,over,trial,41,sender,100,0.5,5,46,24,17,0,-29,-81,-211,3042.6548066670484,1642463178329,"How many <b class=""r"">red</b> marbles did you actually draw (before any changes)?",-1,-1,1642463146877,0,1
sona-40732,unif,over,trial,43,sender,100,0.5,5,58,75,66,8,-8,-75,-217,2523.766423828134,1642463212230,"How many <b class=""r"">red</b> marbles did you actually draw (before any changes)?",-1,-1,1642463146877,0,1
sona-40732,unif,over,trial,45,sender,100,0.5,5,10,10,5,0,-5,-88,-209,2134.6190625055024,1642463233710,"How many <b class=""r"">red</b> marbles did you actually draw (before any changes)?",-1,-1,1642463233710,0,1
sona-40732,unif,over,trial,47,sender,100,0.5,5,53,28,24,0,-29,-89,-238,2582.5028526965275,1642463291969,"How many <b class=""r"">red</b> marbles did your opponent report drawing?",-1,-1,1642463255537,0,1
sona-40732,unif,over,trial,49,sender,100,0.5,5,22,22,16,0,-6,-90,-244,2427.779613979036,1642463326183,"How many <b class=""r"">red</b> marbles did your opponent report drawing?",-1,-1,1642463304713,0,1
sona-40732,unif,over,trial,51,sender,100,0.5,5,26,29,24,0,-2,-93,-246,2623.8260990250574,1642463357447,"How many <b class=""r"">red</b> marbles did your opponent report drawing?",-1,-1,1642463337684,0,1
sona-40732,unif,over,trial,53,sender,100,0.5,5,96,96,92,0,-4,-95,-248,2770.215444796303,1642463385490,"How many <b class=""r"">red</b> marbles did your opponent report drawing?",-1,-1,1642463337684,0,1
sona-40732,unif,over,trial,55,sender,100,0.5,5,82,82,77,0,-5,-98,-250,2305.2739781066075,1642463409628,"How many <b class=""r"">red</b> marbles did your opponent report drawing?",-1,-1,1642463409629,0,1
sona-40732,unif,over,trial,57,sender,100,0.5,5,44,32,26,0,-18,-99,-268,2526.6383626963325,1642463447277,"How many <b class=""r"">red</b> marbles did your opponent report drawing?",-1,-1,1642463409629,0,1
sona-40732,unif,over,trial,59,sender,100,0.5,5,20,19,14,0,-6,-102,-274,2207.267626660795,1642463479294,"How many <b class=""r"">red</b> marbles did your opponent report drawing?",-1,-1,1642463460464,0,1
sona-40732,unif,over,trial,61,sender,100,0.5,5,40,28,26,0,-14,-104,-288,2601.104307159585,1642463535391,"How many <b class=""r"">red</b> marbles did your opponent report drawing?",-1,-1,1642463491243,0,1
sona-40732,unif,over,trial,63,sender,100,0.5,5,61,76,68,7,-7,-98,-295,2996.9784853990404,1642463573853,"How many <b class=""r"">red</b> marbles did your opponent report drawing?",-1,-1,1642463491243,0,1
sona-40732,unif,over,trial,65,sender,100,0.5,5,63,71,66,3,-3,-103,-290,2203.3002686448713,1642463606877,"How many <b class=""r"">red</b> marbles did your opponent report drawing?",-1,-1,1642463606877,0,1
sona-40732,unif,over,trial,67,sender,100,0.5,5,35,31,29,0,-6,-110,-289,2801.3795849807498,1642463644352,"How many <b class=""r"">red</b> marbles did your opponent report drawing?",-1,-1,1642463606877,0,1
sona-40732,unif,over,trial,69,sender,100,0.5,5,82,82,77,0,-5,-110,-294,2353.9728899619945,1642463665792,"How many <b class=""r"">red</b> marbles did your opponent report drawing?",-1,-1,1642463606877,0,1
sona-40732,unif,over,trial,71,sender,100,0.5,5,49,76,71,22,-22,-96,-308,2687.8233151144536,1642463720026,"How many <b class=""r"">red</b> marbles did you actually draw (before any changes)?",49,49,1642463720026,0,1
sona-40732,unif,over,trial,73,sender,100,0.5,5,83,83,75,0,-8,-97,-315,3082.296635609725,1642463750965,"How many <b class=""r"">red</b> marbles did you actually draw (before any changes)?",-1,-1,1642463720026,0,1
sona-40732,unif,over,trial,75,sender,100,0.5,5,63,72,69,6,-6,-97,-315,2554.1657422705684,1642463786590,"How many <b class=""r"">red</b> marbles did you actually draw (before any changes)?",-1,-1,1642463786590,0,1
sona-40732,unif,over,trial,77,sender,100,0.5,5,43,22,16,0,-27,-98,-341,2971.3157115337567,1642463846406,"How many <b class=""r"">red</b> marbles did you actually draw (before any changes)?",-1,-1,1642463786590,0,1
sona-40732,unif,over,trial,79,sender,100,0.5,5,41,24,21,0,-20,-101,-358,2933.755058781153,1642463881202,"How many <b class=""r"">red</b> marbles did you actually draw (before any changes)?",-1,-1,1642463786590,0,1
sona-40732,unif,over,trial,81,sender,100,0.5,5,37,33,29,0,-8,-105,-362,2906.3657887041354,1642463913951,"How many <b class=""r"">red</b> marbles did you actually draw (before any changes)?",-1,-1,1642463894952,0,1
sona-40732,unif,over,trial,83,sender,100,0.5,5,36,34,31,0,-5,-107,-367,2126.8163825568895,1642463945557,"How many <b class=""r"">red</b> marbles did you actually draw (before any changes)?",36,38,1642463945558,0,1
sona-40732,unif,over,trial,85,sender,100,0.5,5,26,26,21,0,-5,-116,-363,2550.079781836035,1642463977265,"How many <b class=""r"">red</b> marbles did you actually draw (before any changes)?",-1,-1,1642463977265,0,1
sona-40732,unif,over,trial,87,sender,100,0.5,5,76,76,71,0,-5,-123,-361,2222.5653088707013,1642464000508,"How many <b class=""r"">red</b> marbles did you actually draw (before any changes)?",-1,-1,1642463977265,0,1
sona-40732,unif,over,trial,89,sender,100,0.5,5,18,18,16,0,-2,-124,-362,2859.3697282048333,1642464020032,"How many <b class=""r"">red</b> marbles did you actually draw (before any changes)?",-1,-1,1642463977265,0,1
sona-40732,unif,over,trial,91,sender,100,0.5,5,86,86,83,0,-3,-125,-365,3073.392519413316,1642464042661,"How many <b class=""r"">red</b> marbles did you actually draw (before any changes)?",-1,-1,1642464031659,0,1
sona-40732,unif,over,trial,93,sender,100,0.5,5,19,19,14,0,-5,-132,-363,2197.1739793973943,1642464063525,"How many <b class=""r"">red</b> marbles did you actually draw (before any changes)?",19,19,1642464063525,0,1
sona-40732,unif,over,trial,95,sender,100,0.5,5,46,32,24,0,-22,-133,-384,3027.3544711556615,1642464104380,"How many <b class=""r"">red</b> marbles did you actually draw (before any changes)?",-1,-1,1642464104380,0,1
sona-40732,unif,over,trial,97,sender,100,0.5,5,66,81,77,11,-11,-131,-386,2585.419697688142,1642464139956,"How many <b class=""r"">red</b> marbles did you actually draw (before any changes)?",-1,-1,1642464104380,0,1
sona-40732,unif,over,trial,99,sender,100,0.5,5,54,75,71,17,-17,-116,-403,2147.0901609631173,1642464179348,"How many <b class=""r"">red</b> marbles did you actually draw (before any changes)?",-1,-1,1642464104380,0,1
sona-29538,linear,over,trial,2,sender,100,0.5,5,55,62,54,0,-1,-3,-1,2367.5953462312364,1643002249289,"How many <b class=""r"">red</b> marbles did your opponent report drawing?",-1,-1,1643002187390,0,0.8333333333333334
sona-29538,linear,over,trial,4,sender,100,0.5,5,57,63,59,2,-2,-3,-1,2331.166755807951,1643002370771,"How many <b class=""r"">red</b> marbles did your opponent report drawing?",-1,-1,1643002187390,0,0.8333333333333334
sona-29538,linear,over,trial,6,sender,100,0.5,5,66,68,63,0,-3,-6,-4,2357.253156040615,1643002408788,"How many <b class=""r"">red</b> marbles did your opponent report drawing?",-1,-1,1643002390505,0,0.8333333333333334
sona-29538,linear,over,trial,8,sender,100,0.5,5,25,25,19,0,-6,-12,-4,2315.721073233749,1643002437654,"How many <b class=""r"">red</b> marbles did your opponent report drawing?",-1,-1,1643002390505,0,0.8333333333333334
sona-29538,linear,over,trial,10,sender,100,0.5,5,24,30,26,2,-2,-15,-1,2783.2691599217105,1643002500453,"How many <b class=""r"">red</b> marbles did your opponent report drawing?",-1,-1,1643002500453,0,0.8333333333333334
sona-29538,linear,over,trial,12,sender,100,0.5,5,60,55,49,0,-11,-18,-9,2637.769668970823,1643002548452,"How many <b class=""r"">red</b> marbles did your opponent report drawing?",-1,-1,1643002500453,0,0.8333333333333334
sona-29538,linear,over,trial,14,sender,100,0.5,5,18,14,8,0,-10,-21,-19,2956.4564521756756,1643002583718,"How many <b class=""r"">red</b> marbles did your opponent report drawing?",-1,-1,1643002500453,0,0.8333333333333334
sona-29538,linear,over,trial,16,sender,100,0.5,5,10,10,4,0,-6,-27,-25,2657.123252520209,1643002610585,"How many <b class=""r"">red</b> marbles did your opponent report drawing?",-1,-1,1643002592969,0,0.8333333333333334
sona-29538,linear,over,trial,18,sender,100,0.5,5,49,55,50,1,-1,-28,-24,2268.5820423072155,1643002650468,"How many <b class=""r"">red</b> marbles did your opponent report drawing?",-1,-1,1643002592969,0,0.8333333333333334
sona-29538,linear,over,trial,20,sender,100,0.5,5,39,39,35,0,-4,-31,-28,2771.6671239104803,1643002678784,"How many <b class=""r"">red</b> marbles did your opponent report drawing?",-1,-1,1643002678784,0,0.8333333333333334
sona-29538,linear,over,trial,22,sender,100,0.5,5,57,63,61,4,-4,-29,-32,2950.710356594056,1643002733034,"How many <b class=""r"">red</b> marbles did your opponent report drawing?",-1,-1,1643002678784,0,0.8333333333333334
sona-29538,linear,over,trial,24,sender,100,0.5,5,29,29,22,0,-7,-36,-39,3178.8008816485703,1643002769816,"How many <b class=""r"">red</b> marbles did your opponent report drawing?",-1,-1,1643002678784,0,0.8333333333333334
sona-29538,linear,over,trial,26,sender,100,0.5,5,17,17,9,0,-8,-36,-47,2938.9877902968274,1643002841499,"How many <b class=""r"">red</b> marbles did your opponent report drawing?",-1,-1,1643002781450,0,0.8333333333333334
sona-29538,linear,over,trial,28,sender,100,0.5,5,38,33,29,0,-9,-37,-56,2292.457648264621,1643002879631,"How many <b class=""r"">red</b> marbles did your opponent report drawing?",-1,-1,1643002781450,0,0.8333333333333334
sona-29538,linear,over,trial,30,sender,100,0.5,5,17,17,14,0,-3,-38,-58,2989.6543228992605,1643002960025,"How many <b class=""r"">red</b> marbles did your opponent report drawing?",-1,-1,1643002960025,0,0.8333333333333334
sona-29538,linear,over,trial,32,sender,100,0.5,5,40,46,40,0,0,-39,-58,3114.9345914104097,1643002994857,"How many <b class=""r"">red</b> marbles did your opponent report drawing?",-1,-1,1643002960025,0,0.8333333333333334
sona-29538,linear,over,trial,34,sender,100,0.5,5,10,10,7,0,-3,-45,-55,2275.9517207179074,1643003019740,"How many <b class=""r"">red</b> marbles did your opponent report drawing?",-1,-1,1643002960025,0,0.8333333333333334
sona-29538,linear,over,trial,36,sender,100,0.5,5,58,63,53,0,-5,-48,-60,2521.5062293132864,1643003055688,"How many <b class=""r"">red</b> marbles did your opponent report drawing?",-1,-1,1643003031790,0,0.8333333333333334
sona-29538,linear,over,trial,38,sender,100,0.5,5,17,17,12,0,-5,-49,-65,3117.1054936909527,1643003084338,"How many <b class=""r"">red</b> marbles did your opponent report drawing?",-1,-1,1643003031790,0,0.8333333333333334
sona-29538,linear,over,trial,40,sender,100,0.5,5,86,93,91,5,-5,-46,-68,3077.966877887075,1643003129404,"How many <b class=""r"">red</b> marbles did your opponent report drawing?",-1,-1,1643003129405,0,0.8333333333333334
sona-29538,linear,over,trial,42,sender,100,0.5,5,48,54,42,0,-6,-47,-74,2233.610651106268,1643003175387,"How many <b class=""r"">red</b> marbles did you actually draw (before any changes)?",48,47,1643003175387,0,0.8333333333333334
sona-29538,linear,over,trial,44,sender,100,0.5,5,80,85,78,0,-2,-53,-76,2485.156269908919,1643003228370,"How many <b class=""r"">red</b> marbles did you actually draw (before any changes)?",-1,-1,1643003175387,0,0.8333333333333334
sona-29538,linear,over,trial,46,sender,100,0.5,5,70,70,60,0,-10,-54,-85,2075.6166041700626,1643003256086,"How many <b class=""r"">red</b> marbles did you actually draw (before any changes)?",-1,-1,1643003243220,0,0.8333333333333334
sona-29538,linear,over,trial,48,sender,100,0.5,5,72,76,68,0,-4,-58,-89,2263.1350014414584,1643003305619,"How many <b class=""r"">red</b> marbles did you actually draw (before any changes)?",-1,-1,1643003243220,0,0.8333333333333334
sona-29538,linear,over,trial,50,sender,100,0.5,5,58,64,58,0,0,-62,-89,2242.9458085774777,1643003338768,"How many <b class=""r"">red</b> marbles did you actually draw (before any changes)?",58,46,1643003338768,0,0.8333333333333334
sona-29538,linear,over,trial,52,sender,100,0.5,5,22,30,24,2,-2,-62,-91,2364.587579517457,1643003398701,"How many <b class=""r"">red</b> marbles did you actually draw (before any changes)?",-1,-1,1643003338768,0,0.8333333333333334
sona-29538,linear,over,trial,54,sender,100,0.5,5,38,42,36,0,-2,-65,-93,2211.8295400639554,1643003433483,"How many <b class=""r"">red</b> marbles did you actually draw (before any changes)?",-1,-1,1643003338768,0,0.8333333333333334
sona-29538,linear,over,trial,56,sender,100,0.5,5,50,42,35,0,-15,-67,-106,2168.9164427531277,1643003477300,"How many <b class=""r"">red</b> marbles did you actually draw (before any changes)?",50,50,1643003477300,0,0.8333333333333334
sona-29538,linear,over,trial,58,sender,100,0.5,5,49,52,45,0,-4,-67,-110,3016.428459114602,1643003510950,"How many <b class=""r"">red</b> marbles did you actually draw (before any changes)?",49,48,1643003510950,0,0.8333333333333334
sona-29538,linear,over,trial,60,sender,100,0.5,5,35,35,31,0,-4,-67,-114,2270.0789583313936,1643003541899,"How many <b class=""r"">red</b> marbles did you actually draw (before any changes)?",-1,-1,1643003541899,0,0.8333333333333334
sona-29538,linear,over,trial,62,sender,100,0.5,5,75,75,72,0,-3,-76,-117,2799.5616951946176,1643003567532,"How many <b class=""r"">red</b> marbles did you actually draw (before any changes)?",-1,-1,1643003541899,0,0.8333333333333334
sona-29538,linear,over,trial,64,sender,100,0.5,5,38,38,32,0,-6,-77,-123,3152.3962289661804,1643003587548,"How many <b class=""r"">red</b> marbles did you actually draw (before any changes)?",-1,-1,1643003541899,0,0.8333333333333334
sona-29538,linear,over,trial,66,sender,100,0.5,5,80,85,81,1,-1,-77,-123,3141.260705771871,1643003619332,"How many <b class=""r"">red</b> marbles did you actually draw (before any changes)?",-1,-1,1643003599165,0,0.8333333333333334
sona-29538,linear,over,trial,68,sender,100,0.5,5,45,45,41,0,-4,-80,-127,2609.684183036705,1643003667063,"How many <b class=""r"">red</b> marbles did you actually draw (before any changes)?",-1,-1,1643003599165,0,0.8333333333333334
sona-29538,linear,over,trial,70,sender,100,0.5,5,19,25,20,1,-1,-79,-128,2222.6084799783794,1643003711297,"How many <b class=""r"">red</b> marbles did you actually draw (before any changes)?",-1,-1,1643003711297,0,0.8333333333333334
sona-29538,linear,over,trial,72,sender,100,0.5,5,43,45,40,0,-3,-82,-128,2824.620888796064,1643003740863,"How many <b class=""r"">red</b> marbles did you actually draw (before any changes)?",43,47,1643003740863,0,0.8333333333333334
sona-29538,linear,over,trial,76,sender,100,0.5,5,65,70,67,2,-2,-80,-135,2773.3226679614636,1643003822978,"How many <b class=""r"">red</b> marbles did you actually draw (before any changes)?",-1,-1,1643003798078,0,0.8333333333333334
sona-29538,linear,over,trial,78,sender,100,0.5,5,53,60,53,0,0,-82,-133,2625.975880180322,1643003859544,"How many <b class=""r"">red</b> marbles did you actually draw (before any changes)?",-1,-1,1643003798078,0,0.8333333333333334
sona-29538,linear,over,trial,80,sender,100,0.5,5,40,45,39,0,-1,-83,-134,3009.4007063072686,1643003925443,"How many <b class=""r"">red</b> marbles did your opponent report drawing?",-1,-1,1643003925443,0,0.8333333333333334
sona-29538,linear,over,trial,82,sender,100,0.5,5,85,90,85,0,0,-86,-134,2080.9464522483345,1643003957927,"How many <b class=""r"">red</b> marbles did your opponent report drawing?",-1,-1,1643003925443,0,0.8333333333333334
sona-29538,linear,over,trial,84,sender,100,0.5,5,34,35,31,0,-3,-87,-137,2886.500997133835,1643003984208,"How many <b class=""r"">red</b> marbles did your opponent report drawing?",-1,-1,1643003925443,0,0.8333333333333334
sona-29538,linear,over,trial,86,sender,100,0.5,5,34,40,36,2,-2,-88,-136,2300.4070018585808,1643004023009,"How many <b class=""r"">red</b> marbles did your opponent report drawing?",-1,-1,1643003997159,0,0.8333333333333334
sona-29538,linear,over,trial,88,sender,100,0.5,5,47,51,45,0,-2,-89,-137,2649.9669069552747,1643004055311,"How many <b class=""r"">red</b> marbles did your opponent report drawing?",-1,-1,1643003997159,0,0.8333333333333334
sona-29538,linear,over,trial,90,sender,100,0.5,5,82,87,81,0,-1,-90,-137,2312.5563494076523,1643004091127,"How many <b class=""r"">red</b> marbles did your opponent report drawing?",-1,-1,1643004091127,0,0.8333333333333334
sona-29538,linear,over,trial,92,sender,100,0.5,5,35,40,36,1,-1,-90,-137,2114.6954364224143,1643004124074,"How many <b class=""r"">red</b> marbles did your opponent report drawing?",-1,-1,1643004091127,0,0.8333333333333334
sona-29538,linear,over,trial,94,sender,100,0.5,5,67,70,66,0,-1,-91,-137,2735.949777912886,1643004148657,"How many <b class=""r"">red</b> marbles did your opponent report drawing?",-1,-1,1643004091127,0,0.8333333333333334
sona-29538,linear,over,trial,96,sender,100,0.5,5,88,91,89,1,-1,-94,-134,2208.880191533811,1643004179826,"How many <b class=""r"">red</b> marbles did your opponent report drawing?",-1,-1,1643004157941,0,0.8333333333333334
sona-29538,linear,over,trial,98,sender,100,0.5,5,54,60,56,2,-2,-95,-133,2825.60463082096,1643004214373,"How many <b class=""r"">red</b> marbles did you actually draw (before any changes)?",54,56,1643004214373,0,0.8333333333333334
sona-29538,linear,over,trial,100,sender,100,0.5,5,74,80,76,2,-2,-94,-135,2118.8358531540857,1643004250638,"How many <b class=""r"">red</b> marbles did you actually draw (before any changes)?",-1,-1,1643004250638,0,0.8333333333333334
sona-26767,unif,over,trial,1,sender,100,0.5,5,51,43,43,0,-8,0,-8,2899.76895982092,1642619203055,"How many <b class=""r"">red</b> marbles did you actually draw (before any changes)?",51,51,1642619203055,0,0.9166666666666666
sona-26767,unif,over,trial,3,sender,100,0.5,5,23,15,12,0,-11,-1,-18,2112.290905097586,1642619269291,"How many <b class=""r"">red</b> marbles did your opponent report drawing?",-1,-1,1642619233373,0,0.9166666666666666
sona-26767,unif,over,trial,5,sender,100,0.5,5,65,58,55,0,-10,-9,-28,2341.251174197276,1642619325575,"How many <b class=""r"">red</b> marbles did your opponent report drawing?",-1,-1,1642619325575,0,0.9166666666666666
sona-26767,unif,over,trial,7,sender,100,0.5,5,66,59,52,0,-14,-9,-42,2970.31867451398,1642619386058,"How many <b class=""r"">red</b> marbles did your opponent report drawing?",-1,-1,1642619325575,0,0.9166666666666666
sona-26767,unif,over,trial,9,sender,100,0.5,5,65,59,56,0,-9,-24,-36,3170.9136449193156,1642619437073,"How many <b class=""r"">red</b> marbles did your opponent report drawing?",-1,-1,1642619325575,0,0.9166666666666666
sona-26767,unif,over,trial,11,sender,100,0.5,5,31,57,49,18,-18,-20,-40,2161.4356443315387,1642619514640,"How many <b class=""r"">red</b> marbles did your opponent report drawing?",-1,-1,1642619460410,0,0.9166666666666666
