subjID,cost,goal,exptPart,trialNumber,roleCurrent,marblesSampled,probRed,lambda,k,ksay,kest,playerTrialScore,oppTrialScore,playerTotalScore,oppTotalScore,waitTime,responseTime,catchQuestion,catchKey,catchResponse,catchTime,trialTime,accuracy
sona-36244,linear,over,trial,1,receiver,100,0.5,5,76,81,75,-1,0,-1,0,6331.44103468915,1642854061813,"How many <b class=""r"">red</b> marbles did your opponent report drawing?",-1,-1,1642854021498,0,0.8333333333333334
sona-36244,linear,over,trial,2,sender,100,0.5,5,13,13,9,0,-4,-1,-4,2113.327977605919,1642854077474,"How many <b class=""r"">red</b> marbles did your opponent report drawing?",-1,-1,1642854021498,0,0.8333333333333334
sona-36244,linear,over,trial,3,receiver,100,0.5,5,89,97,90,-1,1,-2,-3,6194.264928715096,1642854105419,"How many <b class=""r"">red</b> marbles did your opponent report drawing?",-1,-1,1642854021498,0,0.8333333333333334
sona-36244,linear,over,trial,4,sender,100,0.5,5,36,53,46,10,-10,8,-13,2292.9053476395784,1642854175091,"How many <b class=""r"">red</b> marbles did your opponent report drawing?",-1,-1,1642854021498,0,0.8333333333333334
sona-36244,linear,over,trial,5,receiver,100,0.5,5,66,68,58,-8,0,0,-13,6818.3757935867925,1642854192229,"How many <b class=""r"">red</b> marbles did your opponent report drawing?",-1,-1,1642854192229,0,0.8333333333333334
sona-36244,linear,over,trial,6,sender,100,0.5,5,29,46,38,9,-9,9,-22,2237.569283561956,1642854264487,"How many <b class=""r"">red</b> marbles did your opponent report drawing?",-1,-1,1642854192229,0,0.8333333333333334
sona-36244,linear,over,trial,7,receiver,100,0.5,5,88,92,85,-3,0,6,-22,6912.529170438946,1642854276124,"How many <b class=""r"">red</b> marbles did your opponent report drawing?",-1,-1,1642854192229,0,0.8333333333333334
sona-36244,linear,over,trial,8,sender,100,0.5,5,58,58,56,0,-2,6,-24,2468.620930342988,1642854284965,"How many <b class=""r"">red</b> marbles did you actually draw (before any changes)?",58,42,1642854284966,0,0.8333333333333334
sona-36244,linear,over,trial,9,receiver,100,0.5,5,38,41,35,-3,0,3,-24,5642.96090641106,1642854319395,"How many <b class=""r"">red</b> marbles did you actually draw (before any changes)?",-1,-1,1642854284966,0,0.8333333333333334
sona-36244,linear,over,trial,10,sender,100,0.5,5,83,83,78,0,-5,3,-29,2765.6411654182066,1642854333490,"How many <b class=""r"">red</b> marbles did you actually draw (before any changes)?",83,83,1642854333490,0,0.8333333333333334
sona-36244,linear,over,trial,11,receiver,100,0.5,5,53,59,50,-3,0,0,-29,5343.400659546887,1642854351704,"How many <b class=""r"">red</b> marbles did you actually draw (before any changes)?",-1,-1,1642854333490,0,0.8333333333333334
sona-36244,linear,over,trial,12,sender,100,0.5,5,73,73,72,0,-1,0,-30,2429.0750916062166,1642854361023,"How many <b class=""r"">red</b> marbles did you actually draw (before any changes)?",-1,-1,1642854333490,0,0.8333333333333334
sona-36244,linear,over,trial,13,receiver,100,0.5,5,67,73,67,0,0,0,-30,5857.728968262819,1642854382559,"How many <b class=""r"">red</b> marbles did you actually draw (before any changes)?",-1,-1,1642854333490,0,0.8333333333333334
sona-36244,linear,over,trial,14,sender,100,0.5,5,46,46,42,0,-4,0,-34,2608.238274946319,1642854398965,"How many <b class=""r"">red</b> marbles did you actually draw (before any changes)?",46,46,1642854398965,0,0.8333333333333334
sona-36244,linear,over,trial,15,receiver,100,0.5,5,55,59,51,-4,0,-4,-34,5181.42150778611,1642854425492,"How many <b class=""r"">red</b> marbles did you actually draw (before any changes)?",-1,-1,1642854425492,0,0.8333333333333334
sona-36244,linear,over,trial,16,sender,100,0.5,5,57,57,52,0,-5,-4,-39,2079.0078443318853,1642854450472,"How many <b class=""r"">red</b> marbles did you actually draw (before any changes)?",57,57,1642854450472,0,0.8333333333333334
sona-36244,linear,over,trial,17,receiver,100,0.5,5,70,75,69,-1,0,-5,-39,5202.760976050282,1642854468772,"How many <b class=""r"">red</b> marbles did you actually draw (before any changes)?",-1,-1,1642854450472,0,0.8333333333333334
sona-36244,linear,over,trial,18,sender,100,0.5,5,92,92,84,0,-8,-5,-47,2563.509926897623,1642854478127,"How many <b class=""r"">red</b> marbles did you actually draw (before any changes)?",-1,-1,1642854450472,0,0.8333333333333334
sona-36244,linear,over,trial,19,receiver,100,0.5,5,69,76,70,-1,1,-6,-46,6303.122495870587,1642854492707,"How many <b class=""r"">red</b> marbles did you actually draw (before any changes)?",-1,-1,1642854450472,0,0.8333333333333334
sona-36244,linear,over,trial,20,sender,100,0.5,5,46,51,48,2,-2,-4,-48,2202.764643070655,1642854517029,"How many <b class=""r"">red</b> marbles did you actually draw (before any changes)?",-1,-1,1642854517029,0,0.8333333333333334
sona-36244,linear,over,trial,21,receiver,100,0.5,5,79,83,78,-1,0,-5,-48,5477.1390641311555,1642854529736,"How many <b class=""r"">red</b> marbles did you actually draw (before any changes)?",-1,-1,1642854517029,0,0.8333333333333334
sona-36244,linear,over,trial,22,sender,100,0.5,5,43,51,45,2,-2,-3,-50,3074.2438992860784,1642854567007,"How many <b class=""r"">red</b> marbles did you actually draw (before any changes)?",-1,-1,1642854517029,0,0.8333333333333334
sona-36244,linear,over,trial,23,receiver,100,0.5,5,49,51,49,0,0,-3,-50,6346.233800721582,1642854578698,"How many <b class=""r"">red</b> marbles did you actually draw (before any changes)?",-1,-1,1642854517029,0,0.8333333333333334
sona-36244,linear,over,trial,24,sender,100,0.5,5,48,48,45,0,-3,-3,-53,2230.734341702817,1642854588369,"How many <b class=""r"">red</b> marbles did you actually draw (before any changes)?",-1,-1,1642854517029,0,0.8333333333333334
sona-36244,linear,over,trial,25,receiver,100,0.5,5,79,82,77,-2,0,-5,-53,6527.075011950141,1642854601458,"How many <b class=""r"">red</b> marbles did you actually draw (before any changes)?",-1,-1,1642854601458,0,0.8333333333333334
sona-36244,linear,over,trial,26,sender,100,0.5,5,91,91,80,0,-11,-5,-64,2704.2691609249177,1642854611786,"How many <b class=""r"">red</b> marbles did you actually draw (before any changes)?",-1,-1,1642854601458,0,0.8333333333333334
sona-36244,linear,over,trial,27,receiver,100,0.5,5,26,27,25,-1,0,-6,-64,5926.6124678713495,1642854625810,"How many <b class=""r"">red</b> marbles did you actually draw (before any changes)?",-1,-1,1642854601458,0,0.8333333333333334
sona-36244,linear,over,trial,28,sender,100,0.5,5,19,19,13,0,-6,-6,-70,2281.9910173384947,1642854650301,"How many <b class=""r"">red</b> marbles did you actually draw (before any changes)?",-1,-1,1642854601458,0,0.8333333333333334
sona-36244,linear,over,trial,29,receiver,100,0.5,5,53,58,51,-2,0,-8,-70,5275.972410589309,1642854662217,"How many <b class=""r"">red</b> marbles did you actually draw (before any changes)?",-1,-1,1642854601458,0,0.8333333333333334
sona-36244,linear,over,trial,30,sender,100,0.5,5,76,76,72,0,-4,-8,-74,2466.114331290977,1642854671815,"How many <b class=""r"">red</b> marbles did you actually draw (before any changes)?",-1,-1,1642854671815,0,0.8333333333333334
sona-36244,linear,over,trial,31,receiver,100,0.5,5,84,91,88,-4,4,-12,-70,6471.892605788189,1642854685383,"How many <b class=""r"">red</b> marbles did you actually draw (before any changes)?",-1,-1,1642854671815,0,0.8333333333333334
sona-36244,linear,over,trial,32,sender,100,0.5,5,70,70,67,0,-3,-12,-73,2971.548989589448,1642854701214,"How many <b class=""r"">red</b> marbles did you actually draw (before any changes)?",-1,-1,1642854671815,0,0.8333333333333334
sona-36244,linear,over,trial,33,receiver,100,0.5,5,39,49,45,-6,6,-18,-67,6206.4927750177085,1642854711699,"How many <b class=""r"">red</b> marbles did you actually draw (before any changes)?",-1,-1,1642854671815,0,0.8333333333333334
sona-36244,linear,over,trial,34,sender,100,0.5,5,44,44,39,0,-5,-18,-72,2182.844460923903,1642854723681,"How many <b class=""r"">red</b> marbles did you actually draw (before any changes)?",-1,-1,1642854671815,0,0.8333333333333334
sona-36244,linear,over,trial,35,receiver,100,0.5,5,31,39,35,-4,4,-22,-68,5884.468629563691,1642854736382,"How many <b class=""r"">red</b> marbles did you actually draw (before any changes)?",-1,-1,1642854736382,0,0.8333333333333334
sona-36244,linear,over,trial,36,sender,100,0.5,5,76,80,75,0,-1,-22,-69,2248.3255990194166,1642854791879,"How many <b class=""r"">red</b> marbles did you actually draw (before any changes)?",-1,-1,1642854736382,0,0.8333333333333334
sona-36244,linear,over,trial,37,receiver,100,0.5,5,39,41,35,-4,0,-26,-69,7376.549107225004,1642854806023,"How many <b class=""r"">red</b> marbles did you actually draw (before any changes)?",-1,-1,1642854736382,0,0.8333333333333334
sona-36244,linear,over,trial,38,sender,100,0.5,5,52,52,42,0,-10,-26,-79,2167.98136370057,1642854815387,"How many <b class=""r"">red</b> marbles did you actually draw (before any changes)?",-1,-1,1642854736382,0,0.8333333333333334
sona-36244,linear,over,trial,39,receiver,100,0.5,5,66,70,65,-1,0,-27,-79,5648.102949159036,1642854842491,"How many <b class=""r"">red</b> marbles did you actually draw (before any changes)?",-1,-1,1642854736382,0,0.8333333333333334
sona-36244,linear,over,trial,40,sender,100,0.5,5,25,37,29,4,-4,-23,-83,2670.9423861138266,1642854993628,"How many <b class=""r"">red</b> marbles did you actually draw (before any changes)?",-1,-1,1642854993628,0,0.8333333333333334
sona-36244,linear,over,trial,41,receiver,100,0.5,5,15,19,25,-10,10,-33,-73,5331.546671983039,1642855036805,"How many <b class=""r"">red</b> marbles did you actually draw (before any changes)?",-1,-1,1642854993628,0,0.8333333333333334
sona-36244,linear,over,trial,42,sender,100,0.5,5,53,53,50,0,-3,-33,-76,2191.2214605688205,1642855045956,"How many <b class=""r"">red</b> marbles did you actually draw (before any changes)?",-1,-1,1642854993628,0,0.8333333333333334
sona-36244,linear,over,trial,43,receiver,100,0.5,5,25,30,25,0,0,-33,-76,5272.341194108351,1642855099346,"How many <b class=""r"">red</b> marbles did you actually draw (before any changes)?",-1,-1,1642854993628,0,0.8333333333333334
sona-36244,linear,over,trial,44,sender,100,0.5,5,26,26,23,0,-3,-33,-79,2190.5795542143132,1642855107291,"How many <b class=""r"">red</b> marbles did you actually draw (before any changes)?",-1,-1,1642854993628,0,0.8333333333333334
sona-36244,linear,over,trial,45,receiver,100,0.5,5,39,44,40,-1,1,-34,-78,5141.381806242463,1642855122356,"How many <b class=""r"">red</b> marbles did you actually draw (before any changes)?",-1,-1,1642855122356,0,0.8333333333333334
sona-36244,linear,over,trial,46,sender,100,0.5,5,73,73,67,0,-6,-34,-84,2591.933089906867,1642855135844,"How many <b class=""r"">red</b> marbles did you actually draw (before any changes)?",-1,-1,1642855122356,0,0.8333333333333334
sona-36244,linear,over,trial,47,receiver,100,0.5,5,49,54,50,-1,1,-35,-83,5568.936518014964,1642855145666,"How many <b class=""r"">red</b> marbles did you actually draw (before any changes)?",-1,-1,1642855122356,0,0.8333333333333334
sona-36244,linear,over,trial,48,sender,100,0.5,5,76,76,73,0,-3,-35,-86,3177.1839352108705,1642855188239,"How many <b class=""r"">red</b> marbles did you actually draw (before any changes)?",-1,-1,1642855122356,0,0.8333333333333334
sona-36244,linear,over,trial,49,receiver,100,0.5,5,20,27,19,-1,0,-36,-86,5241.872363299197,1642855201304,"How many <b class=""r"">red</b> marbles did you actually draw (before any changes)?",-1,-1,1642855122356,0,0.8333333333333334
sona-36244,linear,over,trial,50,sender,100,0.5,5,64,64,60,0,-4,-36,-90,2468.0369168611583,1642855208187,"How many <b class=""r"">red</b> marbles did you actually draw (before any changes)?",-1,-1,1642855208187,0,0.8333333333333334
sona-36244,linear,over,trial,51,receiver,100,0.5,5,45,50,45,0,0,-36,-90,5616.132890884175,1642855219739,"How many <b class=""r"">red</b> marbles did you actually draw (before any changes)?",-1,-1,1642855208187,0,0.8333333333333334
sona-36244,linear,over,trial,52,sender,100,0.5,5,50,50,45,0,-5,-36,-95,2361.528904736743,1642855226823,"How many <b class=""r"">red</b> marbles did you actually draw (before any changes)?",-1,-1,1642855208187,0,0.8333333333333334
sona-36244,linear,over,trial,53,receiver,100,0.5,5,58,63,60,-2,2,-38,-93,6695.799377066762,1642855269922,"How many <b class=""r"">red</b> marbles did you actually draw (before any changes)?",-1,-1,1642855208187,0,0.8333333333333334
sona-36244,linear,over,trial,54,sender,100,0.5,5,56,56,56,0,0,-38,-93,2620.3552076866863,1642855283061,"How many <b class=""r"">red</b> marbles did you actually draw (before any changes)?",-1,-1,1642855208187,0,0.8333333333333334
sona-36244,linear,over,trial,55,receiver,100,0.5,5,78,84,80,-2,2,-40,-91,6461.678804929431,1642855294101,"How many <b class=""r"">red</b> marbles did your opponent report drawing?",84,84,1642855294102,0,0.8333333333333334
sona-36244,linear,over,trial,56,sender,100,0.5,5,83,83,77,0,-6,-40,-97,2378.325137527312,1642855313794,"How many <b class=""r"">red</b> marbles did you actually draw (before any changes)?",83,59,1642855313794,0,0.8333333333333334
sona-36244,linear,over,trial,57,receiver,100,0.5,5,24,30,26,-2,2,-42,-95,5685.352978182922,1642855367199,"How many <b class=""r"">red</b> marbles did you actually draw (before any changes)?",-1,-1,1642855313794,0,0.8333333333333334
sona-36244,linear,over,trial,58,sender,100,0.5,5,12,12,7,0,-5,-42,-100,3111.807682083526,1642855377723,"How many <b class=""r"">red</b> marbles did you actually draw (before any changes)?",12,12,1642855377723,0,0.8333333333333334
sona-36244,linear,over,trial,59,receiver,100,0.5,5,72,77,70,-2,0,-44,-100,6323.155364625241,1642855427872,"How many <b class=""r"">red</b> marbles did you actually draw (before any changes)?",-1,-1,1642855377723,0,0.8333333333333334
sona-36244,linear,over,trial,60,sender,100,0.5,5,34,34,33,0,-1,-44,-101,2845.548581194212,1642855438223,"How many <b class=""r"">red</b> marbles did you actually draw (before any changes)?",-1,-1,1642855438223,0,0.8333333333333334
sona-36244,linear,over,trial,61,receiver,100,0.5,5,66,69,60,-6,0,-50,-101,5531.265733797747,1642855449870,"How many <b class=""r"">red</b> marbles did you actually draw (before any changes)?",-1,-1,1642855438223,0,0.8333333333333334
sona-36244,linear,over,trial,62,sender,100,0.5,5,46,56,55,9,-9,-41,-110,3005.1289462577215,1642855483065,"How many <b class=""r"">red</b> marbles did you actually draw (before any changes)?",-1,-1,1642855438223,0,0.8333333333333334
sona-36244,linear,over,trial,63,receiver,100,0.5,5,54,55,50,-4,0,-45,-110,5441.2136219541435,1642855494350,"How many <b class=""r"">red</b> marbles did you actually draw (before any changes)?",-1,-1,1642855438223,0,0.8333333333333334
sona-36244,linear,over,trial,64,sender,100,0.5,5,81,81,78,0,-3,-45,-113,2906.942569800673,1642855505194,"How many <b class=""r"">red</b> marbles did you actually draw (before any changes)?",-1,-1,1642855438223,0,0.8333333333333334
sona-36244,linear,over,trial,65,receiver,100,0.5,5,25,33,29,-4,4,-49,-109,6857.475610577642,1642855554876,"How many <b class=""r"">red</b> marbles did you actually draw (before any changes)?",-1,-1,1642855554876,0,0.8333333333333334
sona-36244,linear,over,trial,66,sender,100,0.5,5,15,15,13,0,-2,-49,-111,2153.7390165066954,1642855566611,"How many <b class=""r"">red</b> marbles did you actually draw (before any changes)?",-1,-1,1642855554876,0,0.8333333333333334
sona-36244,linear,over,trial,67,receiver,100,0.5,5,45,53,50,-5,5,-54,-106,7477.495730780467,1642855583547,"How many <b class=""r"">red</b> marbles did you actually draw (before any changes)?",-1,-1,1642855554876,0,0.8333333333333334
sona-36244,linear,over,trial,68,sender,100,0.5,5,62,62,58,0,-4,-54,-110,3181.892124182352,1642855603406,"How many <b class=""r"">red</b> marbles did you actually draw (before any changes)?",-1,-1,1642855554876,0,0.8333333333333334
sona-36244,linear,over,trial,69,receiver,100,0.5,5,46,49,45,-1,0,-55,-110,5134.964376607837,1642855615146,"How many <b class=""r"">red</b> marbles did you actually draw (before any changes)?",-1,-1,1642855554876,0,0.8333333333333334
sona-36244,linear,over,trial,70,sender,100,0.5,5,57,57,54,0,-3,-55,-113,2555.074385341235,1642855778486,"How many <b class=""r"">red</b> marbles did you actually draw (before any changes)?",-1,-1,1642855778486,0,0.8333333333333334
sona-36244,linear,over,trial,71,receiver,100,0.5,5,66,73,72,-6,6,-61,-107,7135.694919212646,1642855792518,"How many <b class=""r"">red</b> marbles did you actually draw (before any changes)?",-1,-1,1642855778486,0,0.8333333333333334
sona-36244,linear,over,trial,72,sender,100,0.5,5,84,84,82,0,-2,-61,-109,2104.033311521822,1642855801375,"How many <b class=""r"">red</b> marbles did you actually draw (before any changes)?",-1,-1,1642855778486,0,0.8333333333333334
sona-36244,linear,over,trial,73,receiver,100,0.5,5,75,78,74,-1,0,-62,-109,7248.334901825341,1642855843928,"How many <b class=""r"">red</b> marbles did you actually draw (before any changes)?",-1,-1,1642855778486,0,0.8333333333333334
sona-36244,linear,over,trial,74,sender,100,0.5,5,64,64,58,0,-6,-62,-115,2265.6053127288515,1642855853592,"How many <b class=""r"">red</b> marbles did you actually draw (before any changes)?",-1,-1,1642855778486,0,0.8333333333333334
sona-36244,linear,over,trial,75,receiver,100,0.5,5,47,54,50,-3,3,-65,-112,6481.526648033765,1642855873416,"How many <b class=""r"">red</b> marbles did you actually draw (before any changes)?",-1,-1,1642855873416,0,0.8333333333333334
sona-36244,linear,over,trial,76,sender,100,0.5,5,53,53,48,0,-5,-65,-117,2277.7080094472803,1642855894361,"How many <b class=""r"">red</b> marbles did you actually draw (before any changes)?",53,53,1642855894361,0,0.8333333333333334
sona-36244,linear,over,trial,77,receiver,100,0.5,5,48,54,50,-2,2,-67,-115,7158.53089827413,1642855922819,"How many <b class=""r"">red</b> marbles did you actually draw (before any changes)?",-1,-1,1642855894361,0,0.8333333333333334
sona-36244,linear,over,trial,78,sender,100,0.5,5,55,70,63,8,-8,-59,-123,2939.866596043115,1642855976346,"How many <b class=""r"">red</b> marbles did you actually draw (before any changes)?",55,50,1642855976346,0,0.8333333333333334
sona-36244,linear,over,trial,79,receiver,100,0.5,5,14,15,12,-2,0,-61,-123,5151.128064044203,1642855997111,"How many <b class=""r"">red</b> marbles did you actually draw (before any changes)?",-1,-1,1642855976346,0,0.8333333333333334
sona-36244,linear,over,trial,80,sender,100,0.5,5,35,27,23,0,-12,-61,-135,2562.996041985747,1642856042906,"How many <b class=""r"">red</b> marbles did you actually draw (before any changes)?",-1,-1,1642856042906,0,0.8333333333333334
sona-36244,linear,over,trial,81,receiver,100,0.5,5,55,63,59,-4,4,-65,-131,5978.997823107624,1642856055607,"How many <b class=""r"">red</b> marbles did you actually draw (before any changes)?",-1,-1,1642856042906,0,0.8333333333333334
sona-36244,linear,over,trial,82,sender,100,0.5,5,51,51,47,0,-4,-65,-135,2485.9934372591515,1642856066771,"How many <b class=""r"">red</b> marbles did you actually draw (before any changes)?",-1,-1,1642856042906,0,0.8333333333333334
sona-36244,linear,over,trial,83,receiver,100,0.5,5,46,50,45,-1,0,-66,-135,6964.000016090033,1642856077861,"How many <b class=""r"">red</b> marbles did you actually draw (before any changes)?",-1,-1,1642856042906,0,0.8333333333333334
sona-36244,linear,over,trial,84,sender,100,0.5,5,87,87,82,0,-5,-66,-140,2838.742809547961,1642856087710,"How many <b class=""r"">red</b> marbles did you actually draw (before any changes)?",-1,-1,1642856042906,0,0.8333333333333334
sona-36244,linear,over,trial,85,receiver,100,0.5,5,56,59,61,-5,5,-71,-135,5612.484236521088,1642856104310,"How many <b class=""r"">red</b> marbles did you actually draw (before any changes)?",-1,-1,1642856104310,0,0.8333333333333334
sona-36244,linear,over,trial,86,sender,100,0.5,5,31,22,16,0,-15,-71,-150,2078.003412256257,1642856136566,"How many <b class=""r"">red</b> marbles did you actually draw (before any changes)?",-1,-1,1642856104310,0,0.8333333333333334
sona-36244,linear,over,trial,87,receiver,100,0.5,5,61,64,61,0,0,-71,-150,5430.336423624707,1642856145660,"How many <b class=""r"">red</b> marbles did you actually draw (before any changes)?",-1,-1,1642856104310,0,0.8333333333333334
sona-36244,linear,over,trial,88,sender,100,0.5,5,36,36,35,0,-1,-71,-151,2170.0820428418792,1642856152543,"How many <b class=""r"">red</b> marbles did you actually draw (before any changes)?",-1,-1,1642856104310,0,0.8333333333333334
sona-36244,linear,over,trial,89,receiver,100,0.5,5,74,78,73,-1,0,-72,-151,6403.275825844659,1642856163394,"How many <b class=""r"">red</b> marbles did you actually draw (before any changes)?",-1,-1,1642856104310,0,0.8333333333333334
sona-36244,linear,over,trial,90,sender,100,0.5,5,51,51,48,0,-3,-72,-154,2580.6019700021066,1642856172372,"How many <b class=""r"">red</b> marbles did you actually draw (before any changes)?",-1,-1,1642856172372,0,0.8333333333333334
sona-36244,linear,over,trial,91,receiver,100,0.5,5,35,39,36,-1,1,-73,-153,7398.667514368685,1642856187368,"How many <b class=""r"">red</b> marbles did you actually draw (before any changes)?",-1,-1,1642856172372,0,0.8333333333333334
sona-36244,linear,over,trial,92,sender,100,0.5,5,16,16,15,0,-1,-73,-154,3245.9013305096405,1642856195537,"How many <b class=""r"">red</b> marbles did you actually draw (before any changes)?",-1,-1,1642856172372,0,0.8333333333333334
sona-36244,linear,over,trial,93,receiver,100,0.5,5,53,56,52,-1,0,-74,-154,5302.489784847095,1642856204897,"How many <b class=""r"">red</b> marbles did you actually draw (before any changes)?",-1,-1,1642856172372,0,0.8333333333333334
sona-36244,linear,over,trial,94,sender,100,0.5,5,35,35,31,0,-4,-74,-158,2630.398181616482,1642856212994,"How many <b class=""r"">red</b> marbles did you actually draw (before any changes)?",35,35,1642856212994,0,0.8333333333333334
sona-36244,linear,over,trial,95,receiver,100,0.5,5,51,55,51,0,0,-74,-158,6677.593103127361,1642856230267,"How many <b class=""r"">red</b> marbles did you actually draw (before any changes)?",-1,-1,1642856230267,0,0.8333333333333334
sona-36244,linear,over,trial,96,sender,100,0.5,5,60,60,53,0,-7,-74,-165,2065.514536703363,1642856242963,"How many <b class=""r"">red</b> marbles did you actually draw (before any changes)?",-1,-1,1642856230267,0,0.8333333333333334
sona-36244,linear,over,trial,97,receiver,100,0.5,5,61,69,62,-1,1,-75,-164,5502.861234942045,1642856252091,"How many <b class=""r"">red</b> marbles did you actually draw (before any changes)?",-1,-1,1642856230267,0,0.8333333333333334
sona-36244,linear,over,trial,98,sender,100,0.5,5,47,47,44,0,-3,-75,-167,2410.660854038745,1642856260020,"How many <b class=""r"">red</b> marbles did you actually draw (before any changes)?",-1,-1,1642856230267,0,0.8333333333333334
sona-36244,linear,over,trial,99,receiver,100,0.5,5,83,88,83,0,0,-75,-167,6454.434303717271,1642856270024,"How many <b class=""r"">red</b> marbles did you actually draw (before any changes)?",-1,-1,1642856230267,0,0.8333333333333334
sona-36244,linear,over,trial,100,sender,100,0.5,5,67,67,65,0,-2,-75,-169,2915.6800492457405,1642856278677,"How many <b class=""r"">red</b> marbles did you actually draw (before any changes)?",-1,-1,1642856278677,0,0.8333333333333334
sona-36182,unif,over,trial,1,receiver,100,0.5,5,15,22,24,-9,9,-9,9,6609.489301173322,1642281280363,"How many <b class=""r"">red</b> marbles did your opponent report drawing?",-1,-1,1642281248409,0,0.9166666666666666
sona-36182,unif,over,trial,2,sender,100,0.5,5,67,71,70,3,-3,-6,6,2893.408146181612,1642281303071,"How many <b class=""r"">red</b> marbles did your opponent report drawing?",-1,-1,1642281248409,0,0.9166666666666666
sona-36182,unif,over,trial,3,receiver,100,0.5,5,68,71,66,-2,0,-8,6,5912.230100965827,1642281316434,"How many <b class=""r"">red</b> marbles did your opponent report drawing?",-1,-1,1642281248409,0,0.9166666666666666
sona-36182,unif,over,trial,4,sender,100,0.5,5,53,56,52,0,-1,-8,5,2362.728734171768,1642281332526,"How many <b class=""r"">red</b> marbles did your opponent report drawing?",-1,-1,1642281248409,0,0.9166666666666666
sona-36182,unif,over,trial,5,receiver,100,0.5,5,65,72,66,-1,1,-9,6,5940.373701104187,1642281343220,"How many <b class=""r"">red</b> marbles did your opponent report drawing?",72,72,1642281343220,0,0.9166666666666666
sona-36182,unif,over,trial,6,sender,100,0.5,5,38,41,38,0,0,-9,6,2968.0107382349943,1642281369112,"How many <b class=""r"">red</b> marbles did your opponent report drawing?",-1,-1,1642281343220,0,0.9166666666666666
sona-36182,unif,over,trial,7,receiver,100,0.5,5,61,63,60,-1,0,-10,6,5184.578837743598,1642281380726,"How many <b class=""r"">red</b> marbles did your opponent report drawing?",-1,-1,1642281343220,0,0.9166666666666666
sona-36182,unif,over,trial,8,sender,100,0.5,5,32,37,33,1,-1,-9,5,3196.7529916054077,1642281396001,"How many <b class=""r"">red</b> marbles did your opponent report drawing?",-1,-1,1642281343220,0,0.9166666666666666
sona-36182,unif,over,trial,9,receiver,100,0.5,5,30,38,32,-2,2,-11,7,5332.134124506638,1642281407267,"How many <b class=""r"">red</b> marbles did your opponent report drawing?",-1,-1,1642281343220,0,0.9166666666666666
sona-36182,unif,over,trial,10,sender,100,0.5,5,35,42,33,0,-2,-11,5,2354.1292581075168,1642281422555,"How many <b class=""r"">red</b> marbles did your opponent report drawing?",-1,-1,1642281422555,0,0.9166666666666666
sona-36182,unif,over,trial,11,receiver,100,0.5,5,73,76,73,0,0,-11,5,5836.566937054584,1642281437279,"How many <b class=""r"">red</b> marbles did your opponent report drawing?",-1,-1,1642281422555,0,0.9166666666666666
sona-36182,unif,over,trial,12,sender,100,0.5,5,62,62,56,0,-6,-11,-1,2953.793155338377,1642281448181,"How many <b class=""r"">red</b> marbles did your opponent report drawing?",-1,-1,1642281422555,0,0.9166666666666666
sona-36182,unif,over,trial,13,receiver,100,0.5,5,42,46,44,-2,2,-13,1,6682.702125756772,1642281461538,"How many <b class=""r"">red</b> marbles did your opponent report drawing?",-1,-1,1642281422555,0,0.9166666666666666
sona-36182,unif,over,trial,14,sender,100,0.5,5,62,65,64,2,-2,-11,-1,2167.3196479042836,1642281472264,"How many <b class=""r"">red</b> marbles did your opponent report drawing?",-1,-1,1642281422555,0,0.9166666666666666
sona-36182,unif,over,trial,15,receiver,100,0.5,5,51,54,53,-2,2,-13,1,5993.8661944652395,1642281482752,"How many <b class=""r"">red</b> marbles did your opponent report drawing?",-1,-1,1642281482752,0,0.9166666666666666
sona-36182,unif,over,trial,16,sender,100,0.5,5,28,36,31,3,-3,-10,-2,2306.602096024737,1642281500445,"How many <b class=""r"">red</b> marbles did your opponent report drawing?",-1,-1,1642281482752,0,0.9166666666666666
sona-36182,unif,over,trial,17,receiver,100,0.5,5,36,43,40,-4,4,-14,2,6841.95644659314,1642281513081,"How many <b class=""r"">red</b> marbles did your opponent report drawing?",-1,-1,1642281482752,0,0.9166666666666666
sona-36182,unif,over,trial,18,sender,100,0.5,5,40,44,40,0,0,-14,2,2579.3524950903584,1642281526446,"How many <b class=""r"">red</b> marbles did your opponent report drawing?",-1,-1,1642281482752,0,0.9166666666666666
sona-36182,unif,over,trial,19,receiver,100,0.5,5,61,66,58,-3,0,-17,2,5352.538467585722,1642281542697,"How many <b class=""r"">red</b> marbles did your opponent report drawing?",-1,-1,1642281482752,0,0.9166666666666666
sona-36182,unif,over,trial,20,sender,100,0.5,5,13,36,31,18,-18,1,-16,3226.2985314320845,1642281568252,"How many <b class=""r"">red</b> marbles did your opponent report drawing?",-1,-1,1642281568252,0,0.9166666666666666
sona-36182,unif,over,trial,21,receiver,100,0.5,5,26,30,28,-2,2,-1,-14,7488.453642972085,1642281585831,"How many <b class=""r"">red</b> marbles did your opponent report drawing?",-1,-1,1642281568252,0,0.9166666666666666
sona-36182,unif,over,trial,22,sender,100,0.5,5,79,79,75,0,-4,-1,-18,2386.524648679979,1642281595841,"How many <b class=""r"">red</b> marbles did your opponent report drawing?",-1,-1,1642281568252,0,0.9166666666666666
sona-36182,unif,over,trial,23,receiver,100,0.5,5,40,51,45,-5,5,-6,-13,6526.652184305374,1642281606863,"How many <b class=""r"">red</b> marbles did your opponent report drawing?",51,51,1642281606863,0,0.9166666666666666
sona-36182,unif,over,trial,24,sender,100,0.5,5,46,56,51,5,-5,-1,-18,3210.475274337699,1642281626632,"How many <b class=""r"">red</b> marbles did your opponent report drawing?",-1,-1,1642281606863,0,0.9166666666666666
sona-36182,unif,over,trial,25,receiver,100,0.5,5,60,66,64,-4,4,-5,-14,5431.1434936483965,1642281636753,"How many <b class=""r"">red</b> marbles did your opponent report drawing?",66,66,1642281636753,0,0.9166666666666666
sona-36182,unif,over,trial,26,sender,100,0.5,5,50,50,45,0,-5,-5,-19,2633.4411101902074,1642281651248,"How many <b class=""r"">red</b> marbles did your opponent report drawing?",-1,-1,1642281636753,0,0.9166666666666666
sona-36182,unif,over,trial,27,receiver,100,0.5,5,51,55,52,-1,1,-6,-18,5298.8322982410145,1642281661320,"How many <b class=""r"">red</b> marbles did your opponent report drawing?",-1,-1,1642281636753,0,0.9166666666666666
sona-36182,unif,over,trial,28,sender,100,0.5,5,34,46,42,8,-8,2,-26,2498.38185865679,1642281675756,"How many <b class=""r"">red</b> marbles did your opponent report drawing?",-1,-1,1642281636753,0,0.9166666666666666
sona-36182,unif,over,trial,29,receiver,100,0.5,5,78,85,79,-1,1,1,-25,5429.041230554387,1642281690053,"How many <b class=""r"">red</b> marbles did your opponent report drawing?",-1,-1,1642281636753,0,0.9166666666666666
sona-36182,unif,over,trial,30,sender,100,0.5,5,57,66,57,0,0,1,-25,3161.962040557909,1642281703946,"How many <b class=""r"">red</b> marbles did your opponent report drawing?",-1,-1,1642281703946,0,0.9166666666666666
sona-36182,unif,over,trial,31,receiver,100,0.5,5,46,52,46,0,0,1,-25,5876.689617794909,1642281721924,"How many <b class=""r"">red</b> marbles did your opponent report drawing?",-1,-1,1642281703946,0,0.9166666666666666
sona-36182,unif,over,trial,32,sender,100,0.5,5,80,80,75,0,-5,1,-30,2376.879119381133,1642281730314,"How many <b class=""r"">red</b> marbles did your opponent report drawing?",-1,-1,1642281703946,0,0.9166666666666666
sona-36182,unif,over,trial,33,receiver,100,0.5,5,46,50,47,-1,1,0,-29,6114.546538301311,1642281760346,"How many <b class=""r"">red</b> marbles did your opponent report drawing?",-1,-1,1642281703946,0,0.9166666666666666
sona-36182,unif,over,trial,34,sender,100,0.5,5,58,48,42,0,-16,0,-45,2181.309327442391,1642281775645,"How many <b class=""r"">red</b> marbles did your opponent report drawing?",-1,-1,1642281703946,0,0.9166666666666666
sona-36182,unif,over,trial,35,receiver,100,0.5,5,83,90,80,-3,0,-3,-45,5250.315139967401,1642281784962,"How many <b class=""r"">red</b> marbles did your opponent report drawing?",-1,-1,1642281784962,0,0.9166666666666666
sona-36182,unif,over,trial,36,sender,100,0.5,5,35,43,38,3,-3,0,-48,2361.1117846474012,1642281814802,"How many <b class=""r"">red</b> marbles did your opponent report drawing?",-1,-1,1642281784962,0,0.9166666666666666
sona-36182,unif,over,trial,37,receiver,100,0.5,5,28,35,33,-5,5,-5,-43,5606.304852418462,1642281824767,"How many <b class=""r"">red</b> marbles did your opponent report drawing?",-1,-1,1642281784962,0,0.9166666666666666
sona-36182,unif,over,trial,38,sender,100,0.5,5,71,64,58,0,-13,-5,-56,2683.2628162328474,1642281837831,"How many <b class=""r"">red</b> marbles did your opponent report drawing?",-1,-1,1642281784962,0,0.9166666666666666
sona-36182,unif,over,trial,39,receiver,100,0.5,5,34,36,40,-6,6,-11,-50,5127.607283357918,1642281849345,"How many <b class=""r"">red</b> marbles did your opponent report drawing?",-1,-1,1642281784962,0,0.9166666666666666
sona-36182,unif,over,trial,40,sender,100,0.5,5,50,57,49,0,-1,-11,-51,2260.882669125084,1642281866248,"How many <b class=""r"">red</b> marbles did your opponent report drawing?",-1,-1,1642281866248,0,0.9166666666666666
sona-36182,unif,over,trial,41,receiver,100,0.5,5,58,60,57,-1,0,-12,-51,6131.15021713508,1642281887490,"How many <b class=""r"">red</b> marbles did your opponent report drawing?",60,60,1642281887490,0,0.9166666666666666
sona-36182,unif,over,trial,42,sender,100,0.5,5,87,73,69,0,-18,-12,-69,2503.5996796465124,1642281908515,"How many <b class=""r"">red</b> marbles did your opponent report drawing?",-1,-1,1642281887490,0,0.9166666666666666
sona-36182,unif,over,trial,43,receiver,100,0.5,5,72,75,71,-1,0,-13,-69,7491.336934270378,1642281920597,"How many <b class=""r"">red</b> marbles did your opponent report drawing?",-1,-1,1642281887490,0,0.9166666666666666
sona-36182,unif,over,trial,44,sender,100,0.5,5,71,75,72,1,-1,-12,-70,2306.2711541552717,1642281932967,"How many <b class=""r"">red</b> marbles did your opponent report drawing?",-1,-1,1642281887490,0,0.9166666666666666
sona-36182,unif,over,trial,45,receiver,100,0.5,5,76,79,75,-1,0,-13,-70,5634.837625514221,1642281944637,"How many <b class=""r"">red</b> marbles did your opponent report drawing?",-1,-1,1642281944637,0,0.9166666666666666
sona-36182,unif,over,trial,46,sender,100,0.5,5,87,75,67,0,-20,-13,-90,3174.8206213126996,1642281962709,"How many <b class=""r"">red</b> marbles did your opponent report drawing?",-1,-1,1642281944637,0,0.9166666666666666
sona-36182,unif,over,trial,47,receiver,100,0.5,5,51,55,53,-2,2,-15,-88,6062.648478808998,1642281975357,"How many <b class=""r"">red</b> marbles did your opponent report drawing?",-1,-1,1642281944637,0,0.9166666666666666
sona-36182,unif,over,trial,48,sender,100,0.5,5,63,71,70,7,-7,-8,-95,2921.4195589169003,1642281991023,"How many <b class=""r"">red</b> marbles did your opponent report drawing?",-1,-1,1642281944637,0,0.9166666666666666
sona-36182,unif,over,trial,49,receiver,100,0.5,5,79,83,79,0,0,-8,-95,6803.937898965764,1642282003558,"How many <b class=""r"">red</b> marbles did your opponent report drawing?",-1,-1,1642281944637,0,0.9166666666666666
sona-36182,unif,over,trial,50,sender,100,0.5,5,69,69,63,0,-6,-8,-101,2212.1178294041997,1642282011371,"How many <b class=""r"">red</b> marbles did your opponent report drawing?",-1,-1,1642282011371,0,0.9166666666666666
sona-36182,unif,over,trial,51,receiver,100,0.5,5,52,60,57,-5,5,-13,-96,6430.873046232899,1642282027435,"How many <b class=""r"">red</b> marbles did your opponent report drawing?",-1,-1,1642282011371,0,0.9166666666666666
sona-36182,unif,over,trial,52,sender,100,0.5,5,68,76,73,5,-5,-8,-101,2741.786981086442,1642282043643,"How many <b class=""r"">red</b> marbles did your opponent report drawing?",-1,-1,1642282011371,0,0.9166666666666666
sona-36182,unif,over,trial,53,receiver,100,0.5,5,25,30,25,0,0,-8,-101,7454.705545167268,1642282058376,"How many <b class=""r"">red</b> marbles did your opponent report drawing?",-1,-1,1642282011371,0,0.9166666666666666
sona-36182,unif,over,trial,54,sender,100,0.5,5,18,18,11,0,-7,-8,-108,2092.9058769197727,1642282067858,"How many <b class=""r"">red</b> marbles did your opponent report drawing?",-1,-1,1642282011371,0,0.9166666666666666
sona-36182,unif,over,trial,55,receiver,100,0.5,5,46,47,43,-3,0,-11,-108,5299.410779417167,1642282081313,"How many <b class=""r"">red</b> marbles did your opponent report drawing?",-1,-1,1642282081313,0,0.9166666666666666
sona-36182,unif,over,trial,56,sender,100,0.5,5,13,13,8,0,-5,-11,-113,2243.0919575701755,1642282102902,"How many <b class=""r"">red</b> marbles did you actually draw (before any changes)?",13,13,1642282102902,0,0.9166666666666666
sona-36182,unif,over,trial,57,receiver,100,0.5,5,62,67,65,-3,3,-14,-110,5562.776714507414,1642282120052,"How many <b class=""r"">red</b> marbles did you actually draw (before any changes)?",-1,-1,1642282102902,0,0.9166666666666666
sona-36182,unif,over,trial,58,sender,100,0.5,5,16,32,30,14,-14,0,-124,2105.6747685847167,1642282137407,"How many <b class=""r"">red</b> marbles did you actually draw (before any changes)?",-1,-1,1642282102902,0,0.9166666666666666
sona-36182,unif,over,trial,59,receiver,100,0.5,5,66,69,66,0,0,0,-124,7374.520456593924,1642282148816,"How many <b class=""r"">red</b> marbles did you actually draw (before any changes)?",-1,-1,1642282102902,0,0.9166666666666666
sona-36182,unif,over,trial,60,sender,100,0.5,5,35,35,28,0,-7,0,-131,2849.633574837867,1642282157602,"How many <b class=""r"">red</b> marbles did you actually draw (before any changes)?",-1,-1,1642282157602,0,0.9166666666666666
sona-36182,unif,over,trial,61,receiver,100,0.5,5,79,82,78,-1,0,-1,-131,5973.559960365696,1642282174465,"How many <b class=""r"">red</b> marbles did you actually draw (before any changes)?",-1,-1,1642282157602,0,0.9166666666666666
sona-36182,unif,over,trial,62,sender,100,0.5,5,14,24,19,5,-5,4,-136,2797.394859706801,1642282189767,"How many <b class=""r"">red</b> marbles did you actually draw (before any changes)?",-1,-1,1642282157602,0,0.9166666666666666
sona-36182,unif,over,trial,63,receiver,100,0.5,5,67,72,68,-1,1,3,-135,5795.473064566876,1642282200501,"How many <b class=""r"">red</b> marbles did you actually draw (before any changes)?",-1,-1,1642282157602,0,0.9166666666666666
sona-36182,unif,over,trial,64,sender,100,0.5,5,23,35,31,8,-8,11,-143,2908.709072300144,1642282215979,"How many <b class=""r"">red</b> marbles did you actually draw (before any changes)?",-1,-1,1642282157602,0,0.9166666666666666
sona-36182,unif,over,trial,65,receiver,100,0.5,5,49,55,50,-1,1,10,-142,7271.129276235853,1642282226355,"How many <b class=""r"">red</b> marbles did you actually draw (before any changes)?",-1,-1,1642282226355,0,0.9166666666666666
sona-36182,unif,over,trial,66,sender,100,0.5,5,74,74,69,0,-5,10,-147,2631.019352443329,1642282237968,"How many <b class=""r"">red</b> marbles did you actually draw (before any changes)?",-1,-1,1642282226355,0,0.9166666666666666
sona-36182,unif,over,trial,67,receiver,100,0.5,5,76,83,79,-3,3,7,-144,7402.051829351447,1642282250080,"How many <b class=""r"">red</b> marbles did you actually draw (before any changes)?",-1,-1,1642282226355,0,0.9166666666666666
sona-36182,unif,over,trial,68,sender,100,0.5,5,60,65,64,4,-4,11,-148,2754.529006212726,1642282264000,"How many <b class=""r"">red</b> marbles did you actually draw (before any changes)?",-1,-1,1642282226355,0,0.9166666666666666
sona-36182,unif,over,trial,69,receiver,100,0.5,5,44,47,45,-1,1,10,-147,6184.559864525542,1642282274631,"How many <b class=""r"">red</b> marbles did you actually draw (before any changes)?",-1,-1,1642282226355,0,0.9166666666666666
sona-36182,unif,over,trial,70,sender,100,0.5,5,44,39,32,0,-12,10,-159,3062.171087067875,1642282288356,"How many <b class=""r"">red</b> marbles did you actually draw (before any changes)?",-1,-1,1642282288356,0,0.9166666666666666
sona-36182,unif,over,trial,71,receiver,100,0.5,5,73,78,75,-2,2,8,-157,5621.170583925799,1642282299951,"How many <b class=""r"">red</b> marbles did you actually draw (before any changes)?",-1,-1,1642282288356,0,0.9166666666666666
sona-36182,unif,over,trial,72,sender,100,0.5,5,83,83,79,0,-4,8,-161,2799.077815112136,1642282307947,"How many <b class=""r"">red</b> marbles did you actually draw (before any changes)?",-1,-1,1642282288356,0,0.9166666666666666
sona-36182,unif,over,trial,73,receiver,100,0.5,5,32,35,31,-1,0,7,-161,5621.639031009896,1642282319943,"How many <b class=""r"">red</b> marbles did you actually draw (before any changes)?",-1,-1,1642282288356,0,0.9166666666666666
sona-36182,unif,over,trial,74,sender,100,0.5,5,60,65,59,0,-1,7,-162,2135.5788670622455,1642282330198,"How many <b class=""r"">red</b> marbles did you actually draw (before any changes)?",-1,-1,1642282288356,0,0.9166666666666666
sona-36182,unif,over,trial,75,receiver,100,0.5,5,55,62,58,-3,3,4,-159,5279.95044931805,1642282339333,"How many <b class=""r"">red</b> marbles did you actually draw (before any changes)?",-1,-1,1642282339333,0,0.9166666666666666
sona-36182,unif,over,trial,76,sender,100,0.5,5,56,48,44,0,-12,4,-171,3108.720762294972,1642282355678,"How many <b class=""r"">red</b> marbles did you actually draw (before any changes)?",-1,-1,1642282339333,0,0.9166666666666666
sona-36182,unif,over,trial,77,receiver,100,0.5,5,18,22,20,-2,2,2,-169,6026.852935911493,1642282367052,"How many <b class=""r"">red</b> marbles did your opponent report drawing?",22,22,1642282367052,0,0.9166666666666666
sona-36182,unif,over,trial,78,sender,100,0.5,5,95,83,80,0,-15,2,-184,2279.334546958351,1642282386203,"How many <b class=""r"">red</b> marbles did your opponent report drawing?",-1,-1,1642282367052,0,0.9166666666666666
sona-36182,unif,over,trial,79,receiver,100,0.5,5,61,61,58,-3,0,-1,-184,5841.98176712356,1642282396124,"How many <b class=""r"">red</b> marbles did your opponent report drawing?",-1,-1,1642282367052,0,0.9166666666666666
sona-36182,unif,over,trial,80,sender,100,0.5,5,92,92,90,0,-2,-1,-186,2777.853922569742,1642282405585,"How many <b class=""r"">red</b> marbles did your opponent report drawing?",-1,-1,1642282405585,0,0.9166666666666666
sona-36182,unif,over,trial,81,receiver,100,0.5,5,68,72,70,-2,2,-3,-184,6640.918523730423,1642282418231,"How many <b class=""r"">red</b> marbles did your opponent report drawing?",72,72,1642282418231,0,0.9166666666666666
sona-36182,unif,over,trial,82,sender,100,0.5,5,50,42,38,0,-12,-3,-196,2376.4907896890372,1642282436064,"How many <b class=""r"">red</b> marbles did your opponent report drawing?",-1,-1,1642282418231,0,0.9166666666666666
sona-36182,unif,over,trial,83,receiver,100,0.5,5,77,80,76,-1,0,-4,-196,5910.310295319732,1642282445553,"How many <b class=""r"">red</b> marbles did your opponent report drawing?",-1,-1,1642282418231,0,0.9166666666666666
sona-36182,unif,over,trial,84,sender,100,0.5,5,74,65,64,0,-10,-4,-206,2925.320552995767,1642282462316,"How many <b class=""r"">red</b> marbles did your opponent report drawing?",-1,-1,1642282418231,0,0.9166666666666666
sona-36182,unif,over,trial,85,receiver,100,0.5,5,48,52,50,-2,2,-6,-204,5892.313795171767,1642282471999,"How many <b class=""r"">red</b> marbles did your opponent report drawing?",-1,-1,1642282471999,0,0.9166666666666666
sona-36182,unif,over,trial,86,sender,100,0.5,5,52,47,42,0,-10,-6,-214,2276.7912133998375,1642282485652,"How many <b class=""r"">red</b> marbles did your opponent report drawing?",-1,-1,1642282471999,0,0.9166666666666666
sona-36182,unif,over,trial,87,receiver,100,0.5,5,43,45,42,-1,0,-7,-214,5227.658219077394,1642282494574,"How many <b class=""r"">red</b> marbles did your opponent report drawing?",45,45,1642282494574,0,0.9166666666666666
sona-36182,unif,over,trial,88,sender,100,0.5,5,42,53,48,6,-6,-1,-220,2094.3297594634296,1642282514365,"How many <b class=""r"">red</b> marbles did you actually draw (before any changes)?",42,48,1642282514365,0,0.9166666666666666
sona-36182,unif,over,trial,89,receiver,100,0.5,5,56,62,60,-4,4,-5,-216,7187.130846203502,1642282534461,"How many <b class=""r"">red</b> marbles did your opponent report drawing?",62,62,1642282534461,0,0.9166666666666666
sona-36182,unif,over,trial,90,sender,100,0.5,5,64,57,54,0,-10,-5,-226,2457.740419267301,1642282552189,"How many <b class=""r"">red</b> marbles did your opponent report drawing?",-1,-1,1642282552189,0,0.9166666666666666
sona-36182,unif,over,trial,91,receiver,100,0.5,5,83,89,85,-2,2,-7,-224,5182.258653072415,1642282563460,"How many <b class=""r"">red</b> marbles did your opponent report drawing?",-1,-1,1642282552189,0,0.9166666666666666
sona-36182,unif,over,trial,92,sender,100,0.5,5,19,19,16,0,-3,-7,-227,2468.760169233664,1642282571782,"How many <b class=""r"">red</b> marbles did your opponent report drawing?",-1,-1,1642282552189,0,0.9166666666666666
sona-36182,unif,over,trial,93,receiver,100,0.5,5,48,53,50,-2,2,-9,-225,7114.506924051958,1642282582348,"How many <b class=""r"">red</b> marbles did your opponent report drawing?",-1,-1,1642282552189,0,0.9166666666666666
sona-36182,unif,over,trial,94,sender,100,0.5,5,61,56,51,0,-10,-9,-235,2689.3671567006713,1642282594550,"How many <b class=""r"">red</b> marbles did your opponent report drawing?",-1,-1,1642282552189,0,0.9166666666666666
sona-36182,unif,over,trial,95,receiver,100,0.5,5,84,90,88,-4,4,-13,-231,6523.185472364067,1642282604919,"How many <b class=""r"">red</b> marbles did your opponent report drawing?",-1,-1,1642282604919,0,0.9166666666666666
sona-36182,unif,over,trial,96,sender,100,0.5,5,71,71,69,0,-2,-13,-233,2194.01674686544,1642282614623,"How many <b class=""r"">red</b> marbles did your opponent report drawing?",-1,-1,1642282604919,0,0.9166666666666666
sona-36182,unif,over,trial,97,receiver,100,0.5,5,46,49,47,-1,1,-14,-232,5926.228337048025,1642282624784,"How many <b class=""r"">red</b> marbles did your opponent report drawing?",-1,-1,1642282604919,0,0.9166666666666666
sona-36182,unif,over,trial,98,sender,100,0.5,5,63,70,62,0,-1,-14,-233,2204.09229682605,1642282635920,"How many <b class=""r"">red</b> marbles did your opponent report drawing?",-1,-1,1642282604919,0,0.9166666666666666
sona-36182,unif,over,trial,99,receiver,100,0.5,5,35,40,40,-5,5,-19,-228,7149.681470074708,1642282647156,"How many <b class=""r"">red</b> marbles did your opponent report drawing?",-1,-1,1642282604919,0,0.9166666666666666
sona-36182,unif,over,trial,100,sender,100,0.5,5,29,23,16,0,-13,-19,-241,2689.1117011107062,1642282662746,"How many <b class=""r"">red</b> marbles did your opponent report drawing?",-1,-1,1642282662746,0,0.9166666666666666
sona-38036,linear,over,trial,1,sender,100,0.5,5,66,68,61,0,-5,0,-5,2353.4669164855786,1642999520310,"How many <b class=""r"">red</b> marbles did your opponent report drawing?",-1,-1,1642999443769,0,0.9166666666666666
sona-38036,linear,over,trial,2,receiver,100,0.5,5,58,63,66,-8,8,-8,3,6955.81617833792,1642999568203,"How many <b class=""r"">red</b> marbles did your opponent report drawing?",-1,-1,1642999443769,0,0.9166666666666666
sona-38036,linear,over,trial,3,sender,100,0.5,5,57,59,49,0,-8,-8,-5,2221.9996104032807,1642999615894,"How many <b class=""r"">red</b> marbles did your opponent report drawing?",-1,-1,1642999443769,0,0.9166666666666666
sona-38036,linear,over,trial,4,receiver,100,0.5,5,37,40,45,-8,8,-16,3,5555.688249132106,1642999635417,"How many <b class=""r"">red</b> marbles did your opponent report drawing?",-1,-1,1642999443769,0,0.9166666666666666
sona-38036,linear,over,trial,5,sender,100,0.5,5,33,41,34,1,-1,-15,2,2926.6643467258473,1642999692157,"How many <b class=""r"">red</b> marbles did your opponent report drawing?",-1,-1,1642999692158,0,0.9166666666666666
sona-38036,linear,over,trial,6,receiver,100,0.5,5,29,32,32,-3,3,-18,5,5353.8483233831075,1642999706231,"How many <b class=""r"">red</b> marbles did your opponent report drawing?",-1,-1,1642999692158,0,0.9166666666666666
sona-38036,linear,over,trial,7,sender,100,0.5,5,44,44,39,0,-5,-18,0,2838.2885847653793,1642999718526,"How many <b class=""r"">red</b> marbles did your opponent report drawing?",-1,-1,1642999692158,0,0.9166666666666666
sona-38036,linear,over,trial,8,receiver,100,0.5,5,75,78,80,-5,5,-23,5,7057.599770574496,1642999735115,"How many <b class=""r"">red</b> marbles did your opponent report drawing?",-1,-1,1642999692158,0,0.9166666666666666
sona-38036,linear,over,trial,9,sender,100,0.5,5,14,14,10,0,-4,-23,1,2366.701303170412,1642999748977,"How many <b class=""r"">red</b> marbles did your opponent report drawing?",-1,-1,1642999692158,0,0.9166666666666666
sona-38036,linear,over,trial,10,receiver,100,0.5,5,47,49,49,-2,2,-25,3,6516.971358025979,1642999825355,"How many <b class=""r"">red</b> marbles did your opponent report drawing?",-1,-1,1642999825356,0,0.9166666666666666
sona-38036,linear,over,trial,11,sender,100,0.5,5,57,57,52,0,-5,-25,-2,2123.6765837019475,1642999835298,"How many <b class=""r"">red</b> marbles did your opponent report drawing?",-1,-1,1642999825356,0,0.9166666666666666
sona-38036,linear,over,trial,12,receiver,100,0.5,5,62,67,60,-2,0,-27,-2,5210.064648618236,1642999844251,"How many <b class=""r"">red</b> marbles did your opponent report drawing?",-1,-1,1642999825356,0,0.9166666666666666
sona-38036,linear,over,trial,13,sender,100,0.5,5,74,74,67,0,-7,-27,-9,2384.2797392439616,1642999853174,"How many <b class=""r"">red</b> marbles did your opponent report drawing?",-1,-1,1642999825356,0,0.9166666666666666
sona-38036,linear,over,trial,14,receiver,100,0.5,5,45,50,51,-6,6,-33,-3,6135.886938953918,1642999862774,"How many <b class=""r"">red</b> marbles did your opponent report drawing?",-1,-1,1642999825356,0,0.9166666666666666
sona-38036,linear,over,trial,15,sender,100,0.5,5,49,49,46,0,-3,-33,-6,2840.1749973608876,1642999870173,"How many <b class=""r"">red</b> marbles did your opponent report drawing?",-1,-1,1642999870174,0,0.9166666666666666
sona-38036,linear,over,trial,16,receiver,100,0.5,5,61,70,71,-10,10,-43,4,6521.8351776375275,1642999885234,"How many <b class=""r"">red</b> marbles did your opponent report drawing?",-1,-1,1642999870174,0,0.9166666666666666
sona-38036,linear,over,trial,17,sender,100,0.5,5,44,44,42,0,-2,-43,2,3112.556547424163,1642999897924,"How many <b class=""r"">red</b> marbles did your opponent report drawing?",-1,-1,1642999870174,0,0.9166666666666666
sona-38036,linear,over,trial,18,receiver,100,0.5,5,22,25,26,-4,4,-47,6,5281.457091631899,1642999908571,"How many <b class=""r"">red</b> marbles did your opponent report drawing?",-1,-1,1642999870174,0,0.9166666666666666
sona-38036,linear,over,trial,19,sender,100,0.5,5,32,32,24,0,-8,-47,-2,2772.0619209087154,1642999918626,"How many <b class=""r"">red</b> marbles did your opponent report drawing?",-1,-1,1642999870174,0,0.9166666666666666
sona-38036,linear,over,trial,20,receiver,100,0.5,5,43,49,50,-7,7,-54,5,7456.150618171288,1642999930192,"How many <b class=""r"">red</b> marbles did your opponent report drawing?",-1,-1,1642999930192,0,0.9166666666666666
sona-38036,linear,over,trial,21,sender,100,0.5,5,27,40,20,0,-7,-54,-2,2543.585240863801,1643000034228,"How many <b class=""r"">red</b> marbles did your opponent report drawing?",-1,-1,1642999930192,0,0.9166666666666666
sona-38036,linear,over,trial,22,receiver,100,0.5,5,23,29,30,-7,7,-61,5,5891.076924418881,1643000049167,"How many <b class=""r"">red</b> marbles did your opponent report drawing?",-1,-1,1642999930192,0,0.9166666666666666
sona-38036,linear,over,trial,23,sender,100,0.5,5,51,61,56,5,-5,-56,0,3216.3683471067498,1643000157525,"How many <b class=""r"">red</b> marbles did your opponent report drawing?",-1,-1,1642999930192,0,0.9166666666666666
sona-38036,linear,over,trial,24,receiver,100,0.5,5,41,48,49,-8,8,-64,8,6095.493440628627,1643000243705,"How many <b class=""r"">red</b> marbles did your opponent report drawing?",-1,-1,1642999930192,0,0.9166666666666666
sona-38036,linear,over,trial,25,sender,100,0.5,5,38,38,30,0,-8,-64,0,3195.626940833025,1643000294623,"How many <b class=""r"">red</b> marbles did your opponent report drawing?",-1,-1,1643000294623,0,0.9166666666666666
sona-38036,linear,over,trial,26,receiver,100,0.5,5,60,65,66,-6,6,-70,6,6124.901828012506,1643000308629,"How many <b class=""r"">red</b> marbles did your opponent report drawing?",-1,-1,1643000294623,0,0.9166666666666666
sona-38036,linear,over,trial,27,sender,100,0.5,5,49,62,58,9,-9,-61,-3,2233.678972045073,1643000378735,"How many <b class=""r"">red</b> marbles did your opponent report drawing?",-1,-1,1643000294623,0,0.9166666666666666
sona-38036,linear,over,trial,28,receiver,100,0.5,5,89,94,99,-10,10,-71,7,7374.193660914588,1643000397036,"How many <b class=""r"">red</b> marbles did your opponent report drawing?",-1,-1,1643000294623,0,0.9166666666666666
sona-38036,linear,over,trial,29,sender,100,0.5,5,35,22,19,0,-16,-71,-9,2574.3166963466165,1643000470976,"How many <b class=""r"">red</b> marbles did your opponent report drawing?",-1,-1,1643000294623,0,0.9166666666666666
sona-38036,linear,over,trial,30,receiver,100,0.5,5,53,61,62,-9,9,-80,0,6522.94502293114,1643000481980,"How many <b class=""r"">red</b> marbles did your opponent report drawing?",-1,-1,1643000481981,0,0.9166666666666666
sona-38036,linear,over,trial,31,sender,100,0.5,5,48,48,41,0,-7,-80,-7,2314.445103850232,1643000491726,"How many <b class=""r"">red</b> marbles did your opponent report drawing?",-1,-1,1643000481981,0,0.9166666666666666
sona-38036,linear,over,trial,32,receiver,100,0.5,5,25,32,31,-6,6,-86,-1,5656.981279414799,1643000508597,"How many <b class=""r"">red</b> marbles did your opponent report drawing?",-1,-1,1643000481981,0,0.9166666666666666
sona-38036,linear,over,trial,33,sender,100,0.5,5,77,77,71,0,-6,-86,-7,2226.1992349626976,1643000516188,"How many <b class=""r"">red</b> marbles did your opponent report drawing?",-1,-1,1643000481981,0,0.9166666666666666
sona-38036,linear,over,trial,34,receiver,100,0.5,5,36,50,49,-13,13,-99,6,6238.240591254604,1643000527518,"How many <b class=""r"">red</b> marbles did your opponent report drawing?",50,50,1643000527518,0,0.9166666666666666
sona-38036,linear,over,trial,35,sender,100,0.5,5,64,64,57,0,-7,-99,-1,2707.1898031994224,1643000544896,"How many <b class=""r"">red</b> marbles did your opponent report drawing?",-1,-1,1643000544897,0,0.9166666666666666
sona-38036,linear,over,trial,36,receiver,100,0.5,5,68,73,74,-6,6,-105,5,5523.421057862879,1643000556365,"How many <b class=""r"">red</b> marbles did your opponent report drawing?",-1,-1,1643000544897,0,0.9166666666666666
sona-38036,linear,over,trial,37,sender,100,0.5,5,71,71,65,0,-6,-105,-1,2307.9741877916404,1643000564712,"How many <b class=""r"">red</b> marbles did your opponent report drawing?",-1,-1,1643000544897,0,0.9166666666666666
sona-38036,linear,over,trial,38,receiver,100,0.5,5,34,41,42,-8,8,-113,7,5406.694894848091,1643000576565,"How many <b class=""r"">red</b> marbles did your opponent report drawing?",-1,-1,1643000544897,0,0.9166666666666666
sona-38036,linear,over,trial,39,sender,100,0.5,5,57,57,49,0,-8,-113,-1,2807.0589432810953,1643000585025,"How many <b class=""r"">red</b> marbles did your opponent report drawing?",-1,-1,1643000544897,0,0.9166666666666666
sona-38036,linear,over,trial,40,receiver,100,0.5,5,53,56,55,-2,2,-115,1,5432.124166749121,1643000594016,"How many <b class=""r"">red</b> marbles did your opponent report drawing?",56,55,1643000594016,0,0.9166666666666666
sona-38036,linear,over,trial,41,sender,100,0.5,5,63,63,60,0,-3,-115,-2,3116.7616254605377,1643000612497,"How many <b class=""r"">red</b> marbles did your opponent report drawing?",-1,-1,1643000594016,0,0.9166666666666666
sona-38036,linear,over,trial,42,receiver,100,0.5,5,24,29,22,-2,0,-117,-2,5510.3255583112,1643000623154,"How many <b class=""r"">red</b> marbles did your opponent report drawing?",-1,-1,1643000594016,0,0.9166666666666666
sona-38036,linear,over,trial,43,sender,100,0.5,5,56,56,45,0,-11,-117,-13,2835.93658007727,1643000632581,"How many <b class=""r"">red</b> marbles did your opponent report drawing?",-1,-1,1643000594016,0,0.9166666666666666
sona-38036,linear,over,trial,44,receiver,100,0.5,5,57,63,66,-9,9,-126,-4,6348.728051528009,1643000642447,"How many <b class=""r"">red</b> marbles did your opponent report drawing?",-1,-1,1643000594016,0,0.9166666666666666
sona-38036,linear,over,trial,45,sender,100,0.5,5,60,60,55,0,-5,-126,-9,2920.5325126657126,1643000650157,"How many <b class=""r"">red</b> marbles did your opponent report drawing?",-1,-1,1643000650157,0,0.9166666666666666
sona-38036,linear,over,trial,46,receiver,100,0.5,5,25,27,28,-3,3,-129,-6,6502.235726281628,1643000665776,"How many <b class=""r"">red</b> marbles did your opponent report drawing?",27,27,1643000665777,0,0.9166666666666666
sona-38036,linear,over,trial,47,sender,100,0.5,5,40,40,35,0,-5,-129,-11,2586.6119854318085,1643000679471,"How many <b class=""r"">red</b> marbles did your opponent report drawing?",-1,-1,1643000665777,0,0.9166666666666666
sona-38036,linear,over,trial,48,receiver,100,0.5,5,45,49,50,-5,5,-134,-6,5362.550062668663,1643000688334,"How many <b class=""r"">red</b> marbles did your opponent report drawing?",-1,-1,1643000665777,0,0.9166666666666666
sona-38036,linear,over,trial,49,sender,100,0.5,5,66,66,60,0,-6,-134,-12,2464.7773165101967,1643000695404,"How many <b class=""r"">red</b> marbles did your opponent report drawing?",-1,-1,1643000665777,0,0.9166666666666666
sona-38036,linear,over,trial,50,receiver,100,0.5,5,63,68,67,-4,4,-138,-8,7450.568201712714,1643000707182,"How many <b class=""r"">red</b> marbles did your opponent report drawing?",-1,-1,1643000707183,0,0.9166666666666666
sona-38036,linear,over,trial,51,sender,100,0.5,5,50,50,40,0,-10,-138,-18,2851.33610186799,1643000718302,"How many <b class=""r"">red</b> marbles did your opponent report drawing?",-1,-1,1643000707183,0,0.9166666666666666
sona-38036,linear,over,trial,52,receiver,100,0.5,5,59,64,64,-5,5,-143,-13,6442.173758177803,1643000727727,"How many <b class=""r"">red</b> marbles did your opponent report drawing?",-1,-1,1643000707183,0,0.9166666666666666
sona-38036,linear,over,trial,53,sender,100,0.5,5,45,45,40,0,-5,-143,-18,2742.129007913152,1643000736354,"How many <b class=""r"">red</b> marbles did your opponent report drawing?",-1,-1,1643000707183,0,0.9166666666666666
sona-38036,linear,over,trial,54,receiver,100,0.5,5,58,68,66,-8,8,-151,-10,5979.414137371417,1643000745374,"How many <b class=""r"">red</b> marbles did your opponent report drawing?",-1,-1,1643000707183,0,0.9166666666666666
sona-38036,linear,over,trial,55,sender,100,0.5,5,39,39,33,0,-6,-151,-16,2173.2650864697343,1643000755233,"How many <b class=""r"">red</b> marbles did your opponent report drawing?",-1,-1,1643000755234,0,0.9166666666666666
sona-38036,linear,over,trial,56,receiver,100,0.5,5,37,41,44,-7,7,-158,-9,6456.62500590745,1643000767467,"How many <b class=""r"">red</b> marbles did your opponent report drawing?",-1,-1,1643000755234,0,0.9166666666666666
sona-38036,linear,over,trial,57,sender,100,0.5,5,49,49,45,0,-4,-158,-13,2541.9831039874243,1643000780578,"How many <b class=""r"">red</b> marbles did you actually draw (before any changes)?",49,41,1643000780579,0,0.9166666666666666
sona-38036,linear,over,trial,58,receiver,100,0.5,5,23,25,22,-1,0,-159,-13,6676.318783627385,1643000800032,"How many <b class=""r"">red</b> marbles did you actually draw (before any changes)?",-1,-1,1643000780579,0,0.9166666666666666
sona-38036,linear,over,trial,59,sender,100,0.5,5,50,51,46,0,-4,-159,-17,2917.5761763945393,1643000810358,"How many <b class=""r"">red</b> marbles did you actually draw (before any changes)?",-1,-1,1643000780579,0,0.9166666666666666
sona-38036,linear,over,trial,60,receiver,100,0.5,5,47,54,55,-8,8,-167,-9,6705.538868669966,1643000821122,"How many <b class=""r"">red</b> marbles did you actually draw (before any changes)?",-1,-1,1643000821123,0,0.9166666666666666
sona-38036,linear,over,trial,61,sender,100,0.5,5,61,63,59,0,-2,-167,-11,2198.923238890283,1643000836885,"How many <b class=""r"">red</b> marbles did you actually draw (before any changes)?",-1,-1,1643000821123,0,0.9166666666666666
sona-38036,linear,over,trial,62,receiver,100,0.5,5,49,53,54,-5,5,-172,-6,6939.198141117709,1643000847769,"How many <b class=""r"">red</b> marbles did your opponent report drawing?",53,54,1643000847769,0,0.9166666666666666
sona-38036,linear,over,trial,63,sender,100,0.5,5,76,81,78,2,-2,-170,-8,3207.969308569257,1643000875761,"How many <b class=""r"">red</b> marbles did you actually draw (before any changes)?",76,79,1643000875761,0,0.9166666666666666
sona-38036,linear,over,trial,64,receiver,100,0.5,5,31,33,33,-2,2,-172,-6,5668.683686513114,1643000895525,"How many <b class=""r"">red</b> marbles did you actually draw (before any changes)?",-1,-1,1643000875761,0,0.9166666666666666
sona-38036,linear,over,trial,65,sender,100,0.5,5,56,60,51,0,-5,-172,-11,2580.034091673885,1643000914541,"How many <b class=""r"">red</b> marbles did you actually draw (before any changes)?",-1,-1,1643000914541,0,0.9166666666666666
sona-38036,linear,over,trial,66,receiver,100,0.5,5,37,45,40,-3,3,-175,-8,5778.317740919958,1643000931528,"How many <b class=""r"">red</b> marbles did you actually draw (before any changes)?",-1,-1,1643000914541,0,0.9166666666666666
sona-38036,linear,over,trial,67,sender,100,0.5,5,59,76,73,14,-14,-161,-22,2752.6548189036803,1643001034046,"How many <b class=""r"">red</b> marbles did you actually draw (before any changes)?",59,59,1643001034046,0,0.9166666666666666
sona-38036,linear,over,trial,68,receiver,100,0.5,5,24,31,29,-5,5,-166,-17,5692.7578967962345,1643001049018,"How many <b class=""r"">red</b> marbles did you actually draw (before any changes)?",-1,-1,1643001034046,0,0.9166666666666666
sona-38036,linear,over,trial,69,sender,100,0.5,5,37,38,34,0,-3,-166,-20,3032.4502585071314,1643001071074,"How many <b class=""r"">red</b> marbles did you actually draw (before any changes)?",-1,-1,1643001034046,0,0.9166666666666666
sona-38036,linear,over,trial,70,receiver,100,0.5,5,57,60,61,-4,4,-170,-16,5447.482145342543,1643001126101,"How many <b class=""r"">red</b> marbles did you actually draw (before any changes)?",-1,-1,1643001126101,0,0.9166666666666666
sona-38036,linear,over,trial,71,sender,100,0.5,5,79,89,85,6,-6,-164,-22,2135.602358321338,1643001220146,"How many <b class=""r"">red</b> marbles did you actually draw (before any changes)?",79,79,1643001220146,0,0.9166666666666666
sona-38036,linear,over,trial,72,receiver,100,0.5,5,67,70,72,-5,5,-169,-17,5352.229839239395,1643001351368,"How many <b class=""r"">red</b> marbles did you actually draw (before any changes)?",-1,-1,1643001220146,0,0.9166666666666666
sona-38036,linear,over,trial,74,receiver,100,0.5,5,40,44,45,-5,5,-160,-26,6859.296339721452,1643001504722,"How many <b class=""r"">red</b> marbles did you actually draw (before any changes)?",-1,-1,1643001220146,0,0.9166666666666666
sona-38036,linear,over,trial,76,receiver,100,0.5,5,35,40,41,-6,6,-166,-38,5337.62274301582,1643001617724,"How many <b class=""r"">red</b> marbles did you actually draw (before any changes)?",-1,-1,1643001607973,0,0.9166666666666666
sona-38036,linear,over,trial,77,sender,100,0.5,5,60,91,85,25,-25,-141,-63,2643.0348856765404,1643001790937,"How many <b class=""r"">red</b> marbles did you actually draw (before any changes)?",60,60,1643001790938,0,0.9166666666666666
sona-38036,linear,over,trial,78,receiver,100,0.5,5,73,77,76,-3,3,-144,-60,6223.662649425636,1643001823354,"How many <b class=""r"">red</b> marbles did you actually draw (before any changes)?",-1,-1,1643001790938,0,0.9166666666666666
sona-38036,linear,over,trial,80,receiver,100,0.5,5,40,44,45,-5,5,-142,-62,5703.151153598957,1643001899824,"How many <b class=""r"">red</b> marbles did you actually draw (before any changes)?",-1,-1,1643001899824,0,0.9166666666666666
sona-38036,linear,over,trial,82,receiver,100,0.5,5,40,45,44,-4,4,-146,-81,7106.976443408069,1643002093059,"How many <b class=""r"">red</b> marbles did your opponent report drawing?",45,45,1643002093059,0,0.9166666666666666
sona-38036,linear,over,trial,83,sender,100,0.5,5,45,46,37,0,-8,-146,-89,2300.2159703268803,1643002114285,"How many <b class=""r"">red</b> marbles did your opponent report drawing?",-1,-1,1643002093059,0,0.9166666666666666
sona-38036,linear,over,trial,84,receiver,100,0.5,5,45,49,50,-5,5,-151,-84,5587.52294088784,1643002123726,"How many <b class=""r"">red</b> marbles did your opponent report drawing?",-1,-1,1643002093059,0,0.9166666666666666
sona-38036,linear,over,trial,85,sender,100,0.5,5,52,56,47,0,-5,-151,-89,2181.228665087013,1643002145310,"How many <b class=""r"">red</b> marbles did your opponent report drawing?",-1,-1,1643002145311,0,0.9166666666666666
sona-38036,linear,over,trial,86,receiver,100,0.5,5,48,56,61,-13,13,-164,-76,5463.378140050511,1643002161016,"How many <b class=""r"">red</b> marbles did your opponent report drawing?",-1,-1,1643002145311,0,0.9166666666666666
sona-38036,linear,over,trial,87,sender,100,0.5,5,48,50,42,0,-6,-164,-82,2537.693527627687,1643002179237,"How many <b class=""r"">red</b> marbles did your opponent report drawing?",-1,-1,1643002145311,0,0.9166666666666666
sona-38036,linear,over,trial,88,receiver,100,0.5,5,84,87,90,-6,6,-170,-76,5157.745484172827,1643002189798,"How many <b class=""r"">red</b> marbles did your opponent report drawing?",-1,-1,1643002145311,0,0.9166666666666666
sona-38036,linear,over,trial,89,sender,100,0.5,5,42,18,15,0,-27,-170,-103,3083.3257505317324,1643002298519,"How many <b class=""r"">red</b> marbles did your opponent report drawing?",-1,-1,1643002145311,0,0.9166666666666666
sona-38036,linear,over,trial,90,receiver,100,0.5,5,58,60,65,-7,7,-177,-96,5673.683920713049,1643002308836,"How many <b class=""r"">red</b> marbles did your opponent report drawing?",-1,-1,1643002308837,0,0.9166666666666666
sona-38036,linear,over,trial,91,sender,100,0.5,5,41,17,13,0,-28,-177,-124,2257.478130879731,1643002421899,"How many <b class=""r"">red</b> marbles did your opponent report drawing?",-1,-1,1643002308837,0,0.9166666666666666
sona-38036,linear,over,trial,92,receiver,100,0.5,5,46,49,54,-8,8,-185,-116,6618.2610109002435,1643002440582,"How many <b class=""r"">red</b> marbles did your opponent report drawing?",-1,-1,1643002308837,0,0.9166666666666666
sona-38036,linear,over,trial,94,receiver,100,0.5,5,47,50,55,-8,8,-170,-131,6183.971988989224,1643002576009,"How many <b class=""r"">red</b> marbles did your opponent report drawing?",-1,-1,1643002308837,0,0.9166666666666666
sona-38036,linear,over,trial,95,sender,100,0.5,5,42,81,76,34,-34,-136,-165,3140.4346782089196,1643002831019,"How many <b class=""r"">red</b> marbles did your opponent report drawing?",-1,-1,1643002831021,0,0.9166666666666666
sona-38036,linear,over,trial,98,receiver,100,0.5,5,49,56,60,-11,11,-163,-173,5203.038315338677,1643003056642,"How many <b class=""r"">red</b> marbles did your opponent report drawing?",-1,-1,1643002831021,0,0.9166666666666666
sona-38036,linear,over,trial,100,receiver,100,0.5,5,59,62,62,-3,3,-166,-200,5887.394120195953,1643003378382,"How many <b class=""r"">red</b> marbles did your opponent report drawing?",-1,-1,1643003378383,0,0.9166666666666666
sona-32196,unif,over,trial,1,receiver,100,0.5,5,15,19,19,-4,4,-4,4,7172.661520853541,1642306331785,"How many <b class=""r"">red</b> marbles did your opponent report drawing?",19,19,1642306331785,0,0.9166666666666666
sona-32196,unif,over,trial,2,sender,100,0.5,5,29,61,57,28,-28,24,-24,3097.50123211725,1642306387773,"How many <b class=""r"">red</b> marbles did your opponent report drawing?",-1,-1,1642306331785,0,0.9166666666666666
sona-32196,unif,over,trial,3,receiver,100,0.5,5,16,22,22,-6,6,18,-18,6487.662309468864,1642306410256,"How many <b class=""r"">red</b> marbles did your opponent report drawing?",-1,-1,1642306331785,0,0.9166666666666666
sona-32196,unif,over,trial,4,sender,100,0.5,5,75,51,39,0,-36,18,-54,2131.9590256746988,1642306475236,"How many <b class=""r"">red</b> marbles did your opponent report drawing?",-1,-1,1642306331785,0,0.9166666666666666
sona-32196,unif,over,trial,5,receiver,100,0.5,5,57,62,62,-5,5,13,-49,6097.851382023422,1642306507228,"How many <b class=""r"">red</b> marbles did your opponent report drawing?",-1,-1,1642306507228,0,0.9166666666666666
sona-32196,unif,over,trial,6,sender,100,0.5,5,59,50,45,0,-14,13,-63,3181.9186367980615,1642306579174,"How many <b class=""r"">red</b> marbles did your opponent report drawing?",-1,-1,1642306507228,0,0.9166666666666666
sona-32196,unif,over,trial,7,receiver,100,0.5,5,40,42,42,-2,2,11,-61,6315.568574316738,1642306609669,"How many <b class=""r"">red</b> marbles did your opponent report drawing?",-1,-1,1642306507228,0,0.9166666666666666
sona-32196,unif,over,trial,8,sender,100,0.5,5,39,50,46,7,-7,18,-68,2314.1949443873555,1642306639268,"How many <b class=""r"">red</b> marbles did your opponent report drawing?",-1,-1,1642306507228,0,0.9166666666666666
sona-32196,unif,over,trial,9,receiver,100,0.5,5,85,91,91,-6,6,12,-62,5530.5444161577725,1642306659291,"How many <b class=""r"">red</b> marbles did your opponent report drawing?",-1,-1,1642306507228,0,0.9166666666666666
sona-32196,unif,over,trial,10,sender,100,0.5,5,48,48,45,0,-3,12,-65,2341.6815534293787,1642306675868,"How many <b class=""r"">red</b> marbles did your opponent report drawing?",-1,-1,1642306675869,0,0.9166666666666666
sona-32196,unif,over,trial,11,receiver,100,0.5,5,29,34,34,-5,5,7,-60,7181.651764138278,1642306689409,"How many <b class=""r"">red</b> marbles did your opponent report drawing?",-1,-1,1642306675869,0,0.9166666666666666
sona-32196,unif,over,trial,12,sender,100,0.5,5,46,46,38,0,-8,7,-68,2501.8904285889057,1642306702234,"How many <b class=""r"">red</b> marbles did your opponent report drawing?",-1,-1,1642306675869,0,0.9166666666666666
sona-32196,unif,over,trial,13,receiver,100,0.5,5,57,63,63,-6,6,1,-62,5957.980804177279,1642306712670,"How many <b class=""r"">red</b> marbles did your opponent report drawing?",-1,-1,1642306675869,0,0.9166666666666666
sona-32196,unif,over,trial,14,sender,100,0.5,5,40,40,36,0,-4,1,-66,2072.2521764039498,1642306728126,"How many <b class=""r"">red</b> marbles did your opponent report drawing?",-1,-1,1642306675869,0,0.9166666666666666
sona-32196,unif,over,trial,15,receiver,100,0.5,5,54,58,58,-4,4,-3,-62,5516.821964826278,1642306746785,"How many <b class=""r"">red</b> marbles did your opponent report drawing?",-1,-1,1642306746785,0,0.9166666666666666
sona-32196,unif,over,trial,16,sender,100,0.5,5,61,61,57,0,-4,-3,-66,2388.4340200129436,1642306756578,"How many <b class=""r"">red</b> marbles did you actually draw (before any changes)?",61,64,1642306756578,0,0.9166666666666666
sona-32196,unif,over,trial,17,receiver,100,0.5,5,63,67,67,-4,4,-7,-62,5587.1936714142375,1642306779584,"How many <b class=""r"">red</b> marbles did you actually draw (before any changes)?",-1,-1,1642306756578,0,0.9166666666666666
sona-32196,unif,over,trial,18,sender,100,0.5,5,50,50,46,0,-4,-7,-66,2490.7061032061947,1642306791738,"How many <b class=""r"">red</b> marbles did you actually draw (before any changes)?",-1,-1,1642306756578,0,0.9166666666666666
sona-32196,unif,over,trial,19,receiver,100,0.5,5,33,41,41,-8,8,-15,-58,7050.962392384722,1642306805676,"How many <b class=""r"">red</b> marbles did you actually draw (before any changes)?",-1,-1,1642306756578,0,0.9166666666666666
sona-32196,unif,over,trial,20,sender,100,0.5,5,63,50,44,0,-19,-15,-77,2967.2787264679205,1642306834914,"How many <b class=""r"">red</b> marbles did you actually draw (before any changes)?",-1,-1,1642306834915,0,0.9166666666666666
sona-32196,unif,over,trial,21,receiver,100,0.5,5,56,60,60,-4,4,-19,-73,6117.897768776014,1642306848051,"How many <b class=""r"">red</b> marbles did you actually draw (before any changes)?",-1,-1,1642306834915,0,0.9166666666666666
sona-32196,unif,over,trial,22,sender,100,0.5,5,38,50,44,6,-6,-13,-79,2734.1530947014203,1642306881907,"How many <b class=""r"">red</b> marbles did you actually draw (before any changes)?",-1,-1,1642306834915,0,0.9166666666666666
sona-32196,unif,over,trial,23,receiver,100,0.5,5,23,27,27,-4,4,-17,-75,5978.227436523821,1642306892037,"How many <b class=""r"">red</b> marbles did your opponent report drawing?",27,27,1642306892038,0,0.9166666666666666
sona-32196,unif,over,trial,24,sender,100,0.5,5,46,50,46,0,0,-17,-75,2610.4700264451467,1642306914888,"How many <b class=""r"">red</b> marbles did your opponent report drawing?",-1,-1,1642306892038,0,0.9166666666666666
sona-32196,unif,over,trial,25,receiver,100,0.5,5,50,53,53,-3,3,-20,-72,6442.380145186658,1642306926198,"How many <b class=""r"">red</b> marbles did your opponent report drawing?",-1,-1,1642306926198,0,0.9166666666666666
sona-32196,unif,over,trial,26,sender,100,0.5,5,58,50,47,0,-11,-20,-83,2152.6523380351764,1642306945767,"How many <b class=""r"">red</b> marbles did your opponent report drawing?",-1,-1,1642306926198,0,0.9166666666666666
sona-32196,unif,over,trial,27,receiver,100,0.5,5,52,56,56,-4,4,-24,-79,5953.913646319882,1642306956686,"How many <b class=""r"">red</b> marbles did your opponent report drawing?",-1,-1,1642306926198,0,0.9166666666666666
sona-32196,unif,over,trial,28,sender,100,0.5,5,27,49,46,19,-19,-5,-98,2419.8645889211725,1642306989649,"How many <b class=""r"">red</b> marbles did your opponent report drawing?",-1,-1,1642306926198,0,0.9166666666666666
sona-32196,unif,over,trial,29,receiver,100,0.5,5,34,38,38,-4,4,-9,-94,6300.410518089044,1642306999318,"How many <b class=""r"">red</b> marbles did your opponent report drawing?",-1,-1,1642306926198,0,0.9166666666666666
sona-32196,unif,over,trial,30,sender,100,0.5,5,36,53,47,11,-11,2,-105,3171.7838875740285,1642307026228,"How many <b class=""r"">red</b> marbles did your opponent report drawing?",-1,-1,1642307026228,0,0.9166666666666666
sona-32196,unif,over,trial,31,receiver,100,0.5,5,56,60,60,-4,4,-2,-101,5867.562140894981,1642307037994,"How many <b class=""r"">red</b> marbles did your opponent report drawing?",-1,-1,1642307026228,0,0.9166666666666666
sona-32196,unif,over,trial,32,sender,100,0.5,5,79,50,39,0,-40,-2,-141,2706.9485103514044,1642307086260,"How many <b class=""r"">red</b> marbles did your opponent report drawing?",-1,-1,1642307026228,0,0.9166666666666666
sona-32196,unif,over,trial,33,receiver,100,0.5,5,34,40,40,-6,6,-8,-135,6416.044736190966,1642307098418,"How many <b class=""r"">red</b> marbles did your opponent report drawing?",-1,-1,1642307026228,0,0.9166666666666666
sona-32196,unif,over,trial,34,sender,100,0.5,5,67,49,40,0,-27,-8,-162,2131.512145724916,1642307123247,"How many <b class=""r"">red</b> marbles did your opponent report drawing?",-1,-1,1642307026228,0,0.9166666666666666
sona-32196,unif,over,trial,35,receiver,100,0.5,5,59,64,64,-5,5,-13,-157,6953.781315639541,1642307136696,"How many <b class=""r"">red</b> marbles did your opponent report drawing?",-1,-1,1642307136696,0,0.9166666666666666
sona-32196,unif,over,trial,36,sender,100,0.5,5,20,43,36,16,-16,3,-173,2293.4634660784795,1642307170923,"How many <b class=""r"">red</b> marbles did your opponent report drawing?",-1,-1,1642307136696,0,0.9166666666666666
sona-32196,unif,over,trial,37,receiver,100,0.5,5,52,56,56,-4,4,-1,-169,6572.344027921083,1642307182135,"How many <b class=""r"">red</b> marbles did your opponent report drawing?",-1,-1,1642307136696,0,0.9166666666666666
sona-32196,unif,over,trial,38,sender,100,0.5,5,88,50,46,0,-42,-1,-211,2499.145579173517,1642307225001,"How many <b class=""r"">red</b> marbles did you actually draw (before any changes)?",88,50,1642307225001,0,0.9166666666666666
sona-32196,unif,over,trial,39,receiver,100,0.5,5,50,53,53,-3,3,-4,-208,6952.30582693963,1642307246523,"How many <b class=""r"">red</b> marbles did your opponent report drawing?",53,53,1642307246523,0,0.9166666666666666
sona-32196,unif,over,trial,40,sender,100,0.5,5,57,57,55,0,-2,-4,-210,3198.802106962421,1642307261786,"How many <b class=""r"">red</b> marbles did your opponent report drawing?",-1,-1,1642307261786,0,0.9166666666666666
sona-32196,unif,over,trial,41,receiver,100,0.5,5,36,38,38,-2,2,-6,-208,5757.803026256406,1642307273466,"How many <b class=""r"">red</b> marbles did your opponent report drawing?",-1,-1,1642307261786,0,0.9166666666666666
sona-32196,unif,over,trial,42,sender,100,0.5,5,41,41,36,0,-5,-6,-213,2619.1999148970444,1642307281724,"How many <b class=""r"">red</b> marbles did your opponent report drawing?",-1,-1,1642307261786,0,0.9166666666666666
sona-32196,unif,over,trial,43,receiver,100,0.5,5,18,26,26,-8,8,-14,-205,7346.465133180405,1642307293735,"How many <b class=""r"">red</b> marbles did your opponent report drawing?",-1,-1,1642307261786,0,0.9166666666666666
sona-32196,unif,over,trial,44,sender,100,0.5,5,38,38,37,0,-1,-14,-206,3060.85347026256,1642307313379,"How many <b class=""r"">red</b> marbles did your opponent report drawing?",-1,-1,1642307261786,0,0.9166666666666666
sona-32196,unif,over,trial,45,receiver,100,0.5,5,48,53,53,-5,5,-19,-201,5191.766768385689,1642307322317,"How many <b class=""r"">red</b> marbles did your opponent report drawing?",-1,-1,1642307322318,0,0.9166666666666666
sona-32196,unif,over,trial,46,sender,100,0.5,5,21,21,16,0,-5,-19,-206,2075.342352794777,1642307333152,"How many <b class=""r"">red</b> marbles did you actually draw (before any changes)?",21,21,1642307333152,0,0.9166666666666666
sona-32196,unif,over,trial,47,receiver,100,0.5,5,90,91,50,-40,0,-59,-206,5253.695499705486,1642307354385,"How many <b class=""r"">red</b> marbles did you actually draw (before any changes)?",-1,-1,1642307333152,0,0.9166666666666666
sona-32196,unif,over,trial,48,sender,100,0.5,5,36,36,29,0,-7,-59,-213,2169.0858995035305,1642307362349,"How many <b class=""r"">red</b> marbles did you actually draw (before any changes)?",36,39,1642307362349,0,0.9166666666666666
sona-32196,unif,over,trial,49,receiver,100,0.5,5,79,86,10,-69,0,-128,-213,5294.116293304176,1642307382966,"How many <b class=""r"">red</b> marbles did you actually draw (before any changes)?",-1,-1,1642307362349,0,0.9166666666666666
sona-32196,unif,over,trial,50,sender,100,0.5,5,82,82,76,0,-6,-128,-219,2586.1113803759595,1642307391031,"How many <b class=""r"">red</b> marbles did you actually draw (before any changes)?",-1,-1,1642307391031,0,0.9166666666666666
sona-32196,unif,over,trial,51,receiver,100,0.5,5,44,55,55,-11,11,-139,-208,5442.595788184415,1642307401514,"How many <b class=""r"">red</b> marbles did you actually draw (before any changes)?",-1,-1,1642307391031,0,0.9166666666666666
sona-32196,unif,over,trial,52,sender,100,0.5,5,64,64,59,0,-5,-139,-213,2399.9823774088122,1642307407863,"How many <b class=""r"">red</b> marbles did you actually draw (before any changes)?",-1,-1,1642307391031,0,0.9166666666666666
sona-32196,unif,over,trial,53,receiver,100,0.5,5,69,77,77,-8,8,-147,-205,7438.5540062374,1642307418637,"How many <b class=""r"">red</b> marbles did you actually draw (before any changes)?",-1,-1,1642307391031,0,0.9166666666666666
sona-32196,unif,over,trial,54,sender,100,0.5,5,60,60,56,0,-4,-147,-209,3205.799273523868,1642307427887,"How many <b class=""r"">red</b> marbles did you actually draw (before any changes)?",-1,-1,1642307391031,0,0.9166666666666666
sona-32196,unif,over,trial,55,receiver,100,0.5,5,77,82,82,-5,5,-152,-204,5875.566042165825,1642307437083,"How many <b class=""r"">red</b> marbles did you actually draw (before any changes)?",-1,-1,1642307437083,0,0.9166666666666666
sona-32196,unif,over,trial,56,sender,100,0.5,5,40,40,33,0,-7,-152,-211,2517.2065369779325,1642307447346,"How many <b class=""r"">red</b> marbles did you actually draw (before any changes)?",-1,-1,1642307437083,0,0.9166666666666666
sona-32196,unif,over,trial,57,receiver,100,0.5,5,18,22,22,-4,4,-156,-207,5841.550673420885,1642307456739,"How many <b class=""r"">red</b> marbles did you actually draw (before any changes)?",-1,-1,1642307437083,0,0.9166666666666666
sona-32196,unif,over,trial,58,sender,100,0.5,5,72,72,66,0,-6,-156,-213,2758.2567477498396,1642307464323,"How many <b class=""r"">red</b> marbles did you actually draw (before any changes)?",-1,-1,1642307437083,0,0.9166666666666666
sona-32196,unif,over,trial,59,receiver,100,0.5,5,30,32,32,-2,2,-158,-211,5334.542518015151,1642307474432,"How many <b class=""r"">red</b> marbles did your opponent report drawing?",32,32,1642307474432,0,0.9166666666666666
sona-32196,unif,over,trial,60,sender,100,0.5,5,58,58,54,0,-4,-158,-215,2787.1211755322283,1642307487345,"How many <b class=""r"">red</b> marbles did your opponent report drawing?",-1,-1,1642307487345,0,0.9166666666666666
sona-32196,unif,over,trial,61,receiver,100,0.5,5,61,67,67,-6,6,-164,-209,6436.497496901034,1642307498053,"How many <b class=""r"">red</b> marbles did your opponent report drawing?",-1,-1,1642307487345,0,0.9166666666666666
sona-32196,unif,over,trial,62,sender,100,0.5,5,68,68,65,0,-3,-164,-212,2521.0371320321688,1642307505834,"How many <b class=""r"">red</b> marbles did your opponent report drawing?",-1,-1,1642307487345,0,0.9166666666666666
sona-32196,unif,over,trial,63,receiver,100,0.5,5,71,76,76,-5,5,-169,-207,5256.990037974156,1642307514195,"How many <b class=""r"">red</b> marbles did your opponent report drawing?",-1,-1,1642307487345,0,0.9166666666666666
sona-32196,unif,over,trial,64,sender,100,0.5,5,59,59,55,0,-4,-169,-211,2999.5847683297297,1642307522046,"How many <b class=""r"">red</b> marbles did your opponent report drawing?",-1,-1,1642307487345,0,0.9166666666666666
sona-32196,unif,over,trial,65,receiver,100,0.5,5,46,51,51,-5,5,-174,-206,7394.20454099107,1642307532949,"How many <b class=""r"">red</b> marbles did your opponent report drawing?",-1,-1,1642307532949,0,0.9166666666666666
sona-32196,unif,over,trial,66,sender,100,0.5,5,62,62,58,0,-4,-174,-210,2725.2340131494875,1642307545423,"How many <b class=""r"">red</b> marbles did your opponent report drawing?",-1,-1,1642307532949,0,0.9166666666666666
sona-32196,unif,over,trial,67,receiver,100,0.5,5,11,16,16,-5,5,-179,-205,6732.94954434465,1642307556358,"How many <b class=""r"">red</b> marbles did your opponent report drawing?",-1,-1,1642307532949,0,0.9166666666666666
sona-32196,unif,over,trial,68,sender,100,0.5,5,27,27,23,0,-4,-179,-209,2716.1638750878,1642307564473,"How many <b class=""r"">red</b> marbles did your opponent report drawing?",-1,-1,1642307532949,0,0.9166666666666666
sona-32196,unif,over,trial,69,receiver,100,0.5,5,37,38,38,-1,1,-180,-208,5968.646317711249,1642307574328,"How many <b class=""r"">red</b> marbles did your opponent report drawing?",-1,-1,1642307532949,0,0.9166666666666666
sona-32196,unif,over,trial,70,sender,100,0.5,5,46,46,42,0,-4,-180,-212,2399.140233227221,1642307582183,"How many <b class=""r"">red</b> marbles did your opponent report drawing?",-1,-1,1642307582183,0,0.9166666666666666
sona-32196,unif,over,trial,71,receiver,100,0.5,5,26,29,29,-3,3,-183,-209,5321.421316641947,1642307593149,"How many <b class=""r"">red</b> marbles did your opponent report drawing?",-1,-1,1642307582183,0,0.9166666666666666
sona-32196,unif,over,trial,72,sender,100,0.5,5,49,49,44,0,-5,-183,-214,2727.933677344651,1642307600889,"How many <b class=""r"">red</b> marbles did your opponent report drawing?",-1,-1,1642307582183,0,0.9166666666666666
sona-32196,unif,over,trial,73,receiver,100,0.5,5,38,45,45,-7,7,-190,-207,6125.001553279157,1642307611307,"How many <b class=""r"">red</b> marbles did your opponent report drawing?",-1,-1,1642307582183,0,0.9166666666666666
sona-32196,unif,over,trial,74,sender,100,0.5,5,49,50,40,0,-9,-190,-216,2068.759871684627,1642307621414,"How many <b class=""r"">red</b> marbles did your opponent report drawing?",-1,-1,1642307582183,0,0.9166666666666666
sona-32196,unif,over,trial,75,receiver,100,0.5,5,76,79,79,-3,3,-193,-213,7487.158231084385,1642307632840,"How many <b class=""r"">red</b> marbles did your opponent report drawing?",-1,-1,1642307632840,0,0.9166666666666666
sona-32196,unif,over,trial,76,sender,100,0.5,5,58,50,43,0,-15,-193,-228,3215.010183095628,1642307662379,"How many <b class=""r"">red</b> marbles did your opponent report drawing?",-1,-1,1642307632840,0,0.9166666666666666
sona-32196,unif,over,trial,77,receiver,100,0.5,5,83,86,86,-3,3,-196,-225,7260.346190035582,1642307673388,"How many <b class=""r"">red</b> marbles did your opponent report drawing?",-1,-1,1642307632840,0,0.9166666666666666
sona-32196,unif,over,trial,78,sender,100,0.5,5,24,49,44,20,-20,-176,-245,2947.005469976066,1642307713002,"How many <b class=""r"">red</b> marbles did your opponent report drawing?",-1,-1,1642307632840,0,0.9166666666666666
sona-32196,unif,over,trial,79,receiver,100,0.5,5,79,81,81,-2,2,-178,-243,5212.321609555764,1642307722971,"How many <b class=""r"">red</b> marbles did your opponent report drawing?",-1,-1,1642307632840,0,0.9166666666666666
sona-32196,unif,over,trial,80,sender,100,0.5,5,55,50,47,0,-8,-178,-251,2927.750495115046,1642307738060,"How many <b class=""r"">red</b> marbles did your opponent report drawing?",-1,-1,1642307738060,0,0.9166666666666666
sona-32196,unif,over,trial,81,receiver,100,0.5,5,15,19,19,-4,4,-182,-247,6848.717601111795,1642307752794,"How many <b class=""r"">red</b> marbles did your opponent report drawing?",-1,-1,1642307738060,0,0.9166666666666666
sona-32196,unif,over,trial,82,sender,100,0.5,5,28,51,46,18,-18,-164,-265,3049.492857185421,1642307784866,"How many <b class=""r"">red</b> marbles did your opponent report drawing?",-1,-1,1642307738060,0,0.9166666666666666
sona-32196,unif,over,trial,83,receiver,100,0.5,5,73,78,78,-5,5,-169,-260,6468.895449803334,1642307797328,"How many <b class=""r"">red</b> marbles did your opponent report drawing?",-1,-1,1642307738060,0,0.9166666666666666
sona-32196,unif,over,trial,84,sender,100,0.5,5,18,51,45,27,-27,-142,-287,3234.212295255471,1642307843404,"How many <b class=""r"">red</b> marbles did your opponent report drawing?",-1,-1,1642307738060,0,0.9166666666666666
sona-32196,unif,over,trial,85,receiver,100,0.5,5,58,65,65,-7,7,-149,-280,5652.3584339168865,1642307855025,"How many <b class=""r"">red</b> marbles did your opponent report drawing?",-1,-1,1642307855025,0,0.9166666666666666
sona-32196,unif,over,trial,86,sender,100,0.5,5,46,52,47,1,-1,-148,-281,2281.6602066876017,1642307873681,"How many <b class=""r"">red</b> marbles did your opponent report drawing?",-1,-1,1642307855025,0,0.9166666666666666
sona-32196,unif,over,trial,87,receiver,100,0.5,5,92,94,94,-2,2,-150,-279,6468.594085111202,1642307884750,"How many <b class=""r"">red</b> marbles did your opponent report drawing?",-1,-1,1642307855025,0,0.9166666666666666
sona-32196,unif,over,trial,88,sender,100,0.5,5,59,49,46,0,-13,-150,-292,2121.152462888721,1642307910783,"How many <b class=""r"">red</b> marbles did your opponent report drawing?",-1,-1,1642307855025,0,0.9166666666666666
sona-32196,unif,over,trial,89,receiver,100,0.5,5,38,43,43,-5,5,-155,-287,5569.082764986727,1642307921891,"How many <b class=""r"">red</b> marbles did your opponent report drawing?",43,43,1642307921891,0,0.9166666666666666
sona-32196,unif,over,trial,90,sender,100,0.5,5,28,48,40,12,-12,-143,-299,2262.3251744734835,1642307961798,"How many <b class=""r"">red</b> marbles did your opponent report drawing?",-1,-1,1642307961798,0,0.9166666666666666
sona-32196,unif,over,trial,91,receiver,100,0.5,5,11,15,15,-4,4,-147,-295,7378.527978430844,1642307975480,"How many <b class=""r"">red</b> marbles did your opponent report drawing?",-1,-1,1642307961798,0,0.9166666666666666
sona-32196,unif,over,trial,92,sender,100,0.5,5,56,51,44,0,-12,-147,-307,2512.1610094567513,1642307992360,"How many <b class=""r"">red</b> marbles did your opponent report drawing?",-1,-1,1642307961798,0,0.9166666666666666
sona-32196,unif,over,trial,93,receiver,100,0.5,5,65,70,70,-5,5,-152,-302,5576.1285833640295,1642308003850,"How many <b class=""r"">red</b> marbles did your opponent report drawing?",70,70,1642308003850,0,0.9166666666666666
sona-32196,unif,over,trial,94,sender,100,0.5,5,72,50,46,0,-26,-152,-328,3173.733094314199,1642308047860,"How many <b class=""r"">red</b> marbles did your opponent report drawing?",-1,-1,1642308003850,0,0.9166666666666666
sona-32196,unif,over,trial,95,receiver,100,0.5,5,71,78,78,-7,7,-159,-321,7102.9333756347005,1642308059386,"How many <b class=""r"">red</b> marbles did your opponent report drawing?",-1,-1,1642308059386,0,0.9166666666666666
sona-32196,unif,over,trial,96,sender,100,0.5,5,26,50,46,20,-20,-139,-341,2843.4709699562345,1642308095290,"How many <b class=""r"">red</b> marbles did your opponent report drawing?",-1,-1,1642308059386,0,0.9166666666666666
sona-32196,unif,over,trial,97,receiver,100,0.5,5,60,70,70,-10,10,-149,-331,6070.372286327451,1642308106040,"How many <b class=""r"">red</b> marbles did your opponent report drawing?",-1,-1,1642308059386,0,0.9166666666666666
sona-32196,unif,over,trial,98,sender,100,0.5,5,44,49,46,2,-2,-147,-333,2151.089909448584,1642308125625,"How many <b class=""r"">red</b> marbles did your opponent report drawing?",-1,-1,1642308059386,0,0.9166666666666666
sona-32196,unif,over,trial,99,receiver,100,0.5,5,74,82,82,-8,8,-155,-325,5143.5499431944145,1642308134751,"How many <b class=""r"">red</b> marbles did your opponent report drawing?",-1,-1,1642308059386,0,0.9166666666666666
sona-32196,unif,over,trial,100,sender,100,0.5,5,36,51,50,14,-14,-141,-339,2359.320495555563,1642308159358,"How many <b class=""r"">red</b> marbles did your opponent report drawing?",-1,-1,1642308159358,0,0.9166666666666666
sona-36878,linear,over,trial,1,sender,100,0.5,5,56,59,51,0,-5,0,-5,2503.484614048135,1642311694733,"How many <b class=""r"">red</b> marbles did your opponent report drawing?",-1,-1,1642311632150,0,0.8333333333333334
sona-36878,linear,over,trial,2,receiver,100,0.5,5,61,67,64,-3,3,-3,-2,5821.535926657531,1642311749811,"How many <b class=""r"">red</b> marbles did your opponent report drawing?",-1,-1,1642311632150,0,0.8333333333333334
sona-36878,linear,over,trial,3,sender,100,0.5,5,36,42,36,0,0,-3,-2,2164.7903902562516,1642311783531,"How many <b class=""r"">red</b> marbles did your opponent report drawing?",-1,-1,1642311632150,0,0.8333333333333334
sona-36878,linear,over,trial,4,receiver,100,0.5,5,62,65,60,-2,0,-5,-2,7164.974352183712,1642311825899,"How many <b class=""r"">red</b> marbles did your opponent report drawing?",-1,-1,1642311632150,0,0.8333333333333334
sona-36878,linear,over,trial,5,sender,100,0.5,5,61,59,53,0,-8,-5,-10,2930.2993599961387,1642311862599,"How many <b class=""r"">red</b> marbles did your opponent report drawing?",-1,-1,1642311862599,0,0.8333333333333334
sona-36878,linear,over,trial,6,receiver,100,0.5,5,73,78,75,-2,2,-7,-8,7387.2544018945855,1642311888913,"How many <b class=""r"">red</b> marbles did your opponent report drawing?",78,78,1642311888913,0,0.8333333333333334
sona-36878,linear,over,trial,7,sender,100,0.5,5,54,45,41,0,-13,-7,-21,2141.0241367539347,1642311922459,"How many <b class=""r"">red</b> marbles did your opponent report drawing?",-1,-1,1642311888913,0,0.8333333333333334
sona-36878,linear,over,trial,8,receiver,100,0.5,5,45,49,53,-8,8,-15,-13,5318.435716175711,1642311947243,"How many <b class=""r"">red</b> marbles did your opponent report drawing?",-1,-1,1642311888913,0,0.8333333333333334
sona-36878,linear,over,trial,9,sender,100,0.5,5,70,63,60,0,-10,-15,-23,2367.241951101303,1642311978978,"How many <b class=""r"">red</b> marbles did your opponent report drawing?",-1,-1,1642311888913,0,0.8333333333333334
sona-36878,linear,over,trial,10,receiver,100,0.5,5,77,84,75,-2,0,-17,-23,5364.882091725067,1642312011671,"How many <b class=""r"">red</b> marbles did your opponent report drawing?",84,84,1642312011672,0,0.8333333333333334
sona-36878,linear,over,trial,11,sender,100,0.5,5,35,28,21,0,-14,-17,-37,2677.369319697003,1642312050786,"How many <b class=""r"">red</b> marbles did your opponent report drawing?",-1,-1,1642312011672,0,0.8333333333333334
sona-36878,linear,over,trial,12,receiver,100,0.5,5,36,43,50,-14,14,-31,-23,5703.8324639782695,1642312074500,"How many <b class=""r"">red</b> marbles did your opponent report drawing?",-1,-1,1642312011672,0,0.8333333333333334
sona-36878,linear,over,trial,13,sender,100,0.5,5,60,66,59,0,-1,-31,-24,2530.6495991900165,1642312104096,"How many <b class=""r"">red</b> marbles did your opponent report drawing?",-1,-1,1642312011672,0,0.8333333333333334
sona-36878,linear,over,trial,14,receiver,100,0.5,5,17,21,27,-10,10,-41,-14,7221.8206094735615,1642312125539,"How many <b class=""r"">red</b> marbles did your opponent report drawing?",-1,-1,1642312011672,0,0.8333333333333334
sona-36878,linear,over,trial,15,sender,100,0.5,5,85,90,90,5,-5,-36,-19,2959.3160073840454,1642312146412,"How many <b class=""r"">red</b> marbles did your opponent report drawing?",-1,-1,1642312146412,0,0.8333333333333334
sona-36878,linear,over,trial,16,receiver,100,0.5,5,39,44,45,-6,6,-42,-13,5305.875372975564,1642312181448,"How many <b class=""r"">red</b> marbles did your opponent report drawing?",-1,-1,1642312146412,0,0.8333333333333334
sona-36878,linear,over,trial,17,sender,100,0.5,5,61,66,64,3,-3,-39,-16,3206.925437707423,1642312225980,"How many <b class=""r"">red</b> marbles did your opponent report drawing?",-1,-1,1642312146412,0,0.8333333333333334
sona-36878,linear,over,trial,18,receiver,100,0.5,5,59,62,58,-1,0,-40,-16,7264.2007247502,1642312252606,"How many <b class=""r"">red</b> marbles did your opponent report drawing?",-1,-1,1642312146412,0,0.8333333333333334
sona-36878,linear,over,trial,19,sender,100,0.5,5,46,57,54,8,-8,-32,-24,2137.2727672677147,1642312290331,"How many <b class=""r"">red</b> marbles did your opponent report drawing?",-1,-1,1642312146412,0,0.8333333333333334
sona-36878,linear,over,trial,20,receiver,100,0.5,5,50,54,56,-6,6,-38,-18,6418.210371057934,1642312307707,"How many <b class=""r"">red</b> marbles did your opponent report drawing?",-1,-1,1642312307707,0,0.8333333333333334
sona-36878,linear,over,trial,21,sender,100,0.5,5,36,42,36,0,0,-38,-18,2228.2381006221267,1642312332034,"How many <b class=""r"">red</b> marbles did your opponent report drawing?",-1,-1,1642312307707,0,0.8333333333333334
sona-36878,linear,over,trial,22,receiver,100,0.5,5,47,54,60,-13,13,-51,-5,7102.817067127452,1642312356870,"How many <b class=""r"">red</b> marbles did your opponent report drawing?",54,54,1642312356870,0,0.8333333333333334
sona-36878,linear,over,trial,23,sender,100,0.5,5,53,48,43,0,-10,-51,-15,2942.0221221761963,1642312393536,"How many <b class=""r"">red</b> marbles did your opponent report drawing?",-1,-1,1642312356870,0,0.8333333333333334
sona-36878,linear,over,trial,24,receiver,100,0.5,5,45,49,45,0,0,-51,-15,7210.035268757825,1642312414893,"How many <b class=""r"">red</b> marbles did your opponent report drawing?",49,49,1642312414894,0,0.8333333333333334
sona-36878,linear,over,trial,25,sender,100,0.5,5,42,45,39,0,-3,-51,-18,2678.8263610656186,1642312441657,"How many <b class=""r"">red</b> marbles did your opponent report drawing?",-1,-1,1642312441657,0,0.8333333333333334
sona-36878,linear,over,trial,26,receiver,100,0.5,5,54,61,58,-4,4,-55,-14,5378.2836404860145,1642312470856,"How many <b class=""r"">red</b> marbles did your opponent report drawing?",-1,-1,1642312441657,0,0.8333333333333334
sona-36878,linear,over,trial,27,sender,100,0.5,5,39,37,35,0,-4,-55,-18,3215.7743166145174,1642312494028,"How many <b class=""r"">red</b> marbles did you actually draw (before any changes)?",39,39,1642312494028,0,0.8333333333333334
sona-36878,linear,over,trial,28,receiver,100,0.5,5,59,63,67,-8,8,-63,-10,6024.100144148697,1642312533804,"How many <b class=""r"">red</b> marbles did you actually draw (before any changes)?",-1,-1,1642312494028,0,0.8333333333333334
sona-36878,linear,over,trial,29,sender,100,0.5,5,50,50,48,0,-2,-63,-12,3086.357410698894,1642312545600,"How many <b class=""r"">red</b> marbles did you actually draw (before any changes)?",-1,-1,1642312494028,0,0.8333333333333334
sona-36878,linear,over,trial,30,receiver,100,0.5,5,51,55,56,-5,5,-68,-7,5510.845673592028,1642312556993,"How many <b class=""r"">red</b> marbles did you actually draw (before any changes)?",-1,-1,1642312556993,0,0.8333333333333334
sona-36878,linear,over,trial,31,sender,100,0.5,5,23,29,25,2,-2,-66,-9,2717.4420623251945,1642312596523,"How many <b class=""r"">red</b> marbles did you actually draw (before any changes)?",-1,-1,1642312556993,0,0.8333333333333334
sona-36878,linear,over,trial,32,receiver,100,0.5,5,62,67,60,-2,0,-68,-9,7168.471066832935,1642312624785,"How many <b class=""r"">red</b> marbles did you actually draw (before any changes)?",-1,-1,1642312556993,0,0.8333333333333334
sona-36878,linear,over,trial,33,sender,100,0.5,5,68,62,57,0,-11,-68,-20,2494.1502360776894,1642312652954,"How many <b class=""r"">red</b> marbles did you actually draw (before any changes)?",-1,-1,1642312556993,0,0.8333333333333334
sona-36878,linear,over,trial,34,receiver,100,0.5,5,28,31,48,-20,20,-88,0,5908.525280375297,1642312708294,"How many <b class=""r"">red</b> marbles did you actually draw (before any changes)?",-1,-1,1642312556993,0,0.8333333333333334
sona-36878,linear,over,trial,35,sender,100,0.5,5,55,51,50,0,-5,-88,-5,2974.8950625676466,1642312728815,"How many <b class=""r"">red</b> marbles did you actually draw (before any changes)?",-1,-1,1642312728815,0,0.8333333333333334
sona-36878,linear,over,trial,36,receiver,100,0.5,5,45,54,66,-21,21,-109,16,6694.289610343409,1642312759192,"How many <b class=""r"">red</b> marbles did you actually draw (before any changes)?",-1,-1,1642312728815,0,0.8333333333333334
sona-36878,linear,over,trial,37,sender,100,0.5,5,91,95,87,0,-4,-109,12,3153.4538154895736,1642312786620,"How many <b class=""r"">red</b> marbles did you actually draw (before any changes)?",-1,-1,1642312728815,0,0.8333333333333334
sona-36878,linear,over,trial,38,receiver,100,0.5,5,57,63,70,-13,13,-122,25,5793.61492831167,1642312803184,"How many <b class=""r"">red</b> marbles did you actually draw (before any changes)?",-1,-1,1642312728815,0,0.8333333333333334
sona-36878,linear,over,trial,39,sender,100,0.5,5,30,41,33,3,-3,-119,22,2350.8607864745027,1642312840084,"How many <b class=""r"">red</b> marbles did you actually draw (before any changes)?",-1,-1,1642312728815,0,0.8333333333333334
sona-36878,linear,over,trial,40,receiver,100,0.5,5,15,17,15,0,0,-119,22,6838.262754627174,1642312861556,"How many <b class=""r"">red</b> marbles did you actually draw (before any changes)?",-1,-1,1642312861556,0,0.8333333333333334
sona-36878,linear,over,trial,41,sender,100,0.5,5,22,41,35,13,-13,-106,9,2593.120145994485,1642312926986,"How many <b class=""r"">red</b> marbles did you actually draw (before any changes)?",-1,-1,1642312861556,0,0.8333333333333334
sona-36878,linear,over,trial,42,receiver,100,0.5,5,66,71,65,-1,0,-107,9,7055.687667082435,1642312959453,"How many <b class=""r"">red</b> marbles did you actually draw (before any changes)?",-1,-1,1642312861556,0,0.8333333333333334
sona-36878,linear,over,trial,43,sender,100,0.5,5,33,46,38,5,-5,-102,4,2460.34247442741,1642313058611,"How many <b class=""r"">red</b> marbles did you actually draw (before any changes)?",-1,-1,1642312861556,0,0.8333333333333334
sona-36878,linear,over,trial,44,receiver,100,0.5,5,41,43,39,-2,0,-104,4,7033.051729687113,1642313086260,"How many <b class=""r"">red</b> marbles did you actually draw (before any changes)?",-1,-1,1642312861556,0,0.8333333333333334
sona-36878,linear,over,trial,45,sender,100,0.5,5,29,42,38,9,-9,-95,-5,3075.974828206209,1642313128124,"How many <b class=""r"">red</b> marbles did you actually draw (before any changes)?",-1,-1,1642313128124,0,0.8333333333333334
sona-36878,linear,over,trial,46,receiver,100,0.5,5,15,22,18,-3,3,-98,-2,6571.179715896612,1642313160916,"How many <b class=""r"">red</b> marbles did you actually draw (before any changes)?",-1,-1,1642313128124,0,0.8333333333333334
sona-36878,linear,over,trial,47,sender,100,0.5,5,36,53,46,10,-10,-88,-12,2590.489668126611,1642313216671,"How many <b class=""r"">red</b> marbles did you actually draw (before any changes)?",-1,-1,1642313128124,0,0.8333333333333334
sona-36878,linear,over,trial,48,receiver,100,0.5,5,14,20,18,-4,4,-92,-8,5571.446852377132,1642313249881,"How many <b class=""r"">red</b> marbles did you actually draw (before any changes)?",-1,-1,1642313128124,0,0.8333333333333334
sona-36878,linear,over,trial,49,sender,100,0.5,5,82,64,54,0,-28,-92,-36,2134.546020739637,1642313315976,"How many <b class=""r"">red</b> marbles did you actually draw (before any changes)?",-1,-1,1642313128124,0,0.8333333333333334
sona-36878,linear,over,trial,50,receiver,100,0.5,5,74,75,70,-4,0,-96,-36,6113.99018564491,1642313341002,"How many <b class=""r"">red</b> marbles did you actually draw (before any changes)?",-1,-1,1642313341002,0,0.8333333333333334
sona-36878,linear,over,trial,51,sender,100,0.5,5,62,42,40,0,-22,-96,-58,2453.143559976033,1642313445456,"How many <b class=""r"">red</b> marbles did you actually draw (before any changes)?",-1,-1,1642313341002,0,0.8333333333333334
sona-36878,linear,over,trial,52,receiver,100,0.5,5,48,54,48,0,0,-96,-58,5971.92670563341,1642313470924,"How many <b class=""r"">red</b> marbles did your opponent report drawing?",54,52,1642313470924,0,0.8333333333333334
