{
    "client": {
        "type": "sona",
        "experiment_id": 2228,
        "credit_token": "b315147ae43241ea9c65086cb510cfb7",
        "survey_code": "27753",
        "sid": "sona-27753",
        "window": {
            "width": 1504,
            "height": 860
        },
        "screen": {
            "width": 1504,
            "height": 1003
        },
        "userAgent": "Mozilla\/5.0 (Windows NT 10.0; Win64; x64) AppleWebKit\/537.36 (KHTML, like Gecko) Chrome\/97.0.4692.99 Safari\/537.36",
        "score": 0,
        "bonus": 0
    },
    "expt": {
        "saveURL": "submit.simple.php",
        "trials": 100,
        "practiceTrials": 2,
        "marblesSampled": 100,
        "probRed": 0.5,
        "lambdaAI": 5,
        "roleFirst": "receiver",
        "roles": [
            "sender",
            "receiver"
        ],
        "cost": "unif",
        "goal": "under",
        "catchTrials": [
            72,
            78,
            43,
            93,
            36,
            18,
            3,
            69,
            11,
            58
        ],
        "scoreTotal": {
            "player": 51,
            "opp": -309
        },
        "sona": {
            "experiment_id": 2228,
            "credit_token": "b315147ae43241ea9c65086cb510cfb7"
        },
        "pilot": false,
        "debug": false
    },
    "trials": [
        {
            "exptPart": "practice",
            "trialNumber": 1,
            "roleCurrent": "sender",
            "marblesSampled": 100,
            "probRed": 0.5,
            "lambda": 5,
            "drawnRed": 35,
            "reportedRed": 29,
            "inferredRed": 36,
            "playerTrialScore": 0,
            "oppTrialScore": -1,
            "playerTotalScore": 0,
            "oppTotalScore": -1,
            "waitTime": 3116.972023597233,
            "responseTime": 1642737136604,
            "catchQuestion": "How many <b class=\"r\">red<\/b> marbles did you actually draw (before any changes)? ",
            "catchKey": 35,
            "catchResponse": 35,
            "catchTime": 1642737136604,
            "trialTime": 0
        },
        {
            "exptPart": "practice",
            "trialNumber": 2,
            "roleCurrent": "receiver",
            "marblesSampled": 100,
            "probRed": 0.5,
            "lambda": 5,
            "drawnRed": 52,
            "reportedRed": 50,
            "inferredRed": 45,
            "playerTrialScore": -7,
            "oppTrialScore": 7,
            "playerTotalScore": -7,
            "oppTotalScore": 6,
            "waitTime": 6378.712898350001,
            "responseTime": 1642737163067,
            "catchQuestion": "How many <b class=\"r\">red<\/b> marbles did your opponent report drawing? ",
            "catchKey": 50,
            "catchResponse": 50,
            "catchTime": 1642737163067,
            "trialTime": 0
        },
        {
            "exptPart": "trial",
            "trialNumber": 1,
            "roleCurrent": "receiver",
            "marblesSampled": 100,
            "probRed": 0.5,
            "lambda": 5,
            "drawnRed": 32,
            "reportedRed": 27,
            "inferredRed": 30,
            "playerTrialScore": -2,
            "oppTrialScore": 2,
            "playerTotalScore": -2,
            "oppTotalScore": 2,
            "waitTime": 5970.033760193173,
            "responseTime": 1642737191923,
            "catchQuestion": "How many <b class=\"r\">red<\/b> marbles did your opponent report drawing? ",
            "catchKey": -1,
            "catchResponse": -1,
            "catchTime": 1642737163067,
            "trialTime": 0
        },
        {
            "exptPart": "trial",
            "trialNumber": 2,
            "roleCurrent": "sender",
            "marblesSampled": 100,
            "probRed": 0.5,
            "lambda": 5,
            "drawnRed": 19,
            "reportedRed": 19,
            "inferredRed": 25,
            "playerTrialScore": 0,
            "oppTrialScore": -6,
            "playerTotalScore": -2,
            "oppTotalScore": -4,
            "waitTime": 2135.8567484033465,
            "responseTime": 1642737208735,
            "catchQuestion": "How many <b class=\"r\">red<\/b> marbles did your opponent report drawing? ",
            "catchKey": -1,
            "catchResponse": -1,
            "catchTime": 1642737163067,
            "trialTime": 0
        },
        {
            "exptPart": "trial",
            "trialNumber": 3,
            "roleCurrent": "receiver",
            "marblesSampled": 100,
            "probRed": 0.5,
            "lambda": 5,
            "drawnRed": 74,
            "reportedRed": 64,
            "inferredRed": 50,
            "playerTrialScore": -24,
            "oppTrialScore": 24,
            "playerTotalScore": -26,
            "oppTotalScore": 20,
            "waitTime": 5853.802909232209,
            "responseTime": 1642737223597,
            "catchQuestion": "How many <b class=\"r\">red<\/b> marbles did your opponent report drawing? ",
            "catchKey": -1,
            "catchResponse": -1,
            "catchTime": 1642737163067,
            "trialTime": 0
        },
        {
            "exptPart": "trial",
            "trialNumber": 4,
            "roleCurrent": "sender",
            "marblesSampled": 100,
            "probRed": 0.5,
            "lambda": 5,
            "drawnRed": 54,
            "reportedRed": 50,
            "inferredRed": 54,
            "playerTrialScore": 0,
            "oppTrialScore": 0,
            "playerTotalScore": -26,
            "oppTotalScore": 20,
            "waitTime": 2982.501376794002,
            "responseTime": 1642737238431,
            "catchQuestion": "How many <b class=\"r\">red<\/b> marbles did you actually draw (before any changes)? ",
            "catchKey": 54,
            "catchResponse": 54,
            "catchTime": 1642737238431,
            "trialTime": 0
        },
        {
            "exptPart": "trial",
            "trialNumber": 5,
            "roleCurrent": "receiver",
            "marblesSampled": 100,
            "probRed": 0.5,
            "lambda": 5,
            "drawnRed": 65,
            "reportedRed": 60,
            "inferredRed": 55,
            "playerTrialScore": -10,
            "oppTrialScore": 10,
            "playerTotalScore": -36,
            "oppTotalScore": 30,
            "waitTime": 5492.670634916771,
            "responseTime": 1642737254738,
            "catchQuestion": "How many <b class=\"r\">red<\/b> marbles did you actually draw (before any changes)? ",
            "catchKey": -1,
            "catchResponse": -1,
            "catchTime": 1642737254738,
            "trialTime": 0
        },
        {
            "exptPart": "trial",
            "trialNumber": 6,
            "roleCurrent": "sender",
            "marblesSampled": 100,
            "probRed": 0.5,
            "lambda": 5,
            "drawnRed": 55,
            "reportedRed": 17,
            "inferredRed": 20,
            "playerTrialScore": 35,
            "oppTrialScore": -35,
            "playerTotalScore": -1,
            "oppTotalScore": -5,
            "waitTime": 3079.509429672721,
            "responseTime": 1642737300475,
            "catchQuestion": "How many <b class=\"r\">red<\/b> marbles did you actually draw (before any changes)? ",
            "catchKey": -1,
            "catchResponse": -1,
            "catchTime": 1642737254738,
            "trialTime": 0
        },
        {
            "exptPart": "trial",
            "trialNumber": 7,
            "roleCurrent": "receiver",
            "marblesSampled": 100,
            "probRed": 0.5,
            "lambda": 5,
            "drawnRed": 78,
            "reportedRed": 75,
            "inferredRed": 70,
            "playerTrialScore": -8,
            "oppTrialScore": 8,
            "playerTotalScore": -9,
            "oppTotalScore": 3,
            "waitTime": 6785.629713871929,
            "responseTime": 1642737316974,
            "catchQuestion": "How many <b class=\"r\">red<\/b> marbles did you actually draw (before any changes)? ",
            "catchKey": -1,
            "catchResponse": -1,
            "catchTime": 1642737254738,
            "trialTime": 0
        },
        {
            "exptPart": "trial",
            "trialNumber": 8,
            "roleCurrent": "sender",
            "marblesSampled": 100,
            "probRed": 0.5,
            "lambda": 5,
            "drawnRed": 71,
            "reportedRed": 71,
            "inferredRed": 77,
            "playerTrialScore": 0,
            "oppTrialScore": -6,
            "playerTotalScore": -9,
            "oppTotalScore": -3,
            "waitTime": 2279.7806475144644,
            "responseTime": 1642737323836,
            "catchQuestion": "How many <b class=\"r\">red<\/b> marbles did you actually draw (before any changes)? ",
            "catchKey": -1,
            "catchResponse": -1,
            "catchTime": 1642737254738,
            "trialTime": 0
        },
        {
            "exptPart": "trial",
            "trialNumber": 9,
            "roleCurrent": "receiver",
            "marblesSampled": 100,
            "probRed": 0.5,
            "lambda": 5,
            "drawnRed": 35,
            "reportedRed": 33,
            "inferredRed": 40,
            "playerTrialScore": -5,
            "oppTrialScore": 0,
            "playerTotalScore": -14,
            "oppTotalScore": -3,
            "waitTime": 5369.642441322392,
            "responseTime": 1642737333139,
            "catchQuestion": "How many <b class=\"r\">red<\/b> marbles did you actually draw (before any changes)? ",
            "catchKey": -1,
            "catchResponse": -1,
            "catchTime": 1642737254738,
            "trialTime": 0
        },
        {
            "exptPart": "trial",
            "trialNumber": 10,
            "roleCurrent": "sender",
            "marblesSampled": 100,
            "probRed": 0.5,
            "lambda": 5,
            "drawnRed": 50,
            "reportedRed": 50,
            "inferredRed": 55,
            "playerTrialScore": 0,
            "oppTrialScore": -5,
            "playerTotalScore": -14,
            "oppTotalScore": -8,
            "waitTime": 2343.759452633837,
            "responseTime": 1642737343314,
            "catchQuestion": "How many <b class=\"r\">red<\/b> marbles did you actually draw (before any changes)? ",
            "catchKey": -1,
            "catchResponse": -1,
            "catchTime": 1642737343315,
            "trialTime": 0
        },
        {
            "exptPart": "trial",
            "trialNumber": 11,
            "roleCurrent": "receiver",
            "marblesSampled": 100,
            "probRed": 0.5,
            "lambda": 5,
            "drawnRed": 34,
            "reportedRed": 30,
            "inferredRed": 31,
            "playerTrialScore": -3,
            "oppTrialScore": 3,
            "playerTotalScore": -17,
            "oppTotalScore": -5,
            "waitTime": 7017.982131196648,
            "responseTime": 1642737362704,
            "catchQuestion": "How many <b class=\"r\">red<\/b> marbles did you actually draw (before any changes)? ",
            "catchKey": -1,
            "catchResponse": -1,
            "catchTime": 1642737343315,
            "trialTime": 0
        },
        {
            "exptPart": "trial",
            "trialNumber": 12,
            "roleCurrent": "sender",
            "marblesSampled": 100,
            "probRed": 0.5,
            "lambda": 5,
            "drawnRed": 80,
            "reportedRed": 100,
            "inferredRed": 100,
            "playerTrialScore": 0,
            "oppTrialScore": -20,
            "playerTotalScore": -17,
            "oppTotalScore": -25,
            "waitTime": 3136.7189023609067,
            "responseTime": 1642737392038,
            "catchQuestion": "How many <b class=\"r\">red<\/b> marbles did you actually draw (before any changes)? ",
            "catchKey": 80,
            "catchResponse": 80,
            "catchTime": 1642737392038,
            "trialTime": 0
        },
        {
            "exptPart": "trial",
            "trialNumber": 13,
            "roleCurrent": "receiver",
            "marblesSampled": 100,
            "probRed": 0.5,
            "lambda": 5,
            "drawnRed": 64,
            "reportedRed": 62,
            "inferredRed": 58,
            "playerTrialScore": -6,
            "oppTrialScore": 6,
            "playerTotalScore": -23,
            "oppTotalScore": -19,
            "waitTime": 5309.687961118028,
            "responseTime": 1642737408994,
            "catchQuestion": "How many <b class=\"r\">red<\/b> marbles did you actually draw (before any changes)? ",
            "catchKey": -1,
            "catchResponse": -1,
            "catchTime": 1642737392038,
            "trialTime": 0
        },
        {
            "exptPart": "trial",
            "trialNumber": 14,
            "roleCurrent": "sender",
            "marblesSampled": 100,
            "probRed": 0.5,
            "lambda": 5,
            "drawnRed": 80,
            "reportedRed": 80,
            "inferredRed": 85,
            "playerTrialScore": 0,
            "oppTrialScore": -5,
            "playerTotalScore": -23,
            "oppTotalScore": -24,
            "waitTime": 3064.8890784520354,
            "responseTime": 1642737418103,
            "catchQuestion": "How many <b class=\"r\">red<\/b> marbles did you actually draw (before any changes)? ",
            "catchKey": -1,
            "catchResponse": -1,
            "catchTime": 1642737392038,
            "trialTime": 0
        },
        {
            "exptPart": "trial",
            "trialNumber": 15,
            "roleCurrent": "receiver",
            "marblesSampled": 100,
            "probRed": 0.5,
            "lambda": 5,
            "drawnRed": 44,
            "reportedRed": 34,
            "inferredRed": 40,
            "playerTrialScore": -4,
            "oppTrialScore": 4,
            "playerTotalScore": -27,
            "oppTotalScore": -20,
            "waitTime": 5349.498520961026,
            "responseTime": 1642737428228,
            "catchQuestion": "How many <b class=\"r\">red<\/b> marbles did you actually draw (before any changes)? ",
            "catchKey": -1,
            "catchResponse": -1,
            "catchTime": 1642737428228,
            "trialTime": 0
        },
        {
            "exptPart": "trial",
            "trialNumber": 16,
            "roleCurrent": "sender",
            "marblesSampled": 100,
            "probRed": 0.5,
            "lambda": 5,
            "drawnRed": 41,
            "reportedRed": 41,
            "inferredRed": 47,
            "playerTrialScore": 0,
            "oppTrialScore": -6,
            "playerTotalScore": -27,
            "oppTotalScore": -26,
            "waitTime": 2852.7998837879477,
            "responseTime": 1642737438678,
            "catchQuestion": "How many <b class=\"r\">red<\/b> marbles did you actually draw (before any changes)? ",
            "catchKey": -1,
            "catchResponse": -1,
            "catchTime": 1642737428228,
            "trialTime": 0
        },
        {
            "exptPart": "trial",
            "trialNumber": 17,
            "roleCurrent": "receiver",
            "marblesSampled": 100,
            "probRed": 0.5,
            "lambda": 5,
            "drawnRed": 57,
            "reportedRed": 53,
            "inferredRed": 50,
            "playerTrialScore": -7,
            "oppTrialScore": 7,
            "playerTotalScore": -34,
            "oppTotalScore": -19,
            "waitTime": 5949.538608583471,
            "responseTime": 1642737448662,
            "catchQuestion": "How many <b class=\"r\">red<\/b> marbles did you actually draw (before any changes)? ",
            "catchKey": -1,
            "catchResponse": -1,
            "catchTime": 1642737428228,
            "trialTime": 0
        },
        {
            "exptPart": "trial",
            "trialNumber": 18,
            "roleCurrent": "sender",
            "marblesSampled": 100,
            "probRed": 0.5,
            "lambda": 5,
            "drawnRed": 50,
            "reportedRed": 48,
            "inferredRed": 52,
            "playerTrialScore": 0,
            "oppTrialScore": -2,
            "playerTotalScore": -34,
            "oppTotalScore": -21,
            "waitTime": 2321.165137851506,
            "responseTime": 1642737458343,
            "catchQuestion": "How many <b class=\"r\">red<\/b> marbles did you actually draw (before any changes)? ",
            "catchKey": -1,
            "catchResponse": -1,
            "catchTime": 1642737428228,
            "trialTime": 0
        },
        {
            "exptPart": "trial",
            "trialNumber": 19,
            "roleCurrent": "receiver",
            "marblesSampled": 100,
            "probRed": 0.5,
            "lambda": 5,
            "drawnRed": 23,
            "reportedRed": 18,
            "inferredRed": 25,
            "playerTrialScore": -2,
            "oppTrialScore": 0,
            "playerTotalScore": -36,
            "oppTotalScore": -21,
            "waitTime": 5743.453124843948,
            "responseTime": 1642737470454,
            "catchQuestion": "How many <b class=\"r\">red<\/b> marbles did your opponent report drawing? ",
            "catchKey": 18,
            "catchResponse": 18,
            "catchTime": 1642737470455,
            "trialTime": 0
        },
        {
            "exptPart": "trial",
            "trialNumber": 20,
            "roleCurrent": "sender",
            "marblesSampled": 100,
            "probRed": 0.5,
            "lambda": 5,
            "drawnRed": 64,
            "reportedRed": 73,
            "inferredRed": 79,
            "playerTrialScore": 0,
            "oppTrialScore": -15,
            "playerTotalScore": -36,
            "oppTotalScore": -36,
            "waitTime": 2667.256968411876,
            "responseTime": 1642737493748,
            "catchQuestion": "How many <b class=\"r\">red<\/b> marbles did your opponent report drawing? ",
            "catchKey": -1,
            "catchResponse": -1,
            "catchTime": 1642737493748,
            "trialTime": 0
        },
        {
            "exptPart": "trial",
            "trialNumber": 21,
            "roleCurrent": "receiver",
            "marblesSampled": 100,
            "probRed": 0.5,
            "lambda": 5,
            "drawnRed": 68,
            "reportedRed": 61,
            "inferredRed": 58,
            "playerTrialScore": -10,
            "oppTrialScore": 10,
            "playerTotalScore": -46,
            "oppTotalScore": -26,
            "waitTime": 6291.855515557736,
            "responseTime": 1642737510143,
            "catchQuestion": "How many <b class=\"r\">red<\/b> marbles did your opponent report drawing? ",
            "catchKey": -1,
            "catchResponse": -1,
            "catchTime": 1642737493748,
            "trialTime": 0
        },
        {
            "exptPart": "trial",
            "trialNumber": 22,
            "roleCurrent": "sender",
            "marblesSampled": 100,
            "probRed": 0.5,
            "lambda": 5,
            "drawnRed": 28,
            "reportedRed": 28,
            "inferredRed": 31,
            "playerTrialScore": 0,
            "oppTrialScore": -3,
            "playerTotalScore": -46,
            "oppTotalScore": -29,
            "waitTime": 2136.313186587764,
            "responseTime": 1642737530096,
            "catchQuestion": "How many <b class=\"r\">red<\/b> marbles did your opponent report drawing? ",
            "catchKey": -1,
            "catchResponse": -1,
            "catchTime": 1642737493748,
            "trialTime": 0
        },
        {
            "exptPart": "trial",
            "trialNumber": 23,
            "roleCurrent": "receiver",
            "marblesSampled": 100,
            "probRed": 0.5,
            "lambda": 5,
            "drawnRed": 47,
            "reportedRed": 43,
            "inferredRed": 45,
            "playerTrialScore": -2,
            "oppTrialScore": 2,
            "playerTotalScore": -48,
            "oppTotalScore": -27,
            "waitTime": 5778.155486860304,
            "responseTime": 1642737539933,
            "catchQuestion": "How many <b class=\"r\">red<\/b> marbles did your opponent report drawing? ",
            "catchKey": -1,
            "catchResponse": -1,
            "catchTime": 1642737493748,
            "trialTime": 0
        },
        {
            "exptPart": "trial",
            "trialNumber": 24,
            "roleCurrent": "sender",
            "marblesSampled": 100,
            "probRed": 0.5,
            "lambda": 5,
            "drawnRed": 39,
            "reportedRed": 40,
            "inferredRed": 43,
            "playerTrialScore": 0,
            "oppTrialScore": -4,
            "playerTotalScore": -48,
            "oppTotalScore": -31,
            "waitTime": 2777.468289532896,
            "responseTime": 1642737551799,
            "catchQuestion": "How many <b class=\"r\">red<\/b> marbles did your opponent report drawing? ",
            "catchKey": -1,
            "catchResponse": -1,
            "catchTime": 1642737493748,
            "trialTime": 0
        },
        {
            "exptPart": "trial",
            "trialNumber": 25,
            "roleCurrent": "receiver",
            "marblesSampled": 100,
            "probRed": 0.5,
            "lambda": 5,
            "drawnRed": 39,
            "reportedRed": 34,
            "inferredRed": 32,
            "playerTrialScore": -7,
            "oppTrialScore": 7,
            "playerTotalScore": -55,
            "oppTotalScore": -24,
            "waitTime": 5430.099194060341,
            "responseTime": 1642737564334,
            "catchQuestion": "How many <b class=\"r\">red<\/b> marbles did your opponent report drawing? ",
            "catchKey": -1,
            "catchResponse": -1,
            "catchTime": 1642737564334,
            "trialTime": 0
        },
        {
            "exptPart": "trial",
            "trialNumber": 26,
            "roleCurrent": "sender",
            "marblesSampled": 100,
            "probRed": 0.5,
            "lambda": 5,
            "drawnRed": 76,
            "reportedRed": 76,
            "inferredRed": 79,
            "playerTrialScore": 0,
            "oppTrialScore": -3,
            "playerTotalScore": -55,
            "oppTotalScore": -27,
            "waitTime": 3216.048480762686,
            "responseTime": 1642737586673,
            "catchQuestion": "How many <b class=\"r\">red<\/b> marbles did your opponent report drawing? ",
            "catchKey": -1,
            "catchResponse": -1,
            "catchTime": 1642737564334,
            "trialTime": 0
        },
        {
            "exptPart": "trial",
            "trialNumber": 27,
            "roleCurrent": "receiver",
            "marblesSampled": 100,
            "probRed": 0.5,
            "lambda": 5,
            "drawnRed": 29,
            "reportedRed": 24,
            "inferredRed": 30,
            "playerTrialScore": -1,
            "oppTrialScore": 0,
            "playerTotalScore": -56,
            "oppTotalScore": -27,
            "waitTime": 6124.199897302874,
            "responseTime": 1642737600342,
            "catchQuestion": "How many <b class=\"r\">red<\/b> marbles did your opponent report drawing? ",
            "catchKey": -1,
            "catchResponse": -1,
            "catchTime": 1642737564334,
            "trialTime": 0
        },
        {
            "exptPart": "trial",
            "trialNumber": 28,
            "roleCurrent": "sender",
            "marblesSampled": 100,
            "probRed": 0.5,
            "lambda": 5,
            "drawnRed": 45,
            "reportedRed": 50,
            "inferredRed": 53,
            "playerTrialScore": 0,
            "oppTrialScore": -8,
            "playerTotalScore": -56,
            "oppTotalScore": -35,
            "waitTime": 2113.202604642543,
            "responseTime": 1642737628032,
            "catchQuestion": "How many <b class=\"r\">red<\/b> marbles did your opponent report drawing? ",
            "catchKey": -1,
            "catchResponse": -1,
            "catchTime": 1642737564334,
            "trialTime": 0
        },
        {
            "exptPart": "trial",
            "trialNumber": 29,
            "roleCurrent": "receiver",
            "marblesSampled": 100,
            "probRed": 0.5,
            "lambda": 5,
            "drawnRed": 55,
            "reportedRed": 50,
            "inferredRed": 45,
            "playerTrialScore": -10,
            "oppTrialScore": 10,
            "playerTotalScore": -66,
            "oppTotalScore": -25,
            "waitTime": 6114.462339141051,
            "responseTime": 1642737639178,
            "catchQuestion": "How many <b class=\"r\">red<\/b> marbles did your opponent report drawing? ",
            "catchKey": -1,
            "catchResponse": -1,
            "catchTime": 1642737564334,
            "trialTime": 0
        },
        {
            "exptPart": "trial",
            "trialNumber": 30,
            "roleCurrent": "sender",
            "marblesSampled": 100,
            "probRed": 0.5,
            "lambda": 5,
            "drawnRed": 75,
            "reportedRed": 75,
            "inferredRed": 78,
            "playerTrialScore": 0,
            "oppTrialScore": -3,
            "playerTotalScore": -66,
            "oppTotalScore": -28,
            "waitTime": 2064.9420033276238,
            "responseTime": 1642737646374,
            "catchQuestion": "How many <b class=\"r\">red<\/b> marbles did your opponent report drawing? ",
            "catchKey": -1,
            "catchResponse": -1,
            "catchTime": 1642737646374,
            "trialTime": 0
        },
        {
            "exptPart": "trial",
            "trialNumber": 31,
            "roleCurrent": "receiver",
            "marblesSampled": 100,
            "probRed": 0.5,
            "lambda": 5,
            "drawnRed": 25,
            "reportedRed": 17,
            "inferredRed": 20,
            "playerTrialScore": -5,
            "oppTrialScore": 5,
            "playerTotalScore": -71,
            "oppTotalScore": -23,
            "waitTime": 6655.030706700749,
            "responseTime": 1642737662337,
            "catchQuestion": "How many <b class=\"r\">red<\/b> marbles did your opponent report drawing? ",
            "catchKey": -1,
            "catchResponse": -1,
            "catchTime": 1642737646374,
            "trialTime": 0
        },
        {
            "exptPart": "trial",
            "trialNumber": 32,
            "roleCurrent": "sender",
            "marblesSampled": 100,
            "probRed": 0.5,
            "lambda": 5,
            "drawnRed": 45,
            "reportedRed": 35,
            "inferredRed": 39,
            "playerTrialScore": 6,
            "oppTrialScore": -6,
            "playerTotalScore": -65,
            "oppTotalScore": -29,
            "waitTime": 2948.913451449963,
            "responseTime": 1642737683426,
            "catchQuestion": "How many <b class=\"r\">red<\/b> marbles did your opponent report drawing? ",
            "catchKey": -1,
            "catchResponse": -1,
            "catchTime": 1642737646374,
            "trialTime": 0
        },
        {
            "exptPart": "trial",
            "trialNumber": 33,
            "roleCurrent": "receiver",
            "marblesSampled": 100,
            "probRed": 0.5,
            "lambda": 5,
            "drawnRed": 64,
            "reportedRed": 55,
            "inferredRed": 50,
            "playerTrialScore": -14,
            "oppTrialScore": 14,
            "playerTotalScore": -79,
            "oppTotalScore": -15,
            "waitTime": 6807.167720130809,
            "responseTime": 1642737698989,
            "catchQuestion": "How many <b class=\"r\">red<\/b> marbles did your opponent report drawing? ",
            "catchKey": -1,
            "catchResponse": -1,
            "catchTime": 1642737646374,
            "trialTime": 0
        },
        {
            "exptPart": "trial",
            "trialNumber": 34,
            "roleCurrent": "sender",
            "marblesSampled": 100,
            "probRed": 0.5,
            "lambda": 5,
            "drawnRed": 24,
            "reportedRed": 24,
            "inferredRed": 31,
            "playerTrialScore": 0,
            "oppTrialScore": -7,
            "playerTotalScore": -79,
            "oppTotalScore": -22,
            "waitTime": 2249.636978368386,
            "responseTime": 1642737712419,
            "catchQuestion": "How many <b class=\"r\">red<\/b> marbles did your opponent report drawing? ",
            "catchKey": -1,
            "catchResponse": -1,
            "catchTime": 1642737646374,
            "trialTime": 0
        },
        {
            "exptPart": "trial",
            "trialNumber": 35,
            "roleCurrent": "receiver",
            "marblesSampled": 100,
            "probRed": 0.5,
            "lambda": 5,
            "drawnRed": 56,
            "reportedRed": 52,
            "inferredRed": 50,
            "playerTrialScore": -6,
            "oppTrialScore": 6,
            "playerTotalScore": -85,
            "oppTotalScore": -16,
            "waitTime": 7419.2179121260315,
            "responseTime": 1642737723529,
            "catchQuestion": "How many <b class=\"r\">red<\/b> marbles did your opponent report drawing? ",
            "catchKey": -1,
            "catchResponse": -1,
            "catchTime": 1642737723529,
            "trialTime": 0
        },
        {
            "exptPart": "trial",
            "trialNumber": 36,
            "roleCurrent": "sender",
            "marblesSampled": 100,
            "probRed": 0.5,
            "lambda": 5,
            "drawnRed": 41,
            "reportedRed": 41,
            "inferredRed": 46,
            "playerTrialScore": 0,
            "oppTrialScore": -5,
            "playerTotalScore": -85,
            "oppTotalScore": -21,
            "waitTime": 2984.88961641925,
            "responseTime": 1642737732823,
            "catchQuestion": "How many <b class=\"r\">red<\/b> marbles did your opponent report drawing? ",
            "catchKey": -1,
            "catchResponse": -1,
            "catchTime": 1642737723529,
            "trialTime": 0
        },
        {
            "exptPart": "trial",
            "trialNumber": 37,
            "roleCurrent": "receiver",
            "marblesSampled": 100,
            "probRed": 0.5,
            "lambda": 5,
            "drawnRed": 44,
            "reportedRed": 37,
            "inferredRed": 80,
            "playerTrialScore": -36,
            "oppTrialScore": 0,
            "playerTotalScore": -121,
            "oppTotalScore": -21,
            "waitTime": 7105.655654047421,
            "responseTime": 1642737743302,
            "catchQuestion": "How many <b class=\"r\">red<\/b> marbles did your opponent report drawing? ",
            "catchKey": 37,
            "catchResponse": 37,
            "catchTime": 1642737743302,
            "trialTime": 0
        },
        {
            "exptPart": "trial",
            "trialNumber": 38,
            "roleCurrent": "sender",
            "marblesSampled": 100,
            "probRed": 0.5,
            "lambda": 5,
            "drawnRed": 70,
            "reportedRed": 88,
            "inferredRed": 95,
            "playerTrialScore": 0,
            "oppTrialScore": -25,
            "playerTotalScore": -121,
            "oppTotalScore": -46,
            "waitTime": 2299.524655014505,
            "responseTime": 1642737768647,
            "catchQuestion": "How many <b class=\"r\">red<\/b> marbles did your opponent report drawing? ",
            "catchKey": -1,
            "catchResponse": -1,
            "catchTime": 1642737743302,
            "trialTime": 0
        },
        {
            "exptPart": "trial",
            "trialNumber": 39,
            "roleCurrent": "receiver",
            "marblesSampled": 100,
            "probRed": 0.5,
            "lambda": 5,
            "drawnRed": 39,
            "reportedRed": 35,
            "inferredRed": 10,
            "playerTrialScore": -29,
            "oppTrialScore": 29,
            "playerTotalScore": -150,
            "oppTotalScore": -17,
            "waitTime": 6437.24790167484,
            "responseTime": 1642737778266,
            "catchQuestion": "How many <b class=\"r\">red<\/b> marbles did your opponent report drawing? ",
            "catchKey": -1,
            "catchResponse": -1,
            "catchTime": 1642737743302,
            "trialTime": 0
        },
        {
            "exptPart": "trial",
            "trialNumber": 40,
            "roleCurrent": "sender",
            "marblesSampled": 100,
            "probRed": 0.5,
            "lambda": 5,
            "drawnRed": 45,
            "reportedRed": 50,
            "inferredRed": 56,
            "playerTrialScore": 0,
            "oppTrialScore": -11,
            "playerTotalScore": -150,
            "oppTotalScore": -28,
            "waitTime": 2801.034169888976,
            "responseTime": 1642737792450,
            "catchQuestion": "How many <b class=\"r\">red<\/b> marbles did your opponent report drawing? ",
            "catchKey": -1,
            "catchResponse": -1,
            "catchTime": 1642737792450,
            "trialTime": 0
        },
        {
            "exptPart": "trial",
            "trialNumber": 41,
            "roleCurrent": "receiver",
            "marblesSampled": 100,
            "probRed": 0.5,
            "lambda": 5,
            "drawnRed": 53,
            "reportedRed": 45,
            "inferredRed": 40,
            "playerTrialScore": -13,
            "oppTrialScore": 13,
            "playerTotalScore": -163,
            "oppTotalScore": -15,
            "waitTime": 5378.118621612433,
            "responseTime": 1642737802943,
            "catchQuestion": "How many <b class=\"r\">red<\/b> marbles did your opponent report drawing? ",
            "catchKey": -1,
            "catchResponse": -1,
            "catchTime": 1642737792450,
            "trialTime": 0
        },
        {
            "exptPart": "trial",
            "trialNumber": 42,
            "roleCurrent": "sender",
            "marblesSampled": 100,
            "probRed": 0.5,
            "lambda": 5,
            "drawnRed": 23,
            "reportedRed": 20,
            "inferredRed": 21,
            "playerTrialScore": 2,
            "oppTrialScore": -2,
            "playerTotalScore": -161,
            "oppTotalScore": -17,
            "waitTime": 2091.512525636546,
            "responseTime": 1642737814387,
            "catchQuestion": "How many <b class=\"r\">red<\/b> marbles did your opponent report drawing? ",
            "catchKey": -1,
            "catchResponse": -1,
            "catchTime": 1642737792450,
            "trialTime": 0
        },
        {
            "exptPart": "trial",
            "trialNumber": 43,
            "roleCurrent": "receiver",
            "marblesSampled": 100,
            "probRed": 0.5,
            "lambda": 5,
            "drawnRed": 63,
            "reportedRed": 54,
            "inferredRed": 60,
            "playerTrialScore": -3,
            "oppTrialScore": 3,
            "playerTotalScore": -164,
            "oppTotalScore": -14,
            "waitTime": 6389.18563933348,
            "responseTime": 1642737824510,
            "catchQuestion": "How many <b class=\"r\">red<\/b> marbles did your opponent report drawing? ",
            "catchKey": -1,
            "catchResponse": -1,
            "catchTime": 1642737792450,
            "trialTime": 0
        },
        {
            "exptPart": "trial",
            "trialNumber": 44,
            "roleCurrent": "sender",
            "marblesSampled": 100,
            "probRed": 0.5,
            "lambda": 5,
            "drawnRed": 12,
            "reportedRed": 10,
            "inferredRed": 14,
            "playerTrialScore": 0,
            "oppTrialScore": -2,
            "playerTotalScore": -164,
            "oppTotalScore": -16,
            "waitTime": 2383.4674780141177,
            "responseTime": 1642737835441,
            "catchQuestion": "How many <b class=\"r\">red<\/b> marbles did you actually draw (before any changes)? ",
            "catchKey": 12,
            "catchResponse": 9,
            "catchTime": 1642737835441,
            "trialTime": 0
        },
        {
            "exptPart": "trial",
            "trialNumber": 45,
            "roleCurrent": "receiver",
            "marblesSampled": 100,
            "probRed": 0.5,
            "lambda": 5,
            "drawnRed": 80,
            "reportedRed": 76,
            "inferredRed": 80,
            "playerTrialScore": 0,
            "oppTrialScore": 0,
            "playerTotalScore": -164,
            "oppTotalScore": -16,
            "waitTime": 5591.607893931449,
            "responseTime": 1642737862394,
            "catchQuestion": "How many <b class=\"r\">red<\/b> marbles did you actually draw (before any changes)? ",
            "catchKey": -1,
            "catchResponse": -1,
            "catchTime": 1642737862395,
            "trialTime": 0
        },
        {
            "exptPart": "trial",
            "trialNumber": 46,
            "roleCurrent": "sender",
            "marblesSampled": 100,
            "probRed": 0.5,
            "lambda": 5,
            "drawnRed": 50,
            "reportedRed": 54,
            "inferredRed": 62,
            "playerTrialScore": 0,
            "oppTrialScore": -12,
            "playerTotalScore": -164,
            "oppTotalScore": -28,
            "waitTime": 3244.742381875008,
            "responseTime": 1642737884389,
            "catchQuestion": "How many <b class=\"r\">red<\/b> marbles did you actually draw (before any changes)? ",
            "catchKey": -1,
            "catchResponse": -1,
            "catchTime": 1642737862395,
            "trialTime": 0
        },
        {
            "exptPart": "trial",
            "trialNumber": 47,
            "roleCurrent": "receiver",
            "marblesSampled": 100,
            "probRed": 0.5,
            "lambda": 5,
            "drawnRed": 80,
            "reportedRed": 71,
            "inferredRed": 72,
            "playerTrialScore": -8,
            "oppTrialScore": 8,
            "playerTotalScore": -172,
            "oppTotalScore": -20,
            "waitTime": 5193.21848427276,
            "responseTime": 1642737900049,
            "catchQuestion": "How many <b class=\"r\">red<\/b> marbles did you actually draw (before any changes)? ",
            "catchKey": -1,
            "catchResponse": -1,
            "catchTime": 1642737862395,
            "trialTime": 0
        },
        {
            "exptPart": "trial",
            "trialNumber": 48,
            "roleCurrent": "sender",
            "marblesSampled": 100,
            "probRed": 0.5,
            "lambda": 5,
            "drawnRed": 46,
            "reportedRed": 34,
            "inferredRed": 37,
            "playerTrialScore": 9,
            "oppTrialScore": -9,
            "playerTotalScore": -163,
            "oppTotalScore": -29,
            "waitTime": 2468.4056496199682,
            "responseTime": 1642737925258,
            "catchQuestion": "How many <b class=\"r\">red<\/b> marbles did you actually draw (before any changes)? ",
            "catchKey": -1,
            "catchResponse": -1,
            "catchTime": 1642737862395,
            "trialTime": 0
        },
        {
            "exptPart": "trial",
            "trialNumber": 49,
            "roleCurrent": "receiver",
            "marblesSampled": 100,
            "probRed": 0.5,
            "lambda": 5,
            "drawnRed": 49,
            "reportedRed": 45,
            "inferredRed": 47,
            "playerTrialScore": -2,
            "oppTrialScore": 2,
            "playerTotalScore": -165,
            "oppTotalScore": -27,
            "waitTime": 7188.0842083867665,
            "responseTime": 1642737937255,
            "catchQuestion": "How many <b class=\"r\">red<\/b> marbles did you actually draw (before any changes)? ",
            "catchKey": -1,
            "catchResponse": -1,
            "catchTime": 1642737862395,
            "trialTime": 0
        },
        {
            "exptPart": "trial",
            "trialNumber": 50,
            "roleCurrent": "sender",
            "marblesSampled": 100,
            "probRed": 0.5,
            "lambda": 5,
            "drawnRed": 41,
            "reportedRed": 38,
            "inferredRed": 41,
            "playerTrialScore": 0,
            "oppTrialScore": 0,
            "playerTotalScore": -165,
            "oppTotalScore": -27,
            "waitTime": 2766.772862770813,
            "responseTime": 1642737955366,
            "catchQuestion": "How many <b class=\"r\">red<\/b> marbles did you actually draw (before any changes)? ",
            "catchKey": -1,
            "catchResponse": -1,
            "catchTime": 1642737955366,
            "trialTime": 0
        },
        {
            "exptPart": "trial",
            "trialNumber": 51,
            "roleCurrent": "receiver",
            "marblesSampled": 100,
            "probRed": 0.5,
            "lambda": 5,
            "drawnRed": 51,
            "reportedRed": 45,
            "inferredRed": 48,
            "playerTrialScore": -3,
            "oppTrialScore": 3,
            "playerTotalScore": -168,
            "oppTotalScore": -24,
            "waitTime": 6996.719982199402,
            "responseTime": 1642737967955,
            "catchQuestion": "How many <b class=\"r\">red<\/b> marbles did you actually draw (before any changes)? ",
            "catchKey": -1,
            "catchResponse": -1,
            "catchTime": 1642737955366,
            "trialTime": 0
        },
        {
            "exptPart": "trial",
            "trialNumber": 52,
            "roleCurrent": "sender",
            "marblesSampled": 100,
            "probRed": 0.5,
            "lambda": 5,
            "drawnRed": 43,
            "reportedRed": 45,
            "inferredRed": 56,
            "playerTrialScore": 0,
            "oppTrialScore": -13,
            "playerTotalScore": -168,
            "oppTotalScore": -37,
            "waitTime": 2404.2272667201114,
            "responseTime": 1642737977870,
            "catchQuestion": "How many <b class=\"r\">red<\/b> marbles did you actually draw (before any changes)? ",
            "catchKey": -1,
            "catchResponse": -1,
            "catchTime": 1642737955366,
            "trialTime": 0
        },
        {
            "exptPart": "trial",
            "trialNumber": 53,
            "roleCurrent": "receiver",
            "marblesSampled": 100,
            "probRed": 0.5,
            "lambda": 5,
            "drawnRed": 30,
            "reportedRed": 24,
            "inferredRed": 30,
            "playerTrialScore": 0,
            "oppTrialScore": 0,
            "playerTotalScore": -168,
            "oppTotalScore": -37,
            "waitTime": 6106.182527373123,
            "responseTime": 1642737989771,
            "catchQuestion": "How many <b class=\"r\">red<\/b> marbles did you actually draw (before any changes)? ",
            "catchKey": -1,
            "catchResponse": -1,
            "catchTime": 1642737955366,
            "trialTime": 0
        },
        {
            "exptPart": "trial",
            "trialNumber": 54,
            "roleCurrent": "sender",
            "marblesSampled": 100,
            "probRed": 0.5,
            "lambda": 5,
            "drawnRed": 60,
            "reportedRed": 50,
            "inferredRed": 51,
            "playerTrialScore": 9,
            "oppTrialScore": -9,
            "playerTotalScore": -159,
            "oppTotalScore": -46,
            "waitTime": 2086.4697164108256,
            "responseTime": 1642738011386,
            "catchQuestion": "How many <b class=\"r\">red<\/b> marbles did you actually draw (before any changes)? ",
            "catchKey": -1,
            "catchResponse": -1,
            "catchTime": 1642737955366,
            "trialTime": 0
        },
        {
            "exptPart": "trial",
            "trialNumber": 55,
            "roleCurrent": "receiver",
            "marblesSampled": 100,
            "probRed": 0.5,
            "lambda": 5,
            "drawnRed": 57,
            "reportedRed": 53,
            "inferredRed": 55,
            "playerTrialScore": -2,
            "oppTrialScore": 2,
            "playerTotalScore": -161,
            "oppTotalScore": -44,
            "waitTime": 5251.463334152786,
            "responseTime": 1642738019619,
            "catchQuestion": "How many <b class=\"r\">red<\/b> marbles did you actually draw (before any changes)? ",
            "catchKey": -1,
            "catchResponse": -1,
            "catchTime": 1642738019619,
            "trialTime": 0
        },
        {
            "exptPart": "trial",
            "trialNumber": 56,
            "roleCurrent": "sender",
            "marblesSampled": 100,
            "probRed": 0.5,
            "lambda": 5,
            "drawnRed": 56,
            "reportedRed": 48,
            "inferredRed": 51,
            "playerTrialScore": 5,
            "oppTrialScore": -5,
            "playerTotalScore": -156,
            "oppTotalScore": -49,
            "waitTime": 2243.0693209963965,
            "responseTime": 1642738038757,
            "catchQuestion": "How many <b class=\"r\">red<\/b> marbles did you actually draw (before any changes)? ",
            "catchKey": -1,
            "catchResponse": -1,
            "catchTime": 1642738019619,
            "trialTime": 0
        },
        {
            "exptPart": "trial",
            "trialNumber": 57,
            "roleCurrent": "receiver",
            "marblesSampled": 100,
            "probRed": 0.5,
            "lambda": 5,
            "drawnRed": 17,
            "reportedRed": 11,
            "inferredRed": 15,
            "playerTrialScore": -2,
            "oppTrialScore": 2,
            "playerTotalScore": -158,
            "oppTotalScore": -47,
            "waitTime": 5167.783988901107,
            "responseTime": 1642738051621,
            "catchQuestion": "How many <b class=\"r\">red<\/b> marbles did you actually draw (before any changes)? ",
            "catchKey": -1,
            "catchResponse": -1,
            "catchTime": 1642738019619,
            "trialTime": 0
        },
        {
            "exptPart": "trial",
            "trialNumber": 58,
            "roleCurrent": "sender",
            "marblesSampled": 100,
            "probRed": 0.5,
            "lambda": 5,
            "drawnRed": 87,
            "reportedRed": 55,
            "inferredRed": 57,
            "playerTrialScore": 30,
            "oppTrialScore": -30,
            "playerTotalScore": -128,
            "oppTotalScore": -77,
            "waitTime": 2404.7191854878893,
            "responseTime": 1642738086294,
            "catchQuestion": "How many <b class=\"r\">red<\/b> marbles did you actually draw (before any changes)? ",
            "catchKey": -1,
            "catchResponse": -1,
            "catchTime": 1642738019619,
            "trialTime": 0
        },
        {
            "exptPart": "trial",
            "trialNumber": 59,
            "roleCurrent": "receiver",
            "marblesSampled": 100,
            "probRed": 0.5,
            "lambda": 5,
            "drawnRed": 34,
            "reportedRed": 30,
            "inferredRed": 33,
            "playerTrialScore": -1,
            "oppTrialScore": 1,
            "playerTotalScore": -129,
            "oppTotalScore": -76,
            "waitTime": 5556.739644017877,
            "responseTime": 1642738095728,
            "catchQuestion": "How many <b class=\"r\">red<\/b> marbles did your opponent report drawing? ",
            "catchKey": 30,
            "catchResponse": 30,
            "catchTime": 1642738095728,
            "trialTime": 0
        },
        {
            "exptPart": "trial",
            "trialNumber": 60,
            "roleCurrent": "sender",
            "marblesSampled": 100,
            "probRed": 0.5,
            "lambda": 5,
            "drawnRed": 42,
            "reportedRed": 39,
            "inferredRed": 42,
            "playerTrialScore": 0,
            "oppTrialScore": 0,
            "playerTotalScore": -129,
            "oppTotalScore": -76,
            "waitTime": 2955.60900245225,
            "responseTime": 1642738112519,
            "catchQuestion": "How many <b class=\"r\">red<\/b> marbles did your opponent report drawing? ",
            "catchKey": -1,
            "catchResponse": -1,
            "catchTime": 1642738112519,
            "trialTime": 0
        },
        {
            "exptPart": "trial",
            "trialNumber": 61,
            "roleCurrent": "receiver",
            "marblesSampled": 100,
            "probRed": 0.5,
            "lambda": 5,
            "drawnRed": 40,
            "reportedRed": 35,
            "inferredRed": 40,
            "playerTrialScore": 0,
            "oppTrialScore": 0,
            "playerTotalScore": -129,
            "oppTotalScore": -76,
            "waitTime": 5183.99648072612,
            "responseTime": 1642738126130,
            "catchQuestion": "How many <b class=\"r\">red<\/b> marbles did your opponent report drawing? ",
            "catchKey": -1,
            "catchResponse": -1,
            "catchTime": 1642738112519,
            "trialTime": 0
        },
        {
            "exptPart": "trial",
            "trialNumber": 62,
            "roleCurrent": "sender",
            "marblesSampled": 100,
            "probRed": 0.5,
            "lambda": 5,
            "drawnRed": 82,
            "reportedRed": 59,
            "inferredRed": 60,
            "playerTrialScore": 22,
            "oppTrialScore": -22,
            "playerTotalScore": -107,
            "oppTotalScore": -98,
            "waitTime": 2195.6438355500395,
            "responseTime": 1642738147380,
            "catchQuestion": "How many <b class=\"r\">red<\/b> marbles did your opponent report drawing? ",
            "catchKey": -1,
            "catchResponse": -1,
            "catchTime": 1642738112519,
            "trialTime": 0
        },
        {
            "exptPart": "trial",
            "trialNumber": 63,
            "roleCurrent": "receiver",
            "marblesSampled": 100,
            "probRed": 0.5,
            "lambda": 5,
            "drawnRed": 10,
            "reportedRed": 5,
            "inferredRed": 15,
            "playerTrialScore": -5,
            "oppTrialScore": 0,
            "playerTotalScore": -112,
            "oppTotalScore": -98,
            "waitTime": 7048.374671520767,
            "responseTime": 1642738160356,
            "catchQuestion": "How many <b class=\"r\">red<\/b> marbles did your opponent report drawing? ",
            "catchKey": -1,
            "catchResponse": -1,
            "catchTime": 1642738112519,
            "trialTime": 0
        },
        {
            "exptPart": "trial",
            "trialNumber": 64,
            "roleCurrent": "sender",
            "marblesSampled": 100,
            "probRed": 0.5,
            "lambda": 5,
            "drawnRed": 88,
            "reportedRed": 30,
            "inferredRed": 34,
            "playerTrialScore": 54,
            "oppTrialScore": -54,
            "playerTotalScore": -58,
            "oppTotalScore": -152,
            "waitTime": 2095.6513711615526,
            "responseTime": 1642738208960,
            "catchQuestion": "How many <b class=\"r\">red<\/b> marbles did your opponent report drawing? ",
            "catchKey": -1,
            "catchResponse": -1,
            "catchTime": 1642738112519,
            "trialTime": 0
        },
        {
            "exptPart": "trial",
            "trialNumber": 65,
            "roleCurrent": "receiver",
            "marblesSampled": 100,
            "probRed": 0.5,
            "lambda": 5,
            "drawnRed": 58,
            "reportedRed": 46,
            "inferredRed": 50,
            "playerTrialScore": -8,
            "oppTrialScore": 8,
            "playerTotalScore": -66,
            "oppTotalScore": -144,
            "waitTime": 5287.443669868771,
            "responseTime": 1642738217858,
            "catchQuestion": "How many <b class=\"r\">red<\/b> marbles did your opponent report drawing? ",
            "catchKey": -1,
            "catchResponse": -1,
            "catchTime": 1642738217858,
            "trialTime": 0
        },
        {
            "exptPart": "trial",
            "trialNumber": 66,
            "roleCurrent": "sender",
            "marblesSampled": 100,
            "probRed": 0.5,
            "lambda": 5,
            "drawnRed": 49,
            "reportedRed": 30,
            "inferredRed": 32,
            "playerTrialScore": 17,
            "oppTrialScore": -17,
            "playerTotalScore": -49,
            "oppTotalScore": -161,
            "waitTime": 2885.8361665031684,
            "responseTime": 1642738244598,
            "catchQuestion": "How many <b class=\"r\">red<\/b> marbles did your opponent report drawing? ",
            "catchKey": -1,
            "catchResponse": -1,
            "catchTime": 1642738217858,
            "trialTime": 0
        },
        {
            "exptPart": "trial",
            "trialNumber": 67,
            "roleCurrent": "receiver",
            "marblesSampled": 100,
            "probRed": 0.5,
            "lambda": 5,
            "drawnRed": 48,
            "reportedRed": 42,
            "inferredRed": 50,
            "playerTrialScore": -2,
            "oppTrialScore": 0,
            "playerTotalScore": -51,
            "oppTotalScore": -161,
            "waitTime": 6513.751435922672,
            "responseTime": 1642738255860,
            "catchQuestion": "How many <b class=\"r\">red<\/b> marbles did your opponent report drawing? ",
            "catchKey": -1,
            "catchResponse": -1,
            "catchTime": 1642738217858,
            "trialTime": 0
        },
        {
            "exptPart": "trial",
            "trialNumber": 68,
            "roleCurrent": "sender",
            "marblesSampled": 100,
            "probRed": 0.5,
            "lambda": 5,
            "drawnRed": 41,
            "reportedRed": 35,
            "inferredRed": 42,
            "playerTrialScore": 0,
            "oppTrialScore": -1,
            "playerTotalScore": -51,
            "oppTotalScore": -162,
            "waitTime": 2299.0380847579927,
            "responseTime": 1642738272319,
            "catchQuestion": "How many <b class=\"r\">red<\/b> marbles did your opponent report drawing? ",
            "catchKey": -1,
            "catchResponse": -1,
            "catchTime": 1642738217858,
            "trialTime": 0
        },
        {
            "exptPart": "trial",
            "trialNumber": 69,
            "roleCurrent": "receiver",
            "marblesSampled": 100,
            "probRed": 0.5,
            "lambda": 5,
            "drawnRed": 28,
            "reportedRed": 19,
            "inferredRed": 24,
            "playerTrialScore": -4,
            "oppTrialScore": 4,
            "playerTotalScore": -55,
            "oppTotalScore": -158,
            "waitTime": 5527.752583115132,
            "responseTime": 1642738282410,
            "catchQuestion": "How many <b class=\"r\">red<\/b> marbles did your opponent report drawing? ",
            "catchKey": -1,
            "catchResponse": -1,
            "catchTime": 1642738217858,
            "trialTime": 0
        },
        {
            "exptPart": "trial",
            "trialNumber": 70,
            "roleCurrent": "sender",
            "marblesSampled": 100,
            "probRed": 0.5,
            "lambda": 5,
            "drawnRed": 31,
            "reportedRed": 33,
            "inferredRed": 39,
            "playerTrialScore": 0,
            "oppTrialScore": -8,
            "playerTotalScore": -55,
            "oppTotalScore": -166,
            "waitTime": 2086.4241258835327,
            "responseTime": 1642738297074,
            "catchQuestion": "How many <b class=\"r\">red<\/b> marbles did you actually draw (before any changes)? ",
            "catchKey": 31,
            "catchResponse": 31,
            "catchTime": 1642738297074,
            "trialTime": 0
        },
        {
            "exptPart": "trial",
            "trialNumber": 71,
            "roleCurrent": "receiver",
            "marblesSampled": 100,
            "probRed": 0.5,
            "lambda": 5,
            "drawnRed": 96,
            "reportedRed": 93,
            "inferredRed": 93,
            "playerTrialScore": -3,
            "oppTrialScore": 3,
            "playerTotalScore": -58,
            "oppTotalScore": -163,
            "waitTime": 6331.354715835614,
            "responseTime": 1642738318437,
            "catchQuestion": "How many <b class=\"r\">red<\/b> marbles did you actually draw (before any changes)? ",
            "catchKey": -1,
            "catchResponse": -1,
            "catchTime": 1642738297074,
            "trialTime": 0
        },
        {
            "exptPart": "trial",
            "trialNumber": 72,
            "roleCurrent": "sender",
            "marblesSampled": 100,
            "probRed": 0.5,
            "lambda": 5,
            "drawnRed": 12,
            "reportedRed": 12,
            "inferredRed": 21,
            "playerTrialScore": 0,
            "oppTrialScore": -9,
            "playerTotalScore": -58,
            "oppTotalScore": -172,
            "waitTime": 2338.5110684603487,
            "responseTime": 1642738328411,
            "catchQuestion": "How many <b class=\"r\">red<\/b> marbles did you actually draw (before any changes)? ",
            "catchKey": -1,
            "catchResponse": -1,
            "catchTime": 1642738297074,
            "trialTime": 0
        },
        {
            "exptPart": "trial",
            "trialNumber": 73,
            "roleCurrent": "receiver",
            "marblesSampled": 100,
            "probRed": 0.5,
            "lambda": 5,
            "drawnRed": 22,
            "reportedRed": 21,
            "inferredRed": 25,
            "playerTrialScore": -3,
            "oppTrialScore": 0,
            "playerTotalScore": -61,
            "oppTotalScore": -172,
            "waitTime": 5141.4067470850205,
            "responseTime": 1642738339684,
            "catchQuestion": "How many <b class=\"r\">red<\/b> marbles did your opponent report drawing? ",
            "catchKey": 21,
            "catchResponse": 21,
            "catchTime": 1642738339684,
            "trialTime": 0
        },
        {
            "exptPart": "trial",
            "trialNumber": 74,
            "roleCurrent": "sender",
            "marblesSampled": 100,
            "probRed": 0.5,
            "lambda": 5,
            "drawnRed": 13,
            "reportedRed": 9,
            "inferredRed": 18,
            "playerTrialScore": 0,
            "oppTrialScore": -5,
            "playerTotalScore": -61,
            "oppTotalScore": -177,
            "waitTime": 2548.033567017922,
            "responseTime": 1642738364462,
            "catchQuestion": "How many <b class=\"r\">red<\/b> marbles did your opponent report drawing? ",
            "catchKey": -1,
            "catchResponse": -1,
            "catchTime": 1642738339684,
            "trialTime": 0
        },
        {
            "exptPart": "trial",
            "trialNumber": 75,
            "roleCurrent": "receiver",
            "marblesSampled": 100,
            "probRed": 0.5,
            "lambda": 5,
            "drawnRed": 58,
            "reportedRed": 52,
            "inferredRed": 53,
            "playerTrialScore": -5,
            "oppTrialScore": 5,
            "playerTotalScore": -66,
            "oppTotalScore": -172,
            "waitTime": 5984.7336047136705,
            "responseTime": 1642738375215,
            "catchQuestion": "How many <b class=\"r\">red<\/b> marbles did your opponent report drawing? ",
            "catchKey": -1,
            "catchResponse": -1,
            "catchTime": 1642738375215,
            "trialTime": 0
        },
        {
            "exptPart": "trial",
            "trialNumber": 76,
            "roleCurrent": "sender",
            "marblesSampled": 100,
            "probRed": 0.5,
            "lambda": 5,
            "drawnRed": 66,
            "reportedRed": 40,
            "inferredRed": 43,
            "playerTrialScore": 23,
            "oppTrialScore": -23,
            "playerTotalScore": -43,
            "oppTotalScore": -195,
            "waitTime": 2279.125325453548,
            "responseTime": 1642738399251,
            "catchQuestion": "How many <b class=\"r\">red<\/b> marbles did your opponent report drawing? ",
            "catchKey": -1,
            "catchResponse": -1,
            "catchTime": 1642738375215,
            "trialTime": 0
        },
        {
            "exptPart": "trial",
            "trialNumber": 77,
            "roleCurrent": "receiver",
            "marblesSampled": 100,
            "probRed": 0.5,
            "lambda": 5,
            "drawnRed": 52,
            "reportedRed": 49,
            "inferredRed": 53,
            "playerTrialScore": -1,
            "oppTrialScore": 0,
            "playerTotalScore": -44,
            "oppTotalScore": -195,
            "waitTime": 7139.328830276078,
            "responseTime": 1642738410360,
            "catchQuestion": "How many <b class=\"r\">red<\/b> marbles did your opponent report drawing? ",
            "catchKey": -1,
            "catchResponse": -1,
            "catchTime": 1642738375215,
            "trialTime": 0
        },
        {
            "exptPart": "trial",
            "trialNumber": 78,
            "roleCurrent": "sender",
            "marblesSampled": 100,
            "probRed": 0.5,
            "lambda": 5,
            "drawnRed": 37,
            "reportedRed": 25,
            "inferredRed": 28,
            "playerTrialScore": 9,
            "oppTrialScore": -9,
            "playerTotalScore": -35,
            "oppTotalScore": -204,
            "waitTime": 3095.2865367816216,
            "responseTime": 1642738427010,
            "catchQuestion": "How many <b class=\"r\">red<\/b> marbles did your opponent report drawing? ",
            "catchKey": -1,
            "catchResponse": -1,
            "catchTime": 1642738375215,
            "trialTime": 0
        },
        {
            "exptPart": "trial",
            "trialNumber": 79,
            "roleCurrent": "receiver",
            "marblesSampled": 100,
            "probRed": 0.5,
            "lambda": 5,
            "drawnRed": 60,
            "reportedRed": 52,
            "inferredRed": 55,
            "playerTrialScore": -5,
            "oppTrialScore": 5,
            "playerTotalScore": -40,
            "oppTotalScore": -199,
            "waitTime": 6069.87344315006,
            "responseTime": 1642738438243,
            "catchQuestion": "How many <b class=\"r\">red<\/b> marbles did your opponent report drawing? ",
            "catchKey": 52,
            "catchResponse": 52,
            "catchTime": 1642738438243,
            "trialTime": 0
        },
        {
            "exptPart": "trial",
            "trialNumber": 80,
            "roleCurrent": "sender",
            "marblesSampled": 100,
            "probRed": 0.5,
            "lambda": 5,
            "drawnRed": 53,
            "reportedRed": 20,
            "inferredRed": 29,
            "playerTrialScore": 24,
            "oppTrialScore": -24,
            "playerTotalScore": -16,
            "oppTotalScore": -223,
            "waitTime": 3245.830302156005,
            "responseTime": 1642738477882,
            "catchQuestion": "How many <b class=\"r\">red<\/b> marbles did your opponent report drawing? ",
            "catchKey": -1,
            "catchResponse": -1,
            "catchTime": 1642738477882,
            "trialTime": 0
        },
        {
            "exptPart": "trial",
            "trialNumber": 81,
            "roleCurrent": "receiver",
            "marblesSampled": 100,
            "probRed": 0.5,
            "lambda": 5,
            "drawnRed": 56,
            "reportedRed": 53,
            "inferredRed": 55,
            "playerTrialScore": -1,
            "oppTrialScore": 1,
            "playerTotalScore": -17,
            "oppTotalScore": -222,
            "waitTime": 6697.3734484042925,
            "responseTime": 1642738490035,
            "catchQuestion": "How many <b class=\"r\">red<\/b> marbles did your opponent report drawing? ",
            "catchKey": -1,
            "catchResponse": -1,
            "catchTime": 1642738477882,
            "trialTime": 0
        },
        {
            "exptPart": "trial",
            "trialNumber": 82,
            "roleCurrent": "sender",
            "marblesSampled": 100,
            "probRed": 0.5,
            "lambda": 5,
            "drawnRed": 59,
            "reportedRed": 51,
            "inferredRed": 54,
            "playerTrialScore": 5,
            "oppTrialScore": -5,
            "playerTotalScore": -12,
            "oppTotalScore": -227,
            "waitTime": 2072.513363644217,
            "responseTime": 1642738503327,
            "catchQuestion": "How many <b class=\"r\">red<\/b> marbles did your opponent report drawing? ",
            "catchKey": -1,
            "catchResponse": -1,
            "catchTime": 1642738477882,
            "trialTime": 0
        },
        {
            "exptPart": "trial",
            "trialNumber": 83,
            "roleCurrent": "receiver",
            "marblesSampled": 100,
            "probRed": 0.5,
            "lambda": 5,
            "drawnRed": 41,
            "reportedRed": 40,
            "inferredRed": 44,
            "playerTrialScore": -3,
            "oppTrialScore": 0,
            "playerTotalScore": -15,
            "oppTotalScore": -227,
            "waitTime": 5661.6859805990425,
            "responseTime": 1642738512159,
            "catchQuestion": "How many <b class=\"r\">red<\/b> marbles did your opponent report drawing? ",
            "catchKey": -1,
            "catchResponse": -1,
            "catchTime": 1642738477882,
            "trialTime": 0
        },
        {
            "exptPart": "trial",
            "trialNumber": 84,
            "roleCurrent": "sender",
            "marblesSampled": 100,
            "probRed": 0.5,
            "lambda": 5,
            "drawnRed": 30,
            "reportedRed": 27,
            "inferredRed": 33,
            "playerTrialScore": 0,
            "oppTrialScore": -3,
            "playerTotalScore": -15,
            "oppTotalScore": -230,
            "waitTime": 3191.626864265872,
            "responseTime": 1642738523547,
            "catchQuestion": "How many <b class=\"r\">red<\/b> marbles did your opponent report drawing? ",
            "catchKey": -1,
            "catchResponse": -1,
            "catchTime": 1642738477882,
            "trialTime": 0
        },
        {
            "exptPart": "trial",
            "trialNumber": 85,
            "roleCurrent": "receiver",
            "marblesSampled": 100,
            "probRed": 0.5,
            "lambda": 5,
            "drawnRed": 42,
            "reportedRed": 33,
            "inferredRed": 37,
            "playerTrialScore": -5,
            "oppTrialScore": 5,
            "playerTotalScore": -20,
            "oppTotalScore": -225,
            "waitTime": 5469.4543072433935,
            "responseTime": 1642738533662,
            "catchQuestion": "How many <b class=\"r\">red<\/b> marbles did your opponent report drawing? ",
            "catchKey": -1,
            "catchResponse": -1,
            "catchTime": 1642738533662,
            "trialTime": 0
        },
        {
            "exptPart": "trial",
            "trialNumber": 86,
            "roleCurrent": "sender",
            "marblesSampled": 100,
            "probRed": 0.5,
            "lambda": 5,
            "drawnRed": 28,
            "reportedRed": 22,
            "inferredRed": 24,
            "playerTrialScore": 4,
            "oppTrialScore": -4,
            "playerTotalScore": -16,
            "oppTotalScore": -229,
            "waitTime": 3170.80543492539,
            "responseTime": 1642738549179,
            "catchQuestion": "How many <b class=\"r\">red<\/b> marbles did your opponent report drawing? ",
            "catchKey": -1,
            "catchResponse": -1,
            "catchTime": 1642738533662,
            "trialTime": 0
        },
        {
            "exptPart": "trial",
            "trialNumber": 87,
            "roleCurrent": "receiver",
            "marblesSampled": 100,
            "probRed": 0.5,
            "lambda": 5,
            "drawnRed": 30,
            "reportedRed": 24,
            "inferredRed": 30,
            "playerTrialScore": 0,
            "oppTrialScore": 0,
            "playerTotalScore": -16,
            "oppTotalScore": -229,
            "waitTime": 5213.056225211694,
            "responseTime": 1642738559425,
            "catchQuestion": "How many <b class=\"r\">red<\/b> marbles did your opponent report drawing? ",
            "catchKey": -1,
            "catchResponse": -1,
            "catchTime": 1642738533662,
            "trialTime": 0
        },
        {
            "exptPart": "trial",
            "trialNumber": 88,
            "roleCurrent": "sender",
            "marblesSampled": 100,
            "probRed": 0.5,
            "lambda": 5,
            "drawnRed": 52,
            "reportedRed": 37,
            "inferredRed": 45,
            "playerTrialScore": 7,
            "oppTrialScore": -7,
            "playerTotalScore": -9,
            "oppTotalScore": -236,
            "waitTime": 3127.664188385772,
            "responseTime": 1642738578208,
            "catchQuestion": "How many <b class=\"r\">red<\/b> marbles did your opponent report drawing? ",
            "catchKey": -1,
            "catchResponse": -1,
            "catchTime": 1642738533662,
            "trialTime": 0
        },
        {
            "exptPart": "trial",
            "trialNumber": 89,
            "roleCurrent": "receiver",
            "marblesSampled": 100,
            "probRed": 0.5,
            "lambda": 5,
            "drawnRed": 47,
            "reportedRed": 45,
            "inferredRed": 50,
            "playerTrialScore": -3,
            "oppTrialScore": 0,
            "playerTotalScore": -12,
            "oppTotalScore": -236,
            "waitTime": 6562.280801288449,
            "responseTime": 1642738587796,
            "catchQuestion": "How many <b class=\"r\">red<\/b> marbles did your opponent report drawing? ",
            "catchKey": -1,
            "catchResponse": -1,
            "catchTime": 1642738533662,
            "trialTime": 0
        },
        {
            "exptPart": "trial",
            "trialNumber": 90,
            "roleCurrent": "sender",
            "marblesSampled": 100,
            "probRed": 0.5,
            "lambda": 5,
            "drawnRed": 78,
            "reportedRed": 40,
            "inferredRed": 47,
            "playerTrialScore": 31,
            "oppTrialScore": -31,
            "playerTotalScore": 19,
            "oppTotalScore": -267,
            "waitTime": 3225.2052290321703,
            "responseTime": 1642738616773,
            "catchQuestion": "How many <b class=\"r\">red<\/b> marbles did your opponent report drawing? ",
            "catchKey": -1,
            "catchResponse": -1,
            "catchTime": 1642738616773,
            "trialTime": 0
        },
        {
            "exptPart": "trial",
            "trialNumber": 91,
            "roleCurrent": "receiver",
            "marblesSampled": 100,
            "probRed": 0.5,
            "lambda": 5,
            "drawnRed": 48,
            "reportedRed": 45,
            "inferredRed": 50,
            "playerTrialScore": -2,
            "oppTrialScore": 0,
            "playerTotalScore": 17,
            "oppTotalScore": -267,
            "waitTime": 5226.219587775408,
            "responseTime": 1642738626696,
            "catchQuestion": "How many <b class=\"r\">red<\/b> marbles did your opponent report drawing? ",
            "catchKey": -1,
            "catchResponse": -1,
            "catchTime": 1642738616773,
            "trialTime": 0
        },
        {
            "exptPart": "trial",
            "trialNumber": 92,
            "roleCurrent": "sender",
            "marblesSampled": 100,
            "probRed": 0.5,
            "lambda": 5,
            "drawnRed": 34,
            "reportedRed": 32,
            "inferredRed": 33,
            "playerTrialScore": 1,
            "oppTrialScore": -1,
            "playerTotalScore": 18,
            "oppTotalScore": -268,
            "waitTime": 2408.941147241518,
            "responseTime": 1642738635846,
            "catchQuestion": "How many <b class=\"r\">red<\/b> marbles did your opponent report drawing? ",
            "catchKey": -1,
            "catchResponse": -1,
            "catchTime": 1642738616773,
            "trialTime": 0
        },
        {
            "exptPart": "trial",
            "trialNumber": 93,
            "roleCurrent": "receiver",
            "marblesSampled": 100,
            "probRed": 0.5,
            "lambda": 5,
            "drawnRed": 59,
            "reportedRed": 54,
            "inferredRed": 57,
            "playerTrialScore": -2,
            "oppTrialScore": 2,
            "playerTotalScore": 16,
            "oppTotalScore": -266,
            "waitTime": 5687.538309577178,
            "responseTime": 1642738646116,
            "catchQuestion": "How many <b class=\"r\">red<\/b> marbles did your opponent report drawing? ",
            "catchKey": -1,
            "catchResponse": -1,
            "catchTime": 1642738616773,
            "trialTime": 0
        },
        {
            "exptPart": "trial",
            "trialNumber": 94,
            "roleCurrent": "sender",
            "marblesSampled": 100,
            "probRed": 0.5,
            "lambda": 5,
            "drawnRed": 76,
            "reportedRed": 59,
            "inferredRed": 67,
            "playerTrialScore": 9,
            "oppTrialScore": -9,
            "playerTotalScore": 25,
            "oppTotalScore": -275,
            "waitTime": 2603.454194162623,
            "responseTime": 1642738665624,
            "catchQuestion": "How many <b class=\"r\">red<\/b> marbles did you actually draw (before any changes)? ",
            "catchKey": 76,
            "catchResponse": 76,
            "catchTime": 1642738665625,
            "trialTime": 0
        },
        {
            "exptPart": "trial",
            "trialNumber": 95,
            "roleCurrent": "receiver",
            "marblesSampled": 100,
            "probRed": 0.5,
            "lambda": 5,
            "drawnRed": 88,
            "reportedRed": 78,
            "inferredRed": 80,
            "playerTrialScore": -8,
            "oppTrialScore": 8,
            "playerTotalScore": 17,
            "oppTotalScore": -267,
            "waitTime": 5169.377662251683,
            "responseTime": 1642738680346,
            "catchQuestion": "How many <b class=\"r\">red<\/b> marbles did you actually draw (before any changes)? ",
            "catchKey": -1,
            "catchResponse": -1,
            "catchTime": 1642738680346,
            "trialTime": 0
        },
        {
            "exptPart": "trial",
            "trialNumber": 96,
            "roleCurrent": "sender",
            "marblesSampled": 100,
            "probRed": 0.5,
            "lambda": 5,
            "drawnRed": 70,
            "reportedRed": 27,
            "inferredRed": 30,
            "playerTrialScore": 40,
            "oppTrialScore": -40,
            "playerTotalScore": 57,
            "oppTotalScore": -307,
            "waitTime": 2338.4268169606376,
            "responseTime": 1642738713716,
            "catchQuestion": "How many <b class=\"r\">red<\/b> marbles did you actually draw (before any changes)? ",
            "catchKey": -1,
            "catchResponse": -1,
            "catchTime": 1642738680346,
            "trialTime": 0
        },
        {
            "exptPart": "trial",
            "trialNumber": 97,
            "roleCurrent": "receiver",
            "marblesSampled": 100,
            "probRed": 0.5,
            "lambda": 5,
            "drawnRed": 82,
            "reportedRed": 77,
            "inferredRed": 79,
            "playerTrialScore": -3,
            "oppTrialScore": 3,
            "playerTotalScore": 54,
            "oppTotalScore": -304,
            "waitTime": 5547.286733434081,
            "responseTime": 1642738722786,
            "catchQuestion": "How many <b class=\"r\">red<\/b> marbles did you actually draw (before any changes)? ",
            "catchKey": -1,
            "catchResponse": -1,
            "catchTime": 1642738680346,
            "trialTime": 0
        },
        {
            "exptPart": "trial",
            "trialNumber": 98,
            "roleCurrent": "sender",
            "marblesSampled": 100,
            "probRed": 0.5,
            "lambda": 5,
            "drawnRed": 71,
            "reportedRed": 65,
            "inferredRed": 69,
            "playerTrialScore": 2,
            "oppTrialScore": -2,
            "playerTotalScore": 56,
            "oppTotalScore": -306,
            "waitTime": 2398.2649544066,
            "responseTime": 1642738733565,
            "catchQuestion": "How many <b class=\"r\">red<\/b> marbles did you actually draw (before any changes)? ",
            "catchKey": -1,
            "catchResponse": -1,
            "catchTime": 1642738680346,
            "trialTime": 0
        },
        {
            "exptPart": "trial",
            "trialNumber": 99,
            "roleCurrent": "receiver",
            "marblesSampled": 100,
            "probRed": 0.5,
            "lambda": 5,
            "drawnRed": 86,
            "reportedRed": 81,
            "inferredRed": 81,
            "playerTrialScore": -5,
            "oppTrialScore": 5,
            "playerTotalScore": 51,
            "oppTotalScore": -301,
            "waitTime": 5449.390647275107,
            "responseTime": 1642738742655,
            "catchQuestion": "How many <b class=\"r\">red<\/b> marbles did you actually draw (before any changes)? ",
            "catchKey": -1,
            "catchResponse": -1,
            "catchTime": 1642738680346,
            "trialTime": 0
        },
        {
            "exptPart": "trial",
            "trialNumber": 100,
            "roleCurrent": "sender",
            "marblesSampled": 100,
            "probRed": 0.5,
            "lambda": 5,
            "drawnRed": 37,
            "reportedRed": 37,
            "inferredRed": 45,
            "playerTrialScore": 0,
            "oppTrialScore": -8,
            "playerTotalScore": 51,
            "oppTotalScore": -309,
            "waitTime": 3179.187189738239,
            "responseTime": 1642738750057,
            "catchQuestion": "How many <b class=\"r\">red<\/b> marbles did you actually draw (before any changes)? ",
            "catchKey": -1,
            "catchResponse": -1,
            "catchTime": 1642738750057,
            "trialTime": 0
        }
    ]
}