{
    "client": {
        "type": "sona",
        "experiment_id": 2228,
        "credit_token": "b315147ae43241ea9c65086cb510cfb7",
        "survey_code": "41339",
        "sid": "sona-41339",
        "window": {
            "width": 1440,
            "height": 821
        },
        "screen": {
            "width": 1440,
            "height": 900
        },
        "userAgent": "Mozilla\/5.0 (Macintosh; Intel Mac OS X 10_15_7) AppleWebKit\/537.36 (KHTML, like Gecko) Chrome\/97.0.4692.71 Safari\/537.36",
        "score": 0,
        "bonus": 0
    },
    "expt": {
        "saveURL": "submit.simple.php",
        "trials": 100,
        "practiceTrials": 2,
        "marblesSampled": 100,
        "probRed": 0.5,
        "lambdaAI": 5,
        "roleFirst": "receiver",
        "roles": [
            "sender",
            "receiver"
        ],
        "cost": "unif",
        "goal": "under",
        "catchTrials": [
            6,
            66,
            67,
            15,
            99,
            65,
            39,
            90,
            84,
            49
        ],
        "scoreTotal": {
            "player": -201,
            "opp": -362
        },
        "sona": {
            "experiment_id": 2228,
            "credit_token": "b315147ae43241ea9c65086cb510cfb7"
        },
        "pilot": false,
        "debug": false
    },
    "trials": [
        {
            "exptPart": "practice",
            "trialNumber": 1,
            "roleCurrent": "sender",
            "marblesSampled": 100,
            "probRed": 0.5,
            "lambda": 5,
            "drawnRed": 66,
            "reportedRed": 93,
            "inferredRed": 99,
            "playerTrialScore": 0,
            "oppTrialScore": -33,
            "playerTotalScore": 0,
            "oppTotalScore": -33,
            "waitTime": 2564.281700453701,
            "responseTime": 1642226257358,
            "catchQuestion": "How many <b class=\"r\">red<\/b> marbles did you actually draw (before any changes)? ",
            "catchKey": 66,
            "catchResponse": 63,
            "catchTime": 1642226257359,
            "trialTime": 0
        },
        {
            "exptPart": "practice",
            "trialNumber": 2,
            "roleCurrent": "receiver",
            "marblesSampled": 100,
            "probRed": 0.5,
            "lambda": 5,
            "drawnRed": 43,
            "reportedRed": 37,
            "inferredRed": 40,
            "playerTrialScore": -3,
            "oppTrialScore": 3,
            "playerTotalScore": -3,
            "oppTotalScore": -30,
            "waitTime": 6283.9984472259775,
            "responseTime": 1642226292717,
            "catchQuestion": "How many <b class=\"r\">red<\/b> marbles did your opponent report drawing? ",
            "catchKey": 37,
            "catchResponse": 37,
            "catchTime": 1642226292717,
            "trialTime": 0
        },
        {
            "exptPart": "trial",
            "trialNumber": 1,
            "roleCurrent": "receiver",
            "marblesSampled": 100,
            "probRed": 0.5,
            "lambda": 5,
            "drawnRed": 49,
            "reportedRed": 45,
            "inferredRed": 55,
            "playerTrialScore": -6,
            "oppTrialScore": 0,
            "playerTotalScore": -6,
            "oppTotalScore": 0,
            "waitTime": 5209.381868787518,
            "responseTime": 1642226317682,
            "catchQuestion": "How many <b class=\"r\">red<\/b> marbles did your opponent report drawing? ",
            "catchKey": -1,
            "catchResponse": -1,
            "catchTime": 1642226292717,
            "trialTime": 0
        },
        {
            "exptPart": "trial",
            "trialNumber": 2,
            "roleCurrent": "sender",
            "marblesSampled": 100,
            "probRed": 0.5,
            "lambda": 5,
            "drawnRed": 17,
            "reportedRed": 17,
            "inferredRed": 23,
            "playerTrialScore": 0,
            "oppTrialScore": -6,
            "playerTotalScore": -6,
            "oppTotalScore": -6,
            "waitTime": 3008.7133836250664,
            "responseTime": 1642226350866,
            "catchQuestion": "How many <b class=\"r\">red<\/b> marbles did your opponent report drawing? ",
            "catchKey": -1,
            "catchResponse": -1,
            "catchTime": 1642226292717,
            "trialTime": 0
        },
        {
            "exptPart": "trial",
            "trialNumber": 3,
            "roleCurrent": "receiver",
            "marblesSampled": 100,
            "probRed": 0.5,
            "lambda": 5,
            "drawnRed": 35,
            "reportedRed": 31,
            "inferredRed": 55,
            "playerTrialScore": -20,
            "oppTrialScore": 0,
            "playerTotalScore": -26,
            "oppTotalScore": -6,
            "waitTime": 6037.511906062919,
            "responseTime": 1642226377063,
            "catchQuestion": "How many <b class=\"r\">red<\/b> marbles did your opponent report drawing? ",
            "catchKey": -1,
            "catchResponse": -1,
            "catchTime": 1642226292717,
            "trialTime": 0
        },
        {
            "exptPart": "trial",
            "trialNumber": 4,
            "roleCurrent": "sender",
            "marblesSampled": 100,
            "probRed": 0.5,
            "lambda": 5,
            "drawnRed": 39,
            "reportedRed": 38,
            "inferredRed": 43,
            "playerTrialScore": 0,
            "oppTrialScore": -4,
            "playerTotalScore": -26,
            "oppTotalScore": -10,
            "waitTime": 3103.6781512605353,
            "responseTime": 1642226390769,
            "catchQuestion": "How many <b class=\"r\">red<\/b> marbles did your opponent report drawing? ",
            "catchKey": -1,
            "catchResponse": -1,
            "catchTime": 1642226292717,
            "trialTime": 0
        },
        {
            "exptPart": "trial",
            "trialNumber": 5,
            "roleCurrent": "receiver",
            "marblesSampled": 100,
            "probRed": 0.5,
            "lambda": 5,
            "drawnRed": 47,
            "reportedRed": 43,
            "inferredRed": 32,
            "playerTrialScore": -15,
            "oppTrialScore": 15,
            "playerTotalScore": -41,
            "oppTotalScore": 5,
            "waitTime": 7101.727014586302,
            "responseTime": 1642226414948,
            "catchQuestion": "How many <b class=\"r\">red<\/b> marbles did your opponent report drawing? ",
            "catchKey": -1,
            "catchResponse": -1,
            "catchTime": 1642226414948,
            "trialTime": 0
        },
        {
            "exptPart": "trial",
            "trialNumber": 6,
            "roleCurrent": "sender",
            "marblesSampled": 100,
            "probRed": 0.5,
            "lambda": 5,
            "drawnRed": 43,
            "reportedRed": 36,
            "inferredRed": 42,
            "playerTrialScore": 1,
            "oppTrialScore": -1,
            "playerTotalScore": -40,
            "oppTotalScore": 4,
            "waitTime": 2696.950388911628,
            "responseTime": 1642226437720,
            "catchQuestion": "How many <b class=\"r\">red<\/b> marbles did your opponent report drawing? ",
            "catchKey": -1,
            "catchResponse": -1,
            "catchTime": 1642226414948,
            "trialTime": 0
        },
        {
            "exptPart": "trial",
            "trialNumber": 7,
            "roleCurrent": "receiver",
            "marblesSampled": 100,
            "probRed": 0.5,
            "lambda": 5,
            "drawnRed": 62,
            "reportedRed": 59,
            "inferredRed": 50,
            "playerTrialScore": -12,
            "oppTrialScore": 12,
            "playerTotalScore": -52,
            "oppTotalScore": 16,
            "waitTime": 6917.820796638932,
            "responseTime": 1642226451757,
            "catchQuestion": "How many <b class=\"r\">red<\/b> marbles did your opponent report drawing? ",
            "catchKey": 59,
            "catchResponse": 59,
            "catchTime": 1642226451757,
            "trialTime": 0
        },
        {
            "exptPart": "trial",
            "trialNumber": 8,
            "roleCurrent": "sender",
            "marblesSampled": 100,
            "probRed": 0.5,
            "lambda": 5,
            "drawnRed": 62,
            "reportedRed": 62,
            "inferredRed": 68,
            "playerTrialScore": 0,
            "oppTrialScore": -6,
            "playerTotalScore": -52,
            "oppTotalScore": 10,
            "waitTime": 2740.1808560883374,
            "responseTime": 1642226468271,
            "catchQuestion": "How many <b class=\"r\">red<\/b> marbles did your opponent report drawing? ",
            "catchKey": -1,
            "catchResponse": -1,
            "catchTime": 1642226451757,
            "trialTime": 0
        },
        {
            "exptPart": "trial",
            "trialNumber": 9,
            "roleCurrent": "receiver",
            "marblesSampled": 100,
            "probRed": 0.5,
            "lambda": 5,
            "drawnRed": 63,
            "reportedRed": 58,
            "inferredRed": 60,
            "playerTrialScore": -3,
            "oppTrialScore": 3,
            "playerTotalScore": -55,
            "oppTotalScore": 13,
            "waitTime": 5647.629520788181,
            "responseTime": 1642226476790,
            "catchQuestion": "How many <b class=\"r\">red<\/b> marbles did your opponent report drawing? ",
            "catchKey": -1,
            "catchResponse": -1,
            "catchTime": 1642226451757,
            "trialTime": 0
        },
        {
            "exptPart": "trial",
            "trialNumber": 10,
            "roleCurrent": "sender",
            "marblesSampled": 100,
            "probRed": 0.5,
            "lambda": 5,
            "drawnRed": 94,
            "reportedRed": 94,
            "inferredRed": 100,
            "playerTrialScore": 0,
            "oppTrialScore": -6,
            "playerTotalScore": -55,
            "oppTotalScore": 7,
            "waitTime": 2284.2692404957734,
            "responseTime": 1642226488751,
            "catchQuestion": "How many <b class=\"r\">red<\/b> marbles did your opponent report drawing? ",
            "catchKey": -1,
            "catchResponse": -1,
            "catchTime": 1642226488751,
            "trialTime": 0
        },
        {
            "exptPart": "trial",
            "trialNumber": 11,
            "roleCurrent": "receiver",
            "marblesSampled": 100,
            "probRed": 0.5,
            "lambda": 5,
            "drawnRed": 40,
            "reportedRed": 33,
            "inferredRed": 50,
            "playerTrialScore": -10,
            "oppTrialScore": 0,
            "playerTotalScore": -65,
            "oppTotalScore": 7,
            "waitTime": 7319.859799058459,
            "responseTime": 1642226502730,
            "catchQuestion": "How many <b class=\"r\">red<\/b> marbles did your opponent report drawing? ",
            "catchKey": -1,
            "catchResponse": -1,
            "catchTime": 1642226488751,
            "trialTime": 0
        },
        {
            "exptPart": "trial",
            "trialNumber": 12,
            "roleCurrent": "sender",
            "marblesSampled": 100,
            "probRed": 0.5,
            "lambda": 5,
            "drawnRed": 58,
            "reportedRed": 41,
            "inferredRed": 48,
            "playerTrialScore": 10,
            "oppTrialScore": -10,
            "playerTotalScore": -55,
            "oppTotalScore": -3,
            "waitTime": 2766.0459240847467,
            "responseTime": 1642226521110,
            "catchQuestion": "How many <b class=\"r\">red<\/b> marbles did your opponent report drawing? ",
            "catchKey": -1,
            "catchResponse": -1,
            "catchTime": 1642226488751,
            "trialTime": 0
        },
        {
            "exptPart": "trial",
            "trialNumber": 13,
            "roleCurrent": "receiver",
            "marblesSampled": 100,
            "probRed": 0.5,
            "lambda": 5,
            "drawnRed": 37,
            "reportedRed": 29,
            "inferredRed": 20,
            "playerTrialScore": -17,
            "oppTrialScore": 17,
            "playerTotalScore": -72,
            "oppTotalScore": 14,
            "waitTime": 5589.775741386611,
            "responseTime": 1642226531568,
            "catchQuestion": "How many <b class=\"r\">red<\/b> marbles did your opponent report drawing? ",
            "catchKey": -1,
            "catchResponse": -1,
            "catchTime": 1642226488751,
            "trialTime": 0
        },
        {
            "exptPart": "trial",
            "trialNumber": 14,
            "roleCurrent": "sender",
            "marblesSampled": 100,
            "probRed": 0.5,
            "lambda": 5,
            "drawnRed": 43,
            "reportedRed": 39,
            "inferredRed": 44,
            "playerTrialScore": 0,
            "oppTrialScore": -1,
            "playerTotalScore": -72,
            "oppTotalScore": 13,
            "waitTime": 2193.615775759985,
            "responseTime": 1642226541066,
            "catchQuestion": "How many <b class=\"r\">red<\/b> marbles did your opponent report drawing? ",
            "catchKey": -1,
            "catchResponse": -1,
            "catchTime": 1642226488751,
            "trialTime": 0
        },
        {
            "exptPart": "trial",
            "trialNumber": 15,
            "roleCurrent": "receiver",
            "marblesSampled": 100,
            "probRed": 0.5,
            "lambda": 5,
            "drawnRed": 60,
            "reportedRed": 58,
            "inferredRed": 60,
            "playerTrialScore": 0,
            "oppTrialScore": 0,
            "playerTotalScore": -72,
            "oppTotalScore": 13,
            "waitTime": 7061.154524081223,
            "responseTime": 1642226552138,
            "catchQuestion": "How many <b class=\"r\">red<\/b> marbles did your opponent report drawing? ",
            "catchKey": -1,
            "catchResponse": -1,
            "catchTime": 1642226552138,
            "trialTime": 0
        },
        {
            "exptPart": "trial",
            "trialNumber": 16,
            "roleCurrent": "sender",
            "marblesSampled": 100,
            "probRed": 0.5,
            "lambda": 5,
            "drawnRed": 31,
            "reportedRed": 44,
            "inferredRed": 49,
            "playerTrialScore": 0,
            "oppTrialScore": -18,
            "playerTotalScore": -72,
            "oppTotalScore": -5,
            "waitTime": 2407.1696361812674,
            "responseTime": 1642226569253,
            "catchQuestion": "How many <b class=\"r\">red<\/b> marbles did you actually draw (before any changes)? ",
            "catchKey": 31,
            "catchResponse": 31,
            "catchTime": 1642226569253,
            "trialTime": 0
        },
        {
            "exptPart": "trial",
            "trialNumber": 17,
            "roleCurrent": "receiver",
            "marblesSampled": 100,
            "probRed": 0.5,
            "lambda": 5,
            "drawnRed": 25,
            "reportedRed": 19,
            "inferredRed": 25,
            "playerTrialScore": 0,
            "oppTrialScore": 0,
            "playerTotalScore": -72,
            "oppTotalScore": -5,
            "waitTime": 5971.555088815802,
            "responseTime": 1642226584539,
            "catchQuestion": "How many <b class=\"r\">red<\/b> marbles did you actually draw (before any changes)? ",
            "catchKey": -1,
            "catchResponse": -1,
            "catchTime": 1642226569253,
            "trialTime": 0
        },
        {
            "exptPart": "trial",
            "trialNumber": 18,
            "roleCurrent": "sender",
            "marblesSampled": 100,
            "probRed": 0.5,
            "lambda": 5,
            "drawnRed": 46,
            "reportedRed": 39,
            "inferredRed": 43,
            "playerTrialScore": 3,
            "oppTrialScore": -3,
            "playerTotalScore": -69,
            "oppTotalScore": -8,
            "waitTime": 2397.1277653996995,
            "responseTime": 1642226597381,
            "catchQuestion": "How many <b class=\"r\">red<\/b> marbles did you actually draw (before any changes)? ",
            "catchKey": -1,
            "catchResponse": -1,
            "catchTime": 1642226569253,
            "trialTime": 0
        },
        {
            "exptPart": "trial",
            "trialNumber": 19,
            "roleCurrent": "receiver",
            "marblesSampled": 100,
            "probRed": 0.5,
            "lambda": 5,
            "drawnRed": 35,
            "reportedRed": 31,
            "inferredRed": 99,
            "playerTrialScore": -64,
            "oppTrialScore": 0,
            "playerTotalScore": -133,
            "oppTotalScore": -8,
            "waitTime": 6278.234627884035,
            "responseTime": 1642226609525,
            "catchQuestion": "How many <b class=\"r\">red<\/b> marbles did you actually draw (before any changes)? ",
            "catchKey": -1,
            "catchResponse": -1,
            "catchTime": 1642226569253,
            "trialTime": 0
        },
        {
            "exptPart": "trial",
            "trialNumber": 20,
            "roleCurrent": "sender",
            "marblesSampled": 100,
            "probRed": 0.5,
            "lambda": 5,
            "drawnRed": 38,
            "reportedRed": 43,
            "inferredRed": 46,
            "playerTrialScore": 0,
            "oppTrialScore": -8,
            "playerTotalScore": -133,
            "oppTotalScore": -16,
            "waitTime": 2290.4527056392244,
            "responseTime": 1642226631864,
            "catchQuestion": "How many <b class=\"r\">red<\/b> marbles did you actually draw (before any changes)? ",
            "catchKey": -1,
            "catchResponse": -1,
            "catchTime": 1642226631864,
            "trialTime": 0
        },
        {
            "exptPart": "trial",
            "trialNumber": 21,
            "roleCurrent": "receiver",
            "marblesSampled": 100,
            "probRed": 0.5,
            "lambda": 5,
            "drawnRed": 42,
            "reportedRed": 38,
            "inferredRed": 99,
            "playerTrialScore": -57,
            "oppTrialScore": 0,
            "playerTotalScore": -190,
            "oppTotalScore": -16,
            "waitTime": 5172.281986583992,
            "responseTime": 1642226641525,
            "catchQuestion": "How many <b class=\"r\">red<\/b> marbles did you actually draw (before any changes)? ",
            "catchKey": -1,
            "catchResponse": -1,
            "catchTime": 1642226631864,
            "trialTime": 0
        },
        {
            "exptPart": "trial",
            "trialNumber": 22,
            "roleCurrent": "sender",
            "marblesSampled": 100,
            "probRed": 0.5,
            "lambda": 5,
            "drawnRed": 17,
            "reportedRed": 17,
            "inferredRed": 26,
            "playerTrialScore": 0,
            "oppTrialScore": -9,
            "playerTotalScore": -190,
            "oppTotalScore": -25,
            "waitTime": 2472.682278718047,
            "responseTime": 1642226648955,
            "catchQuestion": "How many <b class=\"r\">red<\/b> marbles did you actually draw (before any changes)? ",
            "catchKey": -1,
            "catchResponse": -1,
            "catchTime": 1642226631864,
            "trialTime": 0
        },
        {
            "exptPart": "trial",
            "trialNumber": 23,
            "roleCurrent": "receiver",
            "marblesSampled": 100,
            "probRed": 0.5,
            "lambda": 5,
            "drawnRed": 57,
            "reportedRed": 50,
            "inferredRed": 60,
            "playerTrialScore": -3,
            "oppTrialScore": 0,
            "playerTotalScore": -193,
            "oppTotalScore": -25,
            "waitTime": 6681.482630283069,
            "responseTime": 1642226659989,
            "catchQuestion": "How many <b class=\"r\">red<\/b> marbles did you actually draw (before any changes)? ",
            "catchKey": -1,
            "catchResponse": -1,
            "catchTime": 1642226631864,
            "trialTime": 0
        },
        {
            "exptPart": "trial",
            "trialNumber": 24,
            "roleCurrent": "sender",
            "marblesSampled": 100,
            "probRed": 0.5,
            "lambda": 5,
            "drawnRed": 72,
            "reportedRed": 72,
            "inferredRed": 78,
            "playerTrialScore": 0,
            "oppTrialScore": -6,
            "playerTotalScore": -193,
            "oppTotalScore": -31,
            "waitTime": 2340.642738239939,
            "responseTime": 1642226668170,
            "catchQuestion": "How many <b class=\"r\">red<\/b> marbles did you actually draw (before any changes)? ",
            "catchKey": -1,
            "catchResponse": -1,
            "catchTime": 1642226631864,
            "trialTime": 0
        },
        {
            "exptPart": "trial",
            "trialNumber": 25,
            "roleCurrent": "receiver",
            "marblesSampled": 100,
            "probRed": 0.5,
            "lambda": 5,
            "drawnRed": 28,
            "reportedRed": 24,
            "inferredRed": 35,
            "playerTrialScore": -7,
            "oppTrialScore": 0,
            "playerTotalScore": -200,
            "oppTotalScore": -31,
            "waitTime": 5630.649520616226,
            "responseTime": 1642226676309,
            "catchQuestion": "How many <b class=\"r\">red<\/b> marbles did you actually draw (before any changes)? ",
            "catchKey": -1,
            "catchResponse": -1,
            "catchTime": 1642226676310,
            "trialTime": 0
        },
        {
            "exptPart": "trial",
            "trialNumber": 26,
            "roleCurrent": "sender",
            "marblesSampled": 100,
            "probRed": 0.5,
            "lambda": 5,
            "drawnRed": 20,
            "reportedRed": 20,
            "inferredRed": 26,
            "playerTrialScore": 0,
            "oppTrialScore": -6,
            "playerTotalScore": -200,
            "oppTotalScore": -37,
            "waitTime": 2623.608481363609,
            "responseTime": 1642226684855,
            "catchQuestion": "How many <b class=\"r\">red<\/b> marbles did you actually draw (before any changes)? ",
            "catchKey": -1,
            "catchResponse": -1,
            "catchTime": 1642226676310,
            "trialTime": 0
        },
        {
            "exptPart": "trial",
            "trialNumber": 27,
            "roleCurrent": "receiver",
            "marblesSampled": 100,
            "probRed": 0.5,
            "lambda": 5,
            "drawnRed": 65,
            "reportedRed": 61,
            "inferredRed": 75,
            "playerTrialScore": -10,
            "oppTrialScore": 0,
            "playerTotalScore": -210,
            "oppTotalScore": -37,
            "waitTime": 5616.311602925816,
            "responseTime": 1642226693614,
            "catchQuestion": "How many <b class=\"r\">red<\/b> marbles did you actually draw (before any changes)? ",
            "catchKey": -1,
            "catchResponse": -1,
            "catchTime": 1642226676310,
            "trialTime": 0
        },
        {
            "exptPart": "trial",
            "trialNumber": 28,
            "roleCurrent": "sender",
            "marblesSampled": 100,
            "probRed": 0.5,
            "lambda": 5,
            "drawnRed": 29,
            "reportedRed": 29,
            "inferredRed": 38,
            "playerTrialScore": 0,
            "oppTrialScore": -9,
            "playerTotalScore": -210,
            "oppTotalScore": -46,
            "waitTime": 2128.186151628434,
            "responseTime": 1642226700958,
            "catchQuestion": "How many <b class=\"r\">red<\/b> marbles did you actually draw (before any changes)? ",
            "catchKey": -1,
            "catchResponse": -1,
            "catchTime": 1642226676310,
            "trialTime": 0
        },
        {
            "exptPart": "trial",
            "trialNumber": 29,
            "roleCurrent": "receiver",
            "marblesSampled": 100,
            "probRed": 0.5,
            "lambda": 5,
            "drawnRed": 40,
            "reportedRed": 37,
            "inferredRed": 48,
            "playerTrialScore": -8,
            "oppTrialScore": 0,
            "playerTotalScore": -218,
            "oppTotalScore": -46,
            "waitTime": 5979.130747701669,
            "responseTime": 1642226710483,
            "catchQuestion": "How many <b class=\"r\">red<\/b> marbles did you actually draw (before any changes)? ",
            "catchKey": -1,
            "catchResponse": -1,
            "catchTime": 1642226676310,
            "trialTime": 0
        },
        {
            "exptPart": "trial",
            "trialNumber": 30,
            "roleCurrent": "sender",
            "marblesSampled": 100,
            "probRed": 0.5,
            "lambda": 5,
            "drawnRed": 67,
            "reportedRed": 67,
            "inferredRed": 74,
            "playerTrialScore": 0,
            "oppTrialScore": -7,
            "playerTotalScore": -218,
            "oppTotalScore": -53,
            "waitTime": 3176.055269511806,
            "responseTime": 1642226719158,
            "catchQuestion": "How many <b class=\"r\">red<\/b> marbles did you actually draw (before any changes)? ",
            "catchKey": -1,
            "catchResponse": -1,
            "catchTime": 1642226719158,
            "trialTime": 0
        },
        {
            "exptPart": "trial",
            "trialNumber": 31,
            "roleCurrent": "receiver",
            "marblesSampled": 100,
            "probRed": 0.5,
            "lambda": 5,
            "drawnRed": 56,
            "reportedRed": 52,
            "inferredRed": 65,
            "playerTrialScore": -9,
            "oppTrialScore": 0,
            "playerTotalScore": -227,
            "oppTotalScore": -53,
            "waitTime": 5333.818524425093,
            "responseTime": 1642226728698,
            "catchQuestion": "How many <b class=\"r\">red<\/b> marbles did you actually draw (before any changes)? ",
            "catchKey": -1,
            "catchResponse": -1,
            "catchTime": 1642226719158,
            "trialTime": 0
        },
        {
            "exptPart": "trial",
            "trialNumber": 32,
            "roleCurrent": "sender",
            "marblesSampled": 100,
            "probRed": 0.5,
            "lambda": 5,
            "drawnRed": 70,
            "reportedRed": 70,
            "inferredRed": 76,
            "playerTrialScore": 0,
            "oppTrialScore": -6,
            "playerTotalScore": -227,
            "oppTotalScore": -59,
            "waitTime": 2367.8081187265416,
            "responseTime": 1642226735496,
            "catchQuestion": "How many <b class=\"r\">red<\/b> marbles did you actually draw (before any changes)? ",
            "catchKey": -1,
            "catchResponse": -1,
            "catchTime": 1642226719158,
            "trialTime": 0
        },
        {
            "exptPart": "trial",
            "trialNumber": 33,
            "roleCurrent": "receiver",
            "marblesSampled": 100,
            "probRed": 0.5,
            "lambda": 5,
            "drawnRed": 59,
            "reportedRed": 54,
            "inferredRed": 65,
            "playerTrialScore": -6,
            "oppTrialScore": 0,
            "playerTotalScore": -233,
            "oppTotalScore": -59,
            "waitTime": 7314.6694203464285,
            "responseTime": 1642226746155,
            "catchQuestion": "How many <b class=\"r\">red<\/b> marbles did you actually draw (before any changes)? ",
            "catchKey": -1,
            "catchResponse": -1,
            "catchTime": 1642226719158,
            "trialTime": 0
        },
        {
            "exptPart": "trial",
            "trialNumber": 34,
            "roleCurrent": "sender",
            "marblesSampled": 100,
            "probRed": 0.5,
            "lambda": 5,
            "drawnRed": 39,
            "reportedRed": 39,
            "inferredRed": 46,
            "playerTrialScore": 0,
            "oppTrialScore": -7,
            "playerTotalScore": -233,
            "oppTotalScore": -66,
            "waitTime": 2575.6996463865635,
            "responseTime": 1642226753993,
            "catchQuestion": "How many <b class=\"r\">red<\/b> marbles did you actually draw (before any changes)? ",
            "catchKey": -1,
            "catchResponse": -1,
            "catchTime": 1642226719158,
            "trialTime": 0
        },
        {
            "exptPart": "trial",
            "trialNumber": 35,
            "roleCurrent": "receiver",
            "marblesSampled": 100,
            "probRed": 0.5,
            "lambda": 5,
            "drawnRed": 50,
            "reportedRed": 45,
            "inferredRed": 65,
            "playerTrialScore": -15,
            "oppTrialScore": 0,
            "playerTotalScore": -248,
            "oppTotalScore": -66,
            "waitTime": 5264.961673446616,
            "responseTime": 1642226762247,
            "catchQuestion": "How many <b class=\"r\">red<\/b> marbles did you actually draw (before any changes)? ",
            "catchKey": -1,
            "catchResponse": -1,
            "catchTime": 1642226762248,
            "trialTime": 0
        },
        {
            "exptPart": "trial",
            "trialNumber": 36,
            "roleCurrent": "sender",
            "marblesSampled": 100,
            "probRed": 0.5,
            "lambda": 5,
            "drawnRed": 94,
            "reportedRed": 94,
            "inferredRed": 99,
            "playerTrialScore": 0,
            "oppTrialScore": -5,
            "playerTotalScore": -248,
            "oppTotalScore": -71,
            "waitTime": 2698.41712768204,
            "responseTime": 1642226771166,
            "catchQuestion": "How many <b class=\"r\">red<\/b> marbles did you actually draw (before any changes)? ",
            "catchKey": -1,
            "catchResponse": -1,
            "catchTime": 1642226762248,
            "trialTime": 0
        },
        {
            "exptPart": "trial",
            "trialNumber": 37,
            "roleCurrent": "receiver",
            "marblesSampled": 100,
            "probRed": 0.5,
            "lambda": 5,
            "drawnRed": 64,
            "reportedRed": 59,
            "inferredRed": 66,
            "playerTrialScore": -2,
            "oppTrialScore": 0,
            "playerTotalScore": -250,
            "oppTotalScore": -71,
            "waitTime": 5539.383770707629,
            "responseTime": 1642226782191,
            "catchQuestion": "How many <b class=\"r\">red<\/b> marbles did you actually draw (before any changes)? ",
            "catchKey": -1,
            "catchResponse": -1,
            "catchTime": 1642226762248,
            "trialTime": 0
        },
        {
            "exptPart": "trial",
            "trialNumber": 38,
            "roleCurrent": "sender",
            "marblesSampled": 100,
            "probRed": 0.5,
            "lambda": 5,
            "drawnRed": 25,
            "reportedRed": 25,
            "inferredRed": 28,
            "playerTrialScore": 0,
            "oppTrialScore": -3,
            "playerTotalScore": -250,
            "oppTotalScore": -74,
            "waitTime": 2538.1666420501115,
            "responseTime": 1642226789554,
            "catchQuestion": "How many <b class=\"r\">red<\/b> marbles did you actually draw (before any changes)? ",
            "catchKey": -1,
            "catchResponse": -1,
            "catchTime": 1642226762248,
            "trialTime": 0
        },
        {
            "exptPart": "trial",
            "trialNumber": 39,
            "roleCurrent": "receiver",
            "marblesSampled": 100,
            "probRed": 0.5,
            "lambda": 5,
            "drawnRed": 69,
            "reportedRed": 68,
            "inferredRed": 45,
            "playerTrialScore": -24,
            "oppTrialScore": 24,
            "playerTotalScore": -274,
            "oppTotalScore": -50,
            "waitTime": 5701.336677526919,
            "responseTime": 1642226802799,
            "catchQuestion": "How many <b class=\"r\">red<\/b> marbles did you actually draw (before any changes)? ",
            "catchKey": -1,
            "catchResponse": -1,
            "catchTime": 1642226762248,
            "trialTime": 0
        },
        {
            "exptPart": "trial",
            "trialNumber": 40,
            "roleCurrent": "sender",
            "marblesSampled": 100,
            "probRed": 0.5,
            "lambda": 5,
            "drawnRed": 19,
            "reportedRed": 9,
            "inferredRed": 13,
            "playerTrialScore": 6,
            "oppTrialScore": -6,
            "playerTotalScore": -268,
            "oppTotalScore": -56,
            "waitTime": 2215.450507902896,
            "responseTime": 1642226817674,
            "catchQuestion": "How many <b class=\"r\">red<\/b> marbles did you actually draw (before any changes)? ",
            "catchKey": 19,
            "catchResponse": 19,
            "catchTime": 1642226817674,
            "trialTime": 0
        },
        {
            "exptPart": "trial",
            "trialNumber": 41,
            "roleCurrent": "receiver",
            "marblesSampled": 100,
            "probRed": 0.5,
            "lambda": 5,
            "drawnRed": 39,
            "reportedRed": 33,
            "inferredRed": 45,
            "playerTrialScore": -6,
            "oppTrialScore": 0,
            "playerTotalScore": -274,
            "oppTotalScore": -56,
            "waitTime": 6476.1483614666795,
            "responseTime": 1642226833141,
            "catchQuestion": "How many <b class=\"r\">red<\/b> marbles did you actually draw (before any changes)? ",
            "catchKey": -1,
            "catchResponse": -1,
            "catchTime": 1642226817674,
            "trialTime": 0
        },
        {
            "exptPart": "trial",
            "trialNumber": 42,
            "roleCurrent": "sender",
            "marblesSampled": 100,
            "probRed": 0.5,
            "lambda": 5,
            "drawnRed": 43,
            "reportedRed": 43,
            "inferredRed": 50,
            "playerTrialScore": 0,
            "oppTrialScore": -7,
            "playerTotalScore": -274,
            "oppTotalScore": -63,
            "waitTime": 2705.4974287730815,
            "responseTime": 1642226840341,
            "catchQuestion": "How many <b class=\"r\">red<\/b> marbles did you actually draw (before any changes)? ",
            "catchKey": -1,
            "catchResponse": -1,
            "catchTime": 1642226817674,
            "trialTime": 0
        },
        {
            "exptPart": "trial",
            "trialNumber": 43,
            "roleCurrent": "receiver",
            "marblesSampled": 100,
            "probRed": 0.5,
            "lambda": 5,
            "drawnRed": 61,
            "reportedRed": 56,
            "inferredRed": 65,
            "playerTrialScore": -4,
            "oppTrialScore": 0,
            "playerTotalScore": -278,
            "oppTotalScore": -63,
            "waitTime": 6476.887834077457,
            "responseTime": 1642226849309,
            "catchQuestion": "How many <b class=\"r\">red<\/b> marbles did you actually draw (before any changes)? ",
            "catchKey": -1,
            "catchResponse": -1,
            "catchTime": 1642226817674,
            "trialTime": 0
        },
        {
            "exptPart": "trial",
            "trialNumber": 44,
            "roleCurrent": "sender",
            "marblesSampled": 100,
            "probRed": 0.5,
            "lambda": 5,
            "drawnRed": 48,
            "reportedRed": 48,
            "inferredRed": 50,
            "playerTrialScore": 0,
            "oppTrialScore": -2,
            "playerTotalScore": -278,
            "oppTotalScore": -65,
            "waitTime": 2564.4919761097754,
            "responseTime": 1642226857253,
            "catchQuestion": "How many <b class=\"r\">red<\/b> marbles did you actually draw (before any changes)? ",
            "catchKey": -1,
            "catchResponse": -1,
            "catchTime": 1642226817674,
            "trialTime": 0
        },
        {
            "exptPart": "trial",
            "trialNumber": 45,
            "roleCurrent": "receiver",
            "marblesSampled": 100,
            "probRed": 0.5,
            "lambda": 5,
            "drawnRed": 71,
            "reportedRed": 63,
            "inferredRed": 66,
            "playerTrialScore": -5,
            "oppTrialScore": 5,
            "playerTotalScore": -283,
            "oppTotalScore": -60,
            "waitTime": 5280.036916278328,
            "responseTime": 1642226864644,
            "catchQuestion": "How many <b class=\"r\">red<\/b> marbles did you actually draw (before any changes)? ",
            "catchKey": -1,
            "catchResponse": -1,
            "catchTime": 1642226864644,
            "trialTime": 0
        },
        {
            "exptPart": "trial",
            "trialNumber": 46,
            "roleCurrent": "sender",
            "marblesSampled": 100,
            "probRed": 0.5,
            "lambda": 5,
            "drawnRed": 33,
            "reportedRed": 33,
            "inferredRed": 41,
            "playerTrialScore": 0,
            "oppTrialScore": -8,
            "playerTotalScore": -283,
            "oppTotalScore": -68,
            "waitTime": 3009.127945906706,
            "responseTime": 1642226874516,
            "catchQuestion": "How many <b class=\"r\">red<\/b> marbles did you actually draw (before any changes)? ",
            "catchKey": -1,
            "catchResponse": -1,
            "catchTime": 1642226864644,
            "trialTime": 0
        },
        {
            "exptPart": "trial",
            "trialNumber": 47,
            "roleCurrent": "receiver",
            "marblesSampled": 100,
            "probRed": 0.5,
            "lambda": 5,
            "drawnRed": 68,
            "reportedRed": 66,
            "inferredRed": 55,
            "playerTrialScore": -13,
            "oppTrialScore": 13,
            "playerTotalScore": -296,
            "oppTotalScore": -55,
            "waitTime": 6891.584079961573,
            "responseTime": 1642226885013,
            "catchQuestion": "How many <b class=\"r\">red<\/b> marbles did you actually draw (before any changes)? ",
            "catchKey": -1,
            "catchResponse": -1,
            "catchTime": 1642226864644,
            "trialTime": 0
        },
        {
            "exptPart": "trial",
            "trialNumber": 48,
            "roleCurrent": "sender",
            "marblesSampled": 100,
            "probRed": 0.5,
            "lambda": 5,
            "drawnRed": 33,
            "reportedRed": 19,
            "inferredRed": 20,
            "playerTrialScore": 13,
            "oppTrialScore": -13,
            "playerTotalScore": -283,
            "oppTotalScore": -68,
            "waitTime": 2070.2760275731143,
            "responseTime": 1642226902955,
            "catchQuestion": "How many <b class=\"r\">red<\/b> marbles did you actually draw (before any changes)? ",
            "catchKey": -1,
            "catchResponse": -1,
            "catchTime": 1642226864644,
            "trialTime": 0
        },
        {
            "exptPart": "trial",
            "trialNumber": 49,
            "roleCurrent": "receiver",
            "marblesSampled": 100,
            "probRed": 0.5,
            "lambda": 5,
            "drawnRed": 63,
            "reportedRed": 57,
            "inferredRed": 45,
            "playerTrialScore": -18,
            "oppTrialScore": 18,
            "playerTotalScore": -301,
            "oppTotalScore": -50,
            "waitTime": 6401.144315635742,
            "responseTime": 1642226918481,
            "catchQuestion": "How many <b class=\"r\">red<\/b> marbles did you actually draw (before any changes)? ",
            "catchKey": -1,
            "catchResponse": -1,
            "catchTime": 1642226864644,
            "trialTime": 0
        },
        {
            "exptPart": "trial",
            "trialNumber": 50,
            "roleCurrent": "sender",
            "marblesSampled": 100,
            "probRed": 0.5,
            "lambda": 5,
            "drawnRed": 41,
            "reportedRed": 41,
            "inferredRed": 43,
            "playerTrialScore": 0,
            "oppTrialScore": -2,
            "playerTotalScore": -301,
            "oppTotalScore": -52,
            "waitTime": 2102.167960811251,
            "responseTime": 1642226925311,
            "catchQuestion": "How many <b class=\"r\">red<\/b> marbles did you actually draw (before any changes)? ",
            "catchKey": 41,
            "catchResponse": 41,
            "catchTime": 1642226925311,
            "trialTime": 0
        },
        {
            "exptPart": "trial",
            "trialNumber": 51,
            "roleCurrent": "receiver",
            "marblesSampled": 100,
            "probRed": 0.5,
            "lambda": 5,
            "drawnRed": 84,
            "reportedRed": 75,
            "inferredRed": 50,
            "playerTrialScore": -34,
            "oppTrialScore": 34,
            "playerTotalScore": -335,
            "oppTotalScore": -18,
            "waitTime": 6399.20416124357,
            "responseTime": 1642226945705,
            "catchQuestion": "How many <b class=\"r\">red<\/b> marbles did you actually draw (before any changes)? ",
            "catchKey": -1,
            "catchResponse": -1,
            "catchTime": 1642226925311,
            "trialTime": 0
        },
        {
            "exptPart": "trial",
            "trialNumber": 52,
            "roleCurrent": "sender",
            "marblesSampled": 100,
            "probRed": 0.5,
            "lambda": 5,
            "drawnRed": 59,
            "reportedRed": 59,
            "inferredRed": 67,
            "playerTrialScore": 0,
            "oppTrialScore": -8,
            "playerTotalScore": -335,
            "oppTotalScore": -26,
            "waitTime": 3086.2031537292605,
            "responseTime": 1642226953735,
            "catchQuestion": "How many <b class=\"r\">red<\/b> marbles did you actually draw (before any changes)? ",
            "catchKey": -1,
            "catchResponse": -1,
            "catchTime": 1642226925311,
            "trialTime": 0
        },
        {
            "exptPart": "trial",
            "trialNumber": 53,
            "roleCurrent": "receiver",
            "marblesSampled": 100,
            "probRed": 0.5,
            "lambda": 5,
            "drawnRed": 35,
            "reportedRed": 30,
            "inferredRed": 40,
            "playerTrialScore": -5,
            "oppTrialScore": 0,
            "playerTotalScore": -340,
            "oppTotalScore": -26,
            "waitTime": 6973.974665220616,
            "responseTime": 1642226963525,
            "catchQuestion": "How many <b class=\"r\">red<\/b> marbles did you actually draw (before any changes)? ",
            "catchKey": -1,
            "catchResponse": -1,
            "catchTime": 1642226925311,
            "trialTime": 0
        },
        {
            "exptPart": "trial",
            "trialNumber": 54,
            "roleCurrent": "sender",
            "marblesSampled": 100,
            "probRed": 0.5,
            "lambda": 5,
            "drawnRed": 26,
            "reportedRed": 26,
            "inferredRed": 32,
            "playerTrialScore": 0,
            "oppTrialScore": -6,
            "playerTotalScore": -340,
            "oppTotalScore": -32,
            "waitTime": 2416.7750894637798,
            "responseTime": 1642226971829,
            "catchQuestion": "How many <b class=\"r\">red<\/b> marbles did you actually draw (before any changes)? ",
            "catchKey": -1,
            "catchResponse": -1,
            "catchTime": 1642226925311,
            "trialTime": 0
        },
        {
            "exptPart": "trial",
            "trialNumber": 55,
            "roleCurrent": "receiver",
            "marblesSampled": 100,
            "probRed": 0.5,
            "lambda": 5,
            "drawnRed": 69,
            "reportedRed": 64,
            "inferredRed": 77,
            "playerTrialScore": -8,
            "oppTrialScore": 0,
            "playerTotalScore": -348,
            "oppTotalScore": -32,
            "waitTime": 5958.292151562494,
            "responseTime": 1642226979766,
            "catchQuestion": "How many <b class=\"r\">red<\/b> marbles did you actually draw (before any changes)? ",
            "catchKey": -1,
            "catchResponse": -1,
            "catchTime": 1642226979766,
            "trialTime": 0
        },
        {
            "exptPart": "trial",
            "trialNumber": 56,
            "roleCurrent": "sender",
            "marblesSampled": 100,
            "probRed": 0.5,
            "lambda": 5,
            "drawnRed": 69,
            "reportedRed": 69,
            "inferredRed": 73,
            "playerTrialScore": 0,
            "oppTrialScore": -4,
            "playerTotalScore": -348,
            "oppTotalScore": -36,
            "waitTime": 2275.878816711295,
            "responseTime": 1642226987283,
            "catchQuestion": "How many <b class=\"r\">red<\/b> marbles did you actually draw (before any changes)? ",
            "catchKey": -1,
            "catchResponse": -1,
            "catchTime": 1642226979766,
            "trialTime": 0
        },
        {
            "exptPart": "trial",
            "trialNumber": 57,
            "roleCurrent": "receiver",
            "marblesSampled": 100,
            "probRed": 0.5,
            "lambda": 5,
            "drawnRed": 49,
            "reportedRed": 42,
            "inferredRed": 55,
            "playerTrialScore": -6,
            "oppTrialScore": 0,
            "playerTotalScore": -354,
            "oppTotalScore": -36,
            "waitTime": 5173.855726820404,
            "responseTime": 1642226994050,
            "catchQuestion": "How many <b class=\"r\">red<\/b> marbles did you actually draw (before any changes)? ",
            "catchKey": -1,
            "catchResponse": -1,
            "catchTime": 1642226979766,
            "trialTime": 0
        },
        {
            "exptPart": "trial",
            "trialNumber": 58,
            "roleCurrent": "sender",
            "marblesSampled": 100,
            "probRed": 0.5,
            "lambda": 5,
            "drawnRed": 54,
            "reportedRed": 54,
            "inferredRed": 55,
            "playerTrialScore": 0,
            "oppTrialScore": -1,
            "playerTotalScore": -354,
            "oppTotalScore": -37,
            "waitTime": 2335.395744279364,
            "responseTime": 1642227000672,
            "catchQuestion": "How many <b class=\"r\">red<\/b> marbles did you actually draw (before any changes)? ",
            "catchKey": -1,
            "catchResponse": -1,
            "catchTime": 1642226979766,
            "trialTime": 0
        },
        {
            "exptPart": "trial",
            "trialNumber": 59,
            "roleCurrent": "receiver",
            "marblesSampled": 100,
            "probRed": 0.5,
            "lambda": 5,
            "drawnRed": 25,
            "reportedRed": 24,
            "inferredRed": 55,
            "playerTrialScore": -30,
            "oppTrialScore": 0,
            "playerTotalScore": -384,
            "oppTotalScore": -37,
            "waitTime": 5381.674749416699,
            "responseTime": 1642227009125,
            "catchQuestion": "How many <b class=\"r\">red<\/b> marbles did you actually draw (before any changes)? ",
            "catchKey": -1,
            "catchResponse": -1,
            "catchTime": 1642226979766,
            "trialTime": 0
        },
        {
            "exptPart": "trial",
            "trialNumber": 60,
            "roleCurrent": "sender",
            "marblesSampled": 100,
            "probRed": 0.5,
            "lambda": 5,
            "drawnRed": 51,
            "reportedRed": 51,
            "inferredRed": 60,
            "playerTrialScore": 0,
            "oppTrialScore": -9,
            "playerTotalScore": -384,
            "oppTotalScore": -46,
            "waitTime": 2171.5914602590074,
            "responseTime": 1642227015532,
            "catchQuestion": "How many <b class=\"r\">red<\/b> marbles did you actually draw (before any changes)? ",
            "catchKey": -1,
            "catchResponse": -1,
            "catchTime": 1642227015532,
            "trialTime": 0
        },
        {
            "exptPart": "trial",
            "trialNumber": 61,
            "roleCurrent": "receiver",
            "marblesSampled": 100,
            "probRed": 0.5,
            "lambda": 5,
            "drawnRed": 58,
            "reportedRed": 53,
            "inferredRed": 53,
            "playerTrialScore": -5,
            "oppTrialScore": 5,
            "playerTotalScore": -389,
            "oppTotalScore": -41,
            "waitTime": 5679.258797090402,
            "responseTime": 1642227025047,
            "catchQuestion": "How many <b class=\"r\">red<\/b> marbles did you actually draw (before any changes)? ",
            "catchKey": -1,
            "catchResponse": -1,
            "catchTime": 1642227015532,
            "trialTime": 0
        },
        {
            "exptPart": "trial",
            "trialNumber": 62,
            "roleCurrent": "sender",
            "marblesSampled": 100,
            "probRed": 0.5,
            "lambda": 5,
            "drawnRed": 40,
            "reportedRed": 40,
            "inferredRed": 45,
            "playerTrialScore": 0,
            "oppTrialScore": -5,
            "playerTotalScore": -389,
            "oppTotalScore": -46,
            "waitTime": 2205.5458591470606,
            "responseTime": 1642227031104,
            "catchQuestion": "How many <b class=\"r\">red<\/b> marbles did you actually draw (before any changes)? ",
            "catchKey": -1,
            "catchResponse": -1,
            "catchTime": 1642227015532,
            "trialTime": 0
        },
        {
            "exptPart": "trial",
            "trialNumber": 63,
            "roleCurrent": "receiver",
            "marblesSampled": 100,
            "probRed": 0.5,
            "lambda": 5,
            "drawnRed": 30,
            "reportedRed": 27,
            "inferredRed": 27,
            "playerTrialScore": -3,
            "oppTrialScore": 3,
            "playerTotalScore": -392,
            "oppTotalScore": -43,
            "waitTime": 5276.654848092116,
            "responseTime": 1642227038393,
            "catchQuestion": "How many <b class=\"r\">red<\/b> marbles did you actually draw (before any changes)? ",
            "catchKey": -1,
            "catchResponse": -1,
            "catchTime": 1642227015532,
            "trialTime": 0
        },
        {
            "exptPart": "trial",
            "trialNumber": 64,
            "roleCurrent": "sender",
            "marblesSampled": 100,
            "probRed": 0.5,
            "lambda": 5,
            "drawnRed": 42,
            "reportedRed": 42,
            "inferredRed": 46,
            "playerTrialScore": 0,
            "oppTrialScore": -4,
            "playerTotalScore": -392,
            "oppTotalScore": -47,
            "waitTime": 2218.2718715964734,
            "responseTime": 1642227045325,
            "catchQuestion": "How many <b class=\"r\">red<\/b> marbles did you actually draw (before any changes)? ",
            "catchKey": -1,
            "catchResponse": -1,
            "catchTime": 1642227015532,
            "trialTime": 0
        },
        {
            "exptPart": "trial",
            "trialNumber": 65,
            "roleCurrent": "receiver",
            "marblesSampled": 100,
            "probRed": 0.5,
            "lambda": 5,
            "drawnRed": 56,
            "reportedRed": 54,
            "inferredRed": 54,
            "playerTrialScore": -2,
            "oppTrialScore": 2,
            "playerTotalScore": -394,
            "oppTotalScore": -45,
            "waitTime": 5830.916255984472,
            "responseTime": 1642227052874,
            "catchQuestion": "How many <b class=\"r\">red<\/b> marbles did you actually draw (before any changes)? ",
            "catchKey": -1,
            "catchResponse": -1,
            "catchTime": 1642227052875,
            "trialTime": 0
        },
        {
            "exptPart": "trial",
            "trialNumber": 66,
            "roleCurrent": "sender",
            "marblesSampled": 100,
            "probRed": 0.5,
            "lambda": 5,
            "drawnRed": 68,
            "reportedRed": 68,
            "inferredRed": 72,
            "playerTrialScore": 0,
            "oppTrialScore": -4,
            "playerTotalScore": -394,
            "oppTotalScore": -49,
            "waitTime": 2586.5596945374264,
            "responseTime": 1642227059827,
            "catchQuestion": "How many <b class=\"r\">red<\/b> marbles did you actually draw (before any changes)? ",
            "catchKey": 68,
            "catchResponse": 68,
            "catchTime": 1642227059827,
            "trialTime": 0
        },
        {
            "exptPart": "trial",
            "trialNumber": 67,
            "roleCurrent": "receiver",
            "marblesSampled": 100,
            "probRed": 0.5,
            "lambda": 5,
            "drawnRed": 72,
            "reportedRed": 65,
            "inferredRed": 65,
            "playerTrialScore": -7,
            "oppTrialScore": 7,
            "playerTotalScore": -401,
            "oppTotalScore": -42,
            "waitTime": 5873.293253645086,
            "responseTime": 1642227070814,
            "catchQuestion": "How many <b class=\"r\">red<\/b> marbles did your opponent report drawing? ",
            "catchKey": 65,
            "catchResponse": 65,
            "catchTime": 1642227070814,
            "trialTime": 0
        },
        {
            "exptPart": "trial",
            "trialNumber": 68,
            "roleCurrent": "sender",
            "marblesSampled": 100,
            "probRed": 0.5,
            "lambda": 5,
            "drawnRed": 52,
            "reportedRed": 52,
            "inferredRed": 56,
            "playerTrialScore": 0,
            "oppTrialScore": -4,
            "playerTotalScore": -401,
            "oppTotalScore": -46,
            "waitTime": 3077.566811788644,
            "responseTime": 1642227080667,
            "catchQuestion": "How many <b class=\"r\">red<\/b> marbles did you actually draw (before any changes)? ",
            "catchKey": 52,
            "catchResponse": 52,
            "catchTime": 1642227080667,
            "trialTime": 0
        },
        {
            "exptPart": "trial",
            "trialNumber": 69,
            "roleCurrent": "receiver",
            "marblesSampled": 100,
            "probRed": 0.5,
            "lambda": 5,
            "drawnRed": 32,
            "reportedRed": 26,
            "inferredRed": 26,
            "playerTrialScore": -6,
            "oppTrialScore": 6,
            "playerTotalScore": -407,
            "oppTotalScore": -40,
            "waitTime": 5457.239997247243,
            "responseTime": 1642227091670,
            "catchQuestion": "How many <b class=\"r\">red<\/b> marbles did you actually draw (before any changes)? ",
            "catchKey": -1,
            "catchResponse": -1,
            "catchTime": 1642227080667,
            "trialTime": 0
        },
        {
            "exptPart": "trial",
            "trialNumber": 70,
            "roleCurrent": "sender",
            "marblesSampled": 100,
            "probRed": 0.5,
            "lambda": 5,
            "drawnRed": 40,
            "reportedRed": 39,
            "inferredRed": 44,
            "playerTrialScore": 0,
            "oppTrialScore": -4,
            "playerTotalScore": -407,
            "oppTotalScore": -44,
            "waitTime": 3112.97553019831,
            "responseTime": 1642227098827,
            "catchQuestion": "How many <b class=\"r\">red<\/b> marbles did you actually draw (before any changes)? ",
            "catchKey": -1,
            "catchResponse": -1,
            "catchTime": 1642227098827,
            "trialTime": 0
        },
        {
            "exptPart": "trial",
            "trialNumber": 71,
            "roleCurrent": "receiver",
            "marblesSampled": 100,
            "probRed": 0.5,
            "lambda": 5,
            "drawnRed": 61,
            "reportedRed": 55,
            "inferredRed": 55,
            "playerTrialScore": -6,
            "oppTrialScore": 6,
            "playerTotalScore": -413,
            "oppTotalScore": -38,
            "waitTime": 7064.3307284317,
            "responseTime": 1642227108833,
            "catchQuestion": "How many <b class=\"r\">red<\/b> marbles did you actually draw (before any changes)? ",
            "catchKey": -1,
            "catchResponse": -1,
            "catchTime": 1642227098827,
            "trialTime": 0
        },
        {
            "exptPart": "trial",
            "trialNumber": 72,
            "roleCurrent": "sender",
            "marblesSampled": 100,
            "probRed": 0.5,
            "lambda": 5,
            "drawnRed": 42,
            "reportedRed": 42,
            "inferredRed": 47,
            "playerTrialScore": 0,
            "oppTrialScore": -5,
            "playerTotalScore": -413,
            "oppTotalScore": -43,
            "waitTime": 2990.918869889555,
            "responseTime": 1642227118409,
            "catchQuestion": "How many <b class=\"r\">red<\/b> marbles did you actually draw (before any changes)? ",
            "catchKey": -1,
            "catchResponse": -1,
            "catchTime": 1642227098827,
            "trialTime": 0
        },
        {
            "exptPart": "trial",
            "trialNumber": 73,
            "roleCurrent": "receiver",
            "marblesSampled": 100,
            "probRed": 0.5,
            "lambda": 5,
            "drawnRed": 84,
            "reportedRed": 80,
            "inferredRed": 80,
            "playerTrialScore": -4,
            "oppTrialScore": 4,
            "playerTotalScore": -417,
            "oppTotalScore": -39,
            "waitTime": 5528.075384899112,
            "responseTime": 1642227126435,
            "catchQuestion": "How many <b class=\"r\">red<\/b> marbles did you actually draw (before any changes)? ",
            "catchKey": -1,
            "catchResponse": -1,
            "catchTime": 1642227098827,
            "trialTime": 0
        },
        {
            "exptPart": "trial",
            "trialNumber": 74,
            "roleCurrent": "sender",
            "marblesSampled": 100,
            "probRed": 0.5,
            "lambda": 5,
            "drawnRed": 23,
            "reportedRed": 23,
            "inferredRed": 28,
            "playerTrialScore": 0,
            "oppTrialScore": -5,
            "playerTotalScore": -417,
            "oppTotalScore": -44,
            "waitTime": 2561.349111806895,
            "responseTime": 1642227133258,
            "catchQuestion": "How many <b class=\"r\">red<\/b> marbles did you actually draw (before any changes)? ",
            "catchKey": -1,
            "catchResponse": -1,
            "catchTime": 1642227098827,
            "trialTime": 0
        },
        {
            "exptPart": "trial",
            "trialNumber": 75,
            "roleCurrent": "receiver",
            "marblesSampled": 100,
            "probRed": 0.5,
            "lambda": 5,
            "drawnRed": 34,
            "reportedRed": 29,
            "inferredRed": 29,
            "playerTrialScore": -5,
            "oppTrialScore": 5,
            "playerTotalScore": -422,
            "oppTotalScore": -39,
            "waitTime": 6383.425091493381,
            "responseTime": 1642227141930,
            "catchQuestion": "How many <b class=\"r\">red<\/b> marbles did you actually draw (before any changes)? ",
            "catchKey": -1,
            "catchResponse": -1,
            "catchTime": 1642227141930,
            "trialTime": 0
        },
        {
            "exptPart": "trial",
            "trialNumber": 76,
            "roleCurrent": "sender",
            "marblesSampled": 100,
            "probRed": 0.5,
            "lambda": 5,
            "drawnRed": 36,
            "reportedRed": 36,
            "inferredRed": 42,
            "playerTrialScore": 0,
            "oppTrialScore": -6,
            "playerTotalScore": -422,
            "oppTotalScore": -45,
            "waitTime": 3097.334803163413,
            "responseTime": 1642227150691,
            "catchQuestion": "How many <b class=\"r\">red<\/b> marbles did you actually draw (before any changes)? ",
            "catchKey": -1,
            "catchResponse": -1,
            "catchTime": 1642227141930,
            "trialTime": 0
        },
        {
            "exptPart": "trial",
            "trialNumber": 77,
            "roleCurrent": "receiver",
            "marblesSampled": 100,
            "probRed": 0.5,
            "lambda": 5,
            "drawnRed": 56,
            "reportedRed": 52,
            "inferredRed": 52,
            "playerTrialScore": -4,
            "oppTrialScore": 4,
            "playerTotalScore": -426,
            "oppTotalScore": -41,
            "waitTime": 6596.371654326111,
            "responseTime": 1642227163381,
            "catchQuestion": "How many <b class=\"r\">red<\/b> marbles did you actually draw (before any changes)? ",
            "catchKey": -1,
            "catchResponse": -1,
            "catchTime": 1642227141930,
            "trialTime": 0
        },
        {
            "exptPart": "trial",
            "trialNumber": 78,
            "roleCurrent": "sender",
            "marblesSampled": 100,
            "probRed": 0.5,
            "lambda": 5,
            "drawnRed": 35,
            "reportedRed": 35,
            "inferredRed": 39,
            "playerTrialScore": 0,
            "oppTrialScore": -4,
            "playerTotalScore": -426,
            "oppTotalScore": -45,
            "waitTime": 2102.715004745814,
            "responseTime": 1642227176499,
            "catchQuestion": "How many <b class=\"r\">red<\/b> marbles did you actually draw (before any changes)? ",
            "catchKey": -1,
            "catchResponse": -1,
            "catchTime": 1642227141930,
            "trialTime": 0
        },
        {
            "exptPart": "trial",
            "trialNumber": 79,
            "roleCurrent": "receiver",
            "marblesSampled": 100,
            "probRed": 0.5,
            "lambda": 5,
            "drawnRed": 43,
            "reportedRed": 40,
            "inferredRed": 40,
            "playerTrialScore": -3,
            "oppTrialScore": 3,
            "playerTotalScore": -429,
            "oppTotalScore": -42,
            "waitTime": 5895.341036422193,
            "responseTime": 1642227184166,
            "catchQuestion": "How many <b class=\"r\">red<\/b> marbles did you actually draw (before any changes)? ",
            "catchKey": -1,
            "catchResponse": -1,
            "catchTime": 1642227141930,
            "trialTime": 0
        },
        {
            "exptPart": "trial",
            "trialNumber": 80,
            "roleCurrent": "sender",
            "marblesSampled": 100,
            "probRed": 0.5,
            "lambda": 5,
            "drawnRed": 73,
            "reportedRed": 73,
            "inferredRed": 79,
            "playerTrialScore": 0,
            "oppTrialScore": -6,
            "playerTotalScore": -429,
            "oppTotalScore": -48,
            "waitTime": 2528.2774343438277,
            "responseTime": 1642227191242,
            "catchQuestion": "How many <b class=\"r\">red<\/b> marbles did you actually draw (before any changes)? ",
            "catchKey": -1,
            "catchResponse": -1,
            "catchTime": 1642227191242,
            "trialTime": 0
        },
        {
            "exptPart": "trial",
            "trialNumber": 81,
            "roleCurrent": "receiver",
            "marblesSampled": 100,
            "probRed": 0.5,
            "lambda": 5,
            "drawnRed": 44,
            "reportedRed": 37,
            "inferredRed": 37,
            "playerTrialScore": -7,
            "oppTrialScore": 7,
            "playerTotalScore": -436,
            "oppTotalScore": -41,
            "waitTime": 6258.101854078357,
            "responseTime": 1642227202605,
            "catchQuestion": "How many <b class=\"r\">red<\/b> marbles did you actually draw (before any changes)? ",
            "catchKey": -1,
            "catchResponse": -1,
            "catchTime": 1642227191242,
            "trialTime": 0
        },
        {
            "exptPart": "trial",
            "trialNumber": 82,
            "roleCurrent": "sender",
            "marblesSampled": 100,
            "probRed": 0.5,
            "lambda": 5,
            "drawnRed": 30,
            "reportedRed": 30,
            "inferredRed": 35,
            "playerTrialScore": 0,
            "oppTrialScore": -5,
            "playerTotalScore": -436,
            "oppTotalScore": -46,
            "waitTime": 2550.427723071689,
            "responseTime": 1642227209518,
            "catchQuestion": "How many <b class=\"r\">red<\/b> marbles did you actually draw (before any changes)? ",
            "catchKey": -1,
            "catchResponse": -1,
            "catchTime": 1642227191242,
            "trialTime": 0
        },
        {
            "exptPart": "trial",
            "trialNumber": 83,
            "roleCurrent": "receiver",
            "marblesSampled": 100,
            "probRed": 0.5,
            "lambda": 5,
            "drawnRed": 36,
            "reportedRed": 33,
            "inferredRed": 33,
            "playerTrialScore": -3,
            "oppTrialScore": 3,
            "playerTotalScore": -439,
            "oppTotalScore": -43,
            "waitTime": 5970.170494028073,
            "responseTime": 1642227216974,
            "catchQuestion": "How many <b class=\"r\">red<\/b> marbles did you actually draw (before any changes)? ",
            "catchKey": -1,
            "catchResponse": -1,
            "catchTime": 1642227191242,
            "trialTime": 0
        },
        {
            "exptPart": "trial",
            "trialNumber": 84,
            "roleCurrent": "sender",
            "marblesSampled": 100,
            "probRed": 0.5,
            "lambda": 5,
            "drawnRed": 73,
            "reportedRed": 73,
            "inferredRed": 76,
            "playerTrialScore": 0,
            "oppTrialScore": -3,
            "playerTotalScore": -439,
            "oppTotalScore": -46,
            "waitTime": 2764.2625221296685,
            "responseTime": 1642227224942,
            "catchQuestion": "How many <b class=\"r\">red<\/b> marbles did you actually draw (before any changes)? ",
            "catchKey": -1,
            "catchResponse": -1,
            "catchTime": 1642227191242,
            "trialTime": 0
        },
        {
            "exptPart": "trial",
            "trialNumber": 85,
            "roleCurrent": "receiver",
            "marblesSampled": 100,
            "probRed": 0.5,
            "lambda": 5,
            "drawnRed": 38,
            "reportedRed": 36,
            "inferredRed": 36,
            "playerTrialScore": -2,
            "oppTrialScore": 2,
            "playerTotalScore": -441,
            "oppTotalScore": -44,
            "waitTime": 7389.4164341421565,
            "responseTime": 1642227236867,
            "catchQuestion": "How many <b class=\"r\">red<\/b> marbles did your opponent report drawing? ",
            "catchKey": 36,
            "catchResponse": 36,
            "catchTime": 1642227236867,
            "trialTime": 0
        },
        {
            "exptPart": "trial",
            "trialNumber": 86,
            "roleCurrent": "sender",
            "marblesSampled": 100,
            "probRed": 0.5,
            "lambda": 5,
            "drawnRed": 52,
            "reportedRed": 52,
            "inferredRed": 57,
            "playerTrialScore": 0,
            "oppTrialScore": -5,
            "playerTotalScore": -441,
            "oppTotalScore": -49,
            "waitTime": 2596.166698117778,
            "responseTime": 1642227246643,
            "catchQuestion": "How many <b class=\"r\">red<\/b> marbles did your opponent report drawing? ",
            "catchKey": -1,
            "catchResponse": -1,
            "catchTime": 1642227236867,
            "trialTime": 0
        },
        {
            "exptPart": "trial",
            "trialNumber": 87,
            "roleCurrent": "receiver",
            "marblesSampled": 100,
            "probRed": 0.5,
            "lambda": 5,
            "drawnRed": 40,
            "reportedRed": 37,
            "inferredRed": 37,
            "playerTrialScore": -3,
            "oppTrialScore": 3,
            "playerTotalScore": -444,
            "oppTotalScore": -46,
            "waitTime": 5389.086772062317,
            "responseTime": 1642227254311,
            "catchQuestion": "How many <b class=\"r\">red<\/b> marbles did your opponent report drawing? ",
            "catchKey": -1,
            "catchResponse": -1,
            "catchTime": 1642227236867,
            "trialTime": 0
        },
        {
            "exptPart": "trial",
            "trialNumber": 88,
            "roleCurrent": "sender",
            "marblesSampled": 100,
            "probRed": 0.5,
            "lambda": 5,
            "drawnRed": 70,
            "reportedRed": 70,
            "inferredRed": 77,
            "playerTrialScore": 0,
            "oppTrialScore": -7,
            "playerTotalScore": -444,
            "oppTotalScore": -53,
            "waitTime": 2421.862408446542,
            "responseTime": 1642227261824,
            "catchQuestion": "How many <b class=\"r\">red<\/b> marbles did your opponent report drawing? ",
            "catchKey": -1,
            "catchResponse": -1,
            "catchTime": 1642227236867,
            "trialTime": 0
        },
        {
            "exptPart": "trial",
            "trialNumber": 89,
            "roleCurrent": "receiver",
            "marblesSampled": 100,
            "probRed": 0.5,
            "lambda": 5,
            "drawnRed": 53,
            "reportedRed": 47,
            "inferredRed": 47,
            "playerTrialScore": -6,
            "oppTrialScore": 6,
            "playerTotalScore": -450,
            "oppTotalScore": -47,
            "waitTime": 6953.800894136113,
            "responseTime": 1642227273008,
            "catchQuestion": "How many <b class=\"r\">red<\/b> marbles did your opponent report drawing? ",
            "catchKey": -1,
            "catchResponse": -1,
            "catchTime": 1642227236867,
            "trialTime": 0
        },
        {
            "exptPart": "trial",
            "trialNumber": 90,
            "roleCurrent": "sender",
            "marblesSampled": 100,
            "probRed": 0.5,
            "lambda": 5,
            "drawnRed": 64,
            "reportedRed": 0,
            "inferredRed": 4,
            "playerTrialScore": 60,
            "oppTrialScore": -60,
            "playerTotalScore": -390,
            "oppTotalScore": -107,
            "waitTime": 2098.8490625090226,
            "responseTime": 1642227311958,
            "catchQuestion": "How many <b class=\"r\">red<\/b> marbles did your opponent report drawing? ",
            "catchKey": -1,
            "catchResponse": -1,
            "catchTime": 1642227311958,
            "trialTime": 0
        },
        {
            "exptPart": "trial",
            "trialNumber": 91,
            "roleCurrent": "receiver",
            "marblesSampled": 100,
            "probRed": 0.5,
            "lambda": 5,
            "drawnRed": 55,
            "reportedRed": 54,
            "inferredRed": 64,
            "playerTrialScore": -9,
            "oppTrialScore": 0,
            "playerTotalScore": -399,
            "oppTotalScore": -107,
            "waitTime": 7275.423234202285,
            "responseTime": 1642227323374,
            "catchQuestion": "How many <b class=\"r\">red<\/b> marbles did your opponent report drawing? ",
            "catchKey": 54,
            "catchResponse": 54,
            "catchTime": 1642227323374,
            "trialTime": 0
        },
        {
            "exptPart": "trial",
            "trialNumber": 92,
            "roleCurrent": "sender",
            "marblesSampled": 100,
            "probRed": 0.5,
            "lambda": 5,
            "drawnRed": 87,
            "reportedRed": -1,
            "inferredRed": 2,
            "playerTrialScore": 85,
            "oppTrialScore": -85,
            "playerTotalScore": -314,
            "oppTotalScore": -192,
            "waitTime": 2072.098028476643,
            "responseTime": 1642227379271,
            "catchQuestion": "How many <b class=\"r\">red<\/b> marbles did your opponent report drawing? ",
            "catchKey": -1,
            "catchResponse": -1,
            "catchTime": 1642227323374,
            "trialTime": 0
        },
        {
            "exptPart": "trial",
            "trialNumber": 93,
            "roleCurrent": "receiver",
            "marblesSampled": 100,
            "probRed": 0.5,
            "lambda": 5,
            "drawnRed": 29,
            "reportedRed": 23,
            "inferredRed": 55,
            "playerTrialScore": -26,
            "oppTrialScore": 0,
            "playerTotalScore": -340,
            "oppTotalScore": -192,
            "waitTime": 5753.909338753303,
            "responseTime": 1642227388180,
            "catchQuestion": "How many <b class=\"r\">red<\/b> marbles did your opponent report drawing? ",
            "catchKey": -1,
            "catchResponse": -1,
            "catchTime": 1642227323374,
            "trialTime": 0
        },
        {
            "exptPart": "trial",
            "trialNumber": 94,
            "roleCurrent": "sender",
            "marblesSampled": 100,
            "probRed": 0.5,
            "lambda": 5,
            "drawnRed": 32,
            "reportedRed": 0,
            "inferredRed": 7,
            "playerTrialScore": 25,
            "oppTrialScore": -25,
            "playerTotalScore": -315,
            "oppTotalScore": -217,
            "waitTime": 3138.9484886759765,
            "responseTime": 1642227431368,
            "catchQuestion": "How many <b class=\"r\">red<\/b> marbles did your opponent report drawing? ",
            "catchKey": -1,
            "catchResponse": -1,
            "catchTime": 1642227323374,
            "trialTime": 0
        },
        {
            "exptPart": "trial",
            "trialNumber": 95,
            "roleCurrent": "receiver",
            "marblesSampled": 100,
            "probRed": 0.5,
            "lambda": 5,
            "drawnRed": 50,
            "reportedRed": 42,
            "inferredRed": 60,
            "playerTrialScore": -10,
            "oppTrialScore": 0,
            "playerTotalScore": -325,
            "oppTotalScore": -217,
            "waitTime": 5654.527862653131,
            "responseTime": 1642227439883,
            "catchQuestion": "How many <b class=\"r\">red<\/b> marbles did your opponent report drawing? ",
            "catchKey": -1,
            "catchResponse": -1,
            "catchTime": 1642227439883,
            "trialTime": 0
        },
        {
            "exptPart": "trial",
            "trialNumber": 96,
            "roleCurrent": "sender",
            "marblesSampled": 100,
            "probRed": 0.5,
            "lambda": 5,
            "drawnRed": 69,
            "reportedRed": 1,
            "inferredRed": 7,
            "playerTrialScore": 62,
            "oppTrialScore": -62,
            "playerTotalScore": -263,
            "oppTotalScore": -279,
            "waitTime": 2585.006704078074,
            "responseTime": 1642227489871,
            "catchQuestion": "How many <b class=\"r\">red<\/b> marbles did your opponent report drawing? ",
            "catchKey": -1,
            "catchResponse": -1,
            "catchTime": 1642227439883,
            "trialTime": 0
        },
        {
            "exptPart": "trial",
            "trialNumber": 97,
            "roleCurrent": "receiver",
            "marblesSampled": 100,
            "probRed": 0.5,
            "lambda": 5,
            "drawnRed": 29,
            "reportedRed": 26,
            "inferredRed": 50,
            "playerTrialScore": -21,
            "oppTrialScore": 0,
            "playerTotalScore": -284,
            "oppTotalScore": -279,
            "waitTime": 5735.997562765393,
            "responseTime": 1642227500023,
            "catchQuestion": "How many <b class=\"r\">red<\/b> marbles did your opponent report drawing? ",
            "catchKey": -1,
            "catchResponse": -1,
            "catchTime": 1642227439883,
            "trialTime": 0
        },
        {
            "exptPart": "trial",
            "trialNumber": 98,
            "roleCurrent": "sender",
            "marblesSampled": 100,
            "probRed": 0.5,
            "lambda": 5,
            "drawnRed": 63,
            "reportedRed": 0,
            "inferredRed": 6,
            "playerTrialScore": 57,
            "oppTrialScore": -57,
            "playerTotalScore": -227,
            "oppTotalScore": -336,
            "waitTime": 2374.9538273981134,
            "responseTime": 1642227546341,
            "catchQuestion": "How many <b class=\"r\">red<\/b> marbles did your opponent report drawing? ",
            "catchKey": -1,
            "catchResponse": -1,
            "catchTime": 1642227439883,
            "trialTime": 0
        },
        {
            "exptPart": "trial",
            "trialNumber": 99,
            "roleCurrent": "receiver",
            "marblesSampled": 100,
            "probRed": 0.5,
            "lambda": 5,
            "drawnRed": 87,
            "reportedRed": 79,
            "inferredRed": 80,
            "playerTrialScore": -7,
            "oppTrialScore": 7,
            "playerTotalScore": -234,
            "oppTotalScore": -329,
            "waitTime": 5546.59320085758,
            "responseTime": 1642227554644,
            "catchQuestion": "How many <b class=\"r\">red<\/b> marbles did your opponent report drawing? ",
            "catchKey": -1,
            "catchResponse": -1,
            "catchTime": 1642227439883,
            "trialTime": 0
        },
        {
            "exptPart": "trial",
            "trialNumber": 100,
            "roleCurrent": "sender",
            "marblesSampled": 100,
            "probRed": 0.5,
            "lambda": 5,
            "drawnRed": 44,
            "reportedRed": 8,
            "inferredRed": 11,
            "playerTrialScore": 33,
            "oppTrialScore": -33,
            "playerTotalScore": -201,
            "oppTotalScore": -362,
            "waitTime": 2623.94798216009,
            "responseTime": 1642227581010,
            "catchQuestion": "How many <b class=\"r\">red<\/b> marbles did you actually draw (before any changes)? ",
            "catchKey": 44,
            "catchResponse": 44,
            "catchTime": 1642227581011,
            "trialTime": 0
        }
    ]
}