{
    "client": {
        "type": "sona",
        "experiment_id": 2228,
        "credit_token": "b315147ae43241ea9c65086cb510cfb7",
        "survey_code": "37129",
        "sid": "sona-37129",
        "window": {
            "width": 836,
            "height": 609
        },
        "screen": {
            "width": 1280,
            "height": 720
        },
        "userAgent": "Mozilla\/5.0 (Windows NT 10.0; Win64; x64) AppleWebKit\/537.36 (KHTML, like Gecko) Chrome\/97.0.4692.71 Safari\/537.36",
        "score": 0,
        "bonus": 0
    },
    "expt": {
        "saveURL": "submit.simple.php",
        "trials": 100,
        "practiceTrials": 2,
        "marblesSampled": 100,
        "probRed": 0.5,
        "lambdaAI": 5,
        "roleFirst": "receiver",
        "roles": [
            "sender",
            "receiver"
        ],
        "cost": "unif",
        "goal": "under",
        "catchTrials": [
            68,
            59,
            53,
            26,
            22,
            52,
            57,
            81,
            84,
            10
        ],
        "scoreTotal": {
            "player": 865,
            "opp": -2240
        },
        "sona": {
            "experiment_id": 2228,
            "credit_token": "b315147ae43241ea9c65086cb510cfb7"
        },
        "pilot": false,
        "debug": false
    },
    "trials": [
        {
            "exptPart": "practice",
            "trialNumber": 1,
            "roleCurrent": "sender",
            "marblesSampled": 100,
            "probRed": 0.5,
            "lambda": 5,
            "drawnRed": 17,
            "reportedRed": 28,
            "inferredRed": 32,
            "playerTrialScore": 0,
            "oppTrialScore": -15,
            "playerTotalScore": 0,
            "oppTotalScore": -15,
            "waitTime": 2175.9210904257434,
            "responseTime": 1642652030319,
            "catchQuestion": "How many <b class=\"r\">red<\/b> marbles did you actually draw (before any changes)? ",
            "catchKey": 17,
            "catchResponse": 21,
            "catchTime": 1642652030320,
            "trialTime": 0
        },
        {
            "exptPart": "practice",
            "trialNumber": 2,
            "roleCurrent": "receiver",
            "marblesSampled": 100,
            "probRed": 0.5,
            "lambda": 5,
            "drawnRed": 63,
            "reportedRed": 59,
            "inferredRed": 32,
            "playerTrialScore": -31,
            "oppTrialScore": 31,
            "playerTotalScore": -31,
            "oppTotalScore": 16,
            "waitTime": 6101.385487329217,
            "responseTime": 1642652069378,
            "catchQuestion": "How many <b class=\"r\">red<\/b> marbles did your opponent report drawing? ",
            "catchKey": 59,
            "catchResponse": 52,
            "catchTime": 1642652069378,
            "trialTime": 0
        },
        {
            "exptPart": "trial",
            "trialNumber": 1,
            "roleCurrent": "receiver",
            "marblesSampled": 100,
            "probRed": 0.5,
            "lambda": 5,
            "drawnRed": 76,
            "reportedRed": 71,
            "inferredRed": 17,
            "playerTrialScore": -59,
            "oppTrialScore": 59,
            "playerTotalScore": -59,
            "oppTotalScore": 59,
            "waitTime": 5820.572302529306,
            "responseTime": 1642652106486,
            "catchQuestion": "How many <b class=\"r\">red<\/b> marbles did your opponent report drawing? ",
            "catchKey": -1,
            "catchResponse": -1,
            "catchTime": 1642652069378,
            "trialTime": 0
        },
        {
            "exptPart": "trial",
            "trialNumber": 2,
            "roleCurrent": "sender",
            "marblesSampled": 100,
            "probRed": 0.5,
            "lambda": 5,
            "drawnRed": 63,
            "reportedRed": 55,
            "inferredRed": 66,
            "playerTrialScore": 0,
            "oppTrialScore": -3,
            "playerTotalScore": -59,
            "oppTotalScore": 56,
            "waitTime": 2722.5160952001775,
            "responseTime": 1642652136686,
            "catchQuestion": "How many <b class=\"r\">red<\/b> marbles did your opponent report drawing? ",
            "catchKey": -1,
            "catchResponse": -1,
            "catchTime": 1642652069378,
            "trialTime": 0
        },
        {
            "exptPart": "trial",
            "trialNumber": 3,
            "roleCurrent": "receiver",
            "marblesSampled": 100,
            "probRed": 0.5,
            "lambda": 5,
            "drawnRed": 34,
            "reportedRed": 29,
            "inferredRed": 32,
            "playerTrialScore": -2,
            "oppTrialScore": 2,
            "playerTotalScore": -61,
            "oppTotalScore": 58,
            "waitTime": 6440.406136877484,
            "responseTime": 1642652167512,
            "catchQuestion": "How many <b class=\"r\">red<\/b> marbles did your opponent report drawing? ",
            "catchKey": -1,
            "catchResponse": -1,
            "catchTime": 1642652069378,
            "trialTime": 0
        },
        {
            "exptPart": "trial",
            "trialNumber": 4,
            "roleCurrent": "sender",
            "marblesSampled": 100,
            "probRed": 0.5,
            "lambda": 5,
            "drawnRed": 32,
            "reportedRed": 28,
            "inferredRed": 31,
            "playerTrialScore": 1,
            "oppTrialScore": -1,
            "playerTotalScore": -60,
            "oppTotalScore": 57,
            "waitTime": 2892.0597741176753,
            "responseTime": 1642652194834,
            "catchQuestion": "How many <b class=\"r\">red<\/b> marbles did your opponent report drawing? ",
            "catchKey": -1,
            "catchResponse": -1,
            "catchTime": 1642652069378,
            "trialTime": 0
        },
        {
            "exptPart": "trial",
            "trialNumber": 5,
            "roleCurrent": "receiver",
            "marblesSampled": 100,
            "probRed": 0.5,
            "lambda": 5,
            "drawnRed": 25,
            "reportedRed": 20,
            "inferredRed": 24,
            "playerTrialScore": -1,
            "oppTrialScore": 1,
            "playerTotalScore": -61,
            "oppTotalScore": 58,
            "waitTime": 5219.0339892825305,
            "responseTime": 1642652221453,
            "catchQuestion": "How many <b class=\"r\">red<\/b> marbles did your opponent report drawing? ",
            "catchKey": -1,
            "catchResponse": -1,
            "catchTime": 1642652221454,
            "trialTime": 0
        },
        {
            "exptPart": "trial",
            "trialNumber": 6,
            "roleCurrent": "sender",
            "marblesSampled": 100,
            "probRed": 0.5,
            "lambda": 5,
            "drawnRed": 32,
            "reportedRed": 18,
            "inferredRed": 22,
            "playerTrialScore": 10,
            "oppTrialScore": -10,
            "playerTotalScore": -51,
            "oppTotalScore": 48,
            "waitTime": 2555.493968251669,
            "responseTime": 1642652251420,
            "catchQuestion": "How many <b class=\"r\">red<\/b> marbles did your opponent report drawing? ",
            "catchKey": -1,
            "catchResponse": -1,
            "catchTime": 1642652221454,
            "trialTime": 0
        },
        {
            "exptPart": "trial",
            "trialNumber": 7,
            "roleCurrent": "receiver",
            "marblesSampled": 100,
            "probRed": 0.5,
            "lambda": 5,
            "drawnRed": 94,
            "reportedRed": 89,
            "inferredRed": 91,
            "playerTrialScore": -3,
            "oppTrialScore": 3,
            "playerTotalScore": -54,
            "oppTotalScore": 51,
            "waitTime": 6657.881416072763,
            "responseTime": 1642652273543,
            "catchQuestion": "How many <b class=\"r\">red<\/b> marbles did your opponent report drawing? ",
            "catchKey": -1,
            "catchResponse": -1,
            "catchTime": 1642652221454,
            "trialTime": 0
        },
        {
            "exptPart": "trial",
            "trialNumber": 8,
            "roleCurrent": "sender",
            "marblesSampled": 100,
            "probRed": 0.5,
            "lambda": 5,
            "drawnRed": 82,
            "reportedRed": 0,
            "inferredRed": 4,
            "playerTrialScore": 78,
            "oppTrialScore": -78,
            "playerTotalScore": 24,
            "oppTotalScore": -27,
            "waitTime": 2201.6228676658884,
            "responseTime": 1642652357215,
            "catchQuestion": "How many <b class=\"r\">red<\/b> marbles did your opponent report drawing? ",
            "catchKey": -1,
            "catchResponse": -1,
            "catchTime": 1642652221454,
            "trialTime": 0
        },
        {
            "exptPart": "trial",
            "trialNumber": 9,
            "roleCurrent": "receiver",
            "marblesSampled": 100,
            "probRed": 0.5,
            "lambda": 5,
            "drawnRed": 35,
            "reportedRed": 33,
            "inferredRed": 70,
            "playerTrialScore": -35,
            "oppTrialScore": 0,
            "playerTotalScore": -11,
            "oppTotalScore": -27,
            "waitTime": 6148.418451256228,
            "responseTime": 1642652379672,
            "catchQuestion": "How many <b class=\"r\">red<\/b> marbles did your opponent report drawing? ",
            "catchKey": -1,
            "catchResponse": -1,
            "catchTime": 1642652221454,
            "trialTime": 0
        },
        {
            "exptPart": "trial",
            "trialNumber": 10,
            "roleCurrent": "sender",
            "marblesSampled": 100,
            "probRed": 0.5,
            "lambda": 5,
            "drawnRed": 70,
            "reportedRed": 0,
            "inferredRed": 8,
            "playerTrialScore": 62,
            "oppTrialScore": -62,
            "playerTotalScore": 51,
            "oppTotalScore": -89,
            "waitTime": 2540.0804785094397,
            "responseTime": 1642652450805,
            "catchQuestion": "How many <b class=\"r\">red<\/b> marbles did your opponent report drawing? ",
            "catchKey": -1,
            "catchResponse": -1,
            "catchTime": 1642652450806,
            "trialTime": 0
        },
        {
            "exptPart": "trial",
            "trialNumber": 11,
            "roleCurrent": "receiver",
            "marblesSampled": 100,
            "probRed": 0.5,
            "lambda": 5,
            "drawnRed": 48,
            "reportedRed": 45,
            "inferredRed": 54,
            "playerTrialScore": -6,
            "oppTrialScore": 0,
            "playerTotalScore": 45,
            "oppTotalScore": -89,
            "waitTime": 5469.310305254348,
            "responseTime": 1642652471089,
            "catchQuestion": "How many <b class=\"r\">red<\/b> marbles did your opponent report drawing? ",
            "catchKey": 45,
            "catchResponse": 24,
            "catchTime": 1642652471089,
            "trialTime": 0
        },
        {
            "exptPart": "trial",
            "trialNumber": 12,
            "roleCurrent": "sender",
            "marblesSampled": 100,
            "probRed": 0.5,
            "lambda": 5,
            "drawnRed": 71,
            "reportedRed": 0,
            "inferredRed": 3,
            "playerTrialScore": 68,
            "oppTrialScore": -68,
            "playerTotalScore": 113,
            "oppTotalScore": -157,
            "waitTime": 2085.5815337470135,
            "responseTime": 1642652553316,
            "catchQuestion": "How many <b class=\"r\">red<\/b> marbles did your opponent report drawing? ",
            "catchKey": -1,
            "catchResponse": -1,
            "catchTime": 1642652471089,
            "trialTime": 0
        },
        {
            "exptPart": "trial",
            "trialNumber": 13,
            "roleCurrent": "receiver",
            "marblesSampled": 100,
            "probRed": 0.5,
            "lambda": 5,
            "drawnRed": 94,
            "reportedRed": 86,
            "inferredRed": 95,
            "playerTrialScore": -1,
            "oppTrialScore": 0,
            "playerTotalScore": 112,
            "oppTotalScore": -157,
            "waitTime": 5348.191931614409,
            "responseTime": 1642652568620,
            "catchQuestion": "How many <b class=\"r\">red<\/b> marbles did your opponent report drawing? ",
            "catchKey": -1,
            "catchResponse": -1,
            "catchTime": 1642652471089,
            "trialTime": 0
        },
        {
            "exptPart": "trial",
            "trialNumber": 14,
            "roleCurrent": "sender",
            "marblesSampled": 100,
            "probRed": 0.5,
            "lambda": 5,
            "drawnRed": 49,
            "reportedRed": 0,
            "inferredRed": 2,
            "playerTrialScore": 47,
            "oppTrialScore": -47,
            "playerTotalScore": 159,
            "oppTotalScore": -204,
            "waitTime": 2274.8946898794566,
            "responseTime": 1642652616796,
            "catchQuestion": "How many <b class=\"r\">red<\/b> marbles did your opponent report drawing? ",
            "catchKey": -1,
            "catchResponse": -1,
            "catchTime": 1642652471089,
            "trialTime": 0
        },
        {
            "exptPart": "trial",
            "trialNumber": 15,
            "roleCurrent": "receiver",
            "marblesSampled": 100,
            "probRed": 0.5,
            "lambda": 5,
            "drawnRed": 54,
            "reportedRed": 50,
            "inferredRed": 75,
            "playerTrialScore": -21,
            "oppTrialScore": 0,
            "playerTotalScore": 138,
            "oppTotalScore": -204,
            "waitTime": 5652.319470923601,
            "responseTime": 1642652630981,
            "catchQuestion": "How many <b class=\"r\">red<\/b> marbles did your opponent report drawing? ",
            "catchKey": -1,
            "catchResponse": -1,
            "catchTime": 1642652630982,
            "trialTime": 0
        },
        {
            "exptPart": "trial",
            "trialNumber": 16,
            "roleCurrent": "sender",
            "marblesSampled": 100,
            "probRed": 0.5,
            "lambda": 5,
            "drawnRed": 79,
            "reportedRed": 0,
            "inferredRed": 14,
            "playerTrialScore": 65,
            "oppTrialScore": -65,
            "playerTotalScore": 203,
            "oppTotalScore": -269,
            "waitTime": 2211.166773482689,
            "responseTime": 1642652699913,
            "catchQuestion": "How many <b class=\"r\">red<\/b> marbles did your opponent report drawing? ",
            "catchKey": -1,
            "catchResponse": -1,
            "catchTime": 1642652630982,
            "trialTime": 0
        },
        {
            "exptPart": "trial",
            "trialNumber": 17,
            "roleCurrent": "receiver",
            "marblesSampled": 100,
            "probRed": 0.5,
            "lambda": 5,
            "drawnRed": 20,
            "reportedRed": 11,
            "inferredRed": 50,
            "playerTrialScore": -30,
            "oppTrialScore": 0,
            "playerTotalScore": 173,
            "oppTotalScore": -269,
            "waitTime": 6770.352994629358,
            "responseTime": 1642652711191,
            "catchQuestion": "How many <b class=\"r\">red<\/b> marbles did your opponent report drawing? ",
            "catchKey": -1,
            "catchResponse": -1,
            "catchTime": 1642652630982,
            "trialTime": 0
        },
        {
            "exptPart": "trial",
            "trialNumber": 18,
            "roleCurrent": "sender",
            "marblesSampled": 100,
            "probRed": 0.5,
            "lambda": 5,
            "drawnRed": 66,
            "reportedRed": 0,
            "inferredRed": 6,
            "playerTrialScore": 60,
            "oppTrialScore": -60,
            "playerTotalScore": 233,
            "oppTotalScore": -329,
            "waitTime": 2416.721911725655,
            "responseTime": 1642652766030,
            "catchQuestion": "How many <b class=\"r\">red<\/b> marbles did your opponent report drawing? ",
            "catchKey": -1,
            "catchResponse": -1,
            "catchTime": 1642652630982,
            "trialTime": 0
        },
        {
            "exptPart": "trial",
            "trialNumber": 19,
            "roleCurrent": "receiver",
            "marblesSampled": 100,
            "probRed": 0.5,
            "lambda": 5,
            "drawnRed": 59,
            "reportedRed": 50,
            "inferredRed": 95,
            "playerTrialScore": -36,
            "oppTrialScore": 0,
            "playerTotalScore": 197,
            "oppTotalScore": -329,
            "waitTime": 5546.6193472619,
            "responseTime": 1642652776784,
            "catchQuestion": "How many <b class=\"r\">red<\/b> marbles did your opponent report drawing? ",
            "catchKey": -1,
            "catchResponse": -1,
            "catchTime": 1642652630982,
            "trialTime": 0
        },
        {
            "exptPart": "trial",
            "trialNumber": 20,
            "roleCurrent": "sender",
            "marblesSampled": 100,
            "probRed": 0.5,
            "lambda": 5,
            "drawnRed": 39,
            "reportedRed": 0,
            "inferredRed": 3,
            "playerTrialScore": 36,
            "oppTrialScore": -36,
            "playerTotalScore": 233,
            "oppTotalScore": -365,
            "waitTime": 2325.179290744242,
            "responseTime": 1642652811989,
            "catchQuestion": "How many <b class=\"r\">red<\/b> marbles did your opponent report drawing? ",
            "catchKey": -1,
            "catchResponse": -1,
            "catchTime": 1642652811989,
            "trialTime": 0
        },
        {
            "exptPart": "trial",
            "trialNumber": 21,
            "roleCurrent": "receiver",
            "marblesSampled": 100,
            "probRed": 0.5,
            "lambda": 5,
            "drawnRed": 55,
            "reportedRed": 53,
            "inferredRed": 75,
            "playerTrialScore": -20,
            "oppTrialScore": 0,
            "playerTotalScore": 213,
            "oppTotalScore": -365,
            "waitTime": 5996.234121558508,
            "responseTime": 1642652825430,
            "catchQuestion": "How many <b class=\"r\">red<\/b> marbles did your opponent report drawing? ",
            "catchKey": -1,
            "catchResponse": -1,
            "catchTime": 1642652811989,
            "trialTime": 0
        },
        {
            "exptPart": "trial",
            "trialNumber": 22,
            "roleCurrent": "sender",
            "marblesSampled": 100,
            "probRed": 0.5,
            "lambda": 5,
            "drawnRed": 14,
            "reportedRed": 0,
            "inferredRed": 5,
            "playerTrialScore": 9,
            "oppTrialScore": -9,
            "playerTotalScore": 222,
            "oppTotalScore": -374,
            "waitTime": 2792.334381613976,
            "responseTime": 1642652854489,
            "catchQuestion": "How many <b class=\"r\">red<\/b> marbles did your opponent report drawing? ",
            "catchKey": -1,
            "catchResponse": -1,
            "catchTime": 1642652811989,
            "trialTime": 0
        },
        {
            "exptPart": "trial",
            "trialNumber": 23,
            "roleCurrent": "receiver",
            "marblesSampled": 100,
            "probRed": 0.5,
            "lambda": 5,
            "drawnRed": 61,
            "reportedRed": 55,
            "inferredRed": 85,
            "playerTrialScore": -24,
            "oppTrialScore": 0,
            "playerTotalScore": 198,
            "oppTotalScore": -374,
            "waitTime": 5892.462237292948,
            "responseTime": 1642652868064,
            "catchQuestion": "How many <b class=\"r\">red<\/b> marbles did your opponent report drawing? ",
            "catchKey": 55,
            "catchResponse": 55,
            "catchTime": 1642652868065,
            "trialTime": 0
        },
        {
            "exptPart": "trial",
            "trialNumber": 24,
            "roleCurrent": "sender",
            "marblesSampled": 100,
            "probRed": 0.5,
            "lambda": 5,
            "drawnRed": 54,
            "reportedRed": 0,
            "inferredRed": 3,
            "playerTrialScore": 51,
            "oppTrialScore": -51,
            "playerTotalScore": 249,
            "oppTotalScore": -425,
            "waitTime": 2864.2939274283917,
            "responseTime": 1642652927874,
            "catchQuestion": "How many <b class=\"r\">red<\/b> marbles did your opponent report drawing? ",
            "catchKey": -1,
            "catchResponse": -1,
            "catchTime": 1642652868065,
            "trialTime": 0
        },
        {
            "exptPart": "trial",
            "trialNumber": 25,
            "roleCurrent": "receiver",
            "marblesSampled": 100,
            "probRed": 0.5,
            "lambda": 5,
            "drawnRed": 46,
            "reportedRed": 42,
            "inferredRed": 49,
            "playerTrialScore": -3,
            "oppTrialScore": 0,
            "playerTotalScore": 246,
            "oppTotalScore": -425,
            "waitTime": 6345.574090309428,
            "responseTime": 1642652943874,
            "catchQuestion": "How many <b class=\"r\">red<\/b> marbles did your opponent report drawing? ",
            "catchKey": -1,
            "catchResponse": -1,
            "catchTime": 1642652943874,
            "trialTime": 0
        },
        {
            "exptPart": "trial",
            "trialNumber": 26,
            "roleCurrent": "sender",
            "marblesSampled": 100,
            "probRed": 0.5,
            "lambda": 5,
            "drawnRed": 73,
            "reportedRed": 0,
            "inferredRed": 1,
            "playerTrialScore": 72,
            "oppTrialScore": -72,
            "playerTotalScore": 318,
            "oppTotalScore": -497,
            "waitTime": 2324.133068291216,
            "responseTime": 1642653002937,
            "catchQuestion": "How many <b class=\"r\">red<\/b> marbles did your opponent report drawing? ",
            "catchKey": -1,
            "catchResponse": -1,
            "catchTime": 1642652943874,
            "trialTime": 0
        },
        {
            "exptPart": "trial",
            "trialNumber": 27,
            "roleCurrent": "receiver",
            "marblesSampled": 100,
            "probRed": 0.5,
            "lambda": 5,
            "drawnRed": 34,
            "reportedRed": 30,
            "inferredRed": 80,
            "playerTrialScore": -46,
            "oppTrialScore": 0,
            "playerTotalScore": 272,
            "oppTotalScore": -497,
            "waitTime": 7372.538455345594,
            "responseTime": 1642653014281,
            "catchQuestion": "How many <b class=\"r\">red<\/b> marbles did your opponent report drawing? ",
            "catchKey": 30,
            "catchResponse": 30,
            "catchTime": 1642653014281,
            "trialTime": 0
        },
        {
            "exptPart": "trial",
            "trialNumber": 28,
            "roleCurrent": "sender",
            "marblesSampled": 100,
            "probRed": 0.5,
            "lambda": 5,
            "drawnRed": 70,
            "reportedRed": 0,
            "inferredRed": 5,
            "playerTrialScore": 65,
            "oppTrialScore": -65,
            "playerTotalScore": 337,
            "oppTotalScore": -562,
            "waitTime": 2140.454742990306,
            "responseTime": 1642653071643,
            "catchQuestion": "How many <b class=\"r\">red<\/b> marbles did your opponent report drawing? ",
            "catchKey": -1,
            "catchResponse": -1,
            "catchTime": 1642653014281,
            "trialTime": 0
        },
        {
            "exptPart": "trial",
            "trialNumber": 29,
            "roleCurrent": "receiver",
            "marblesSampled": 100,
            "probRed": 0.5,
            "lambda": 5,
            "drawnRed": 32,
            "reportedRed": 30,
            "inferredRed": 80,
            "playerTrialScore": -48,
            "oppTrialScore": 0,
            "playerTotalScore": 289,
            "oppTotalScore": -562,
            "waitTime": 7116.6658491050575,
            "responseTime": 1642653083104,
            "catchQuestion": "How many <b class=\"r\">red<\/b> marbles did your opponent report drawing? ",
            "catchKey": -1,
            "catchResponse": -1,
            "catchTime": 1642653014281,
            "trialTime": 0
        },
        {
            "exptPart": "trial",
            "trialNumber": 30,
            "roleCurrent": "sender",
            "marblesSampled": 100,
            "probRed": 0.5,
            "lambda": 5,
            "drawnRed": 42,
            "reportedRed": 0,
            "inferredRed": 2,
            "playerTrialScore": 40,
            "oppTrialScore": -40,
            "playerTotalScore": 329,
            "oppTotalScore": -602,
            "waitTime": 2172.4781053906813,
            "responseTime": 1642653116960,
            "catchQuestion": "How many <b class=\"r\">red<\/b> marbles did your opponent report drawing? ",
            "catchKey": -1,
            "catchResponse": -1,
            "catchTime": 1642653116960,
            "trialTime": 0
        },
        {
            "exptPart": "trial",
            "trialNumber": 31,
            "roleCurrent": "receiver",
            "marblesSampled": 100,
            "probRed": 0.5,
            "lambda": 5,
            "drawnRed": 50,
            "reportedRed": 46,
            "inferredRed": 96,
            "playerTrialScore": -46,
            "oppTrialScore": 0,
            "playerTotalScore": 283,
            "oppTotalScore": -602,
            "waitTime": 7172.317236860122,
            "responseTime": 1642653131938,
            "catchQuestion": "How many <b class=\"r\">red<\/b> marbles did your opponent report drawing? ",
            "catchKey": -1,
            "catchResponse": -1,
            "catchTime": 1642653116960,
            "trialTime": 0
        },
        {
            "exptPart": "trial",
            "trialNumber": 32,
            "roleCurrent": "sender",
            "marblesSampled": 100,
            "probRed": 0.5,
            "lambda": 5,
            "drawnRed": 46,
            "reportedRed": 0,
            "inferredRed": 7,
            "playerTrialScore": 39,
            "oppTrialScore": -39,
            "playerTotalScore": 322,
            "oppTotalScore": -641,
            "waitTime": 2213.9922637106565,
            "responseTime": 1642653168763,
            "catchQuestion": "How many <b class=\"r\">red<\/b> marbles did your opponent report drawing? ",
            "catchKey": -1,
            "catchResponse": -1,
            "catchTime": 1642653116960,
            "trialTime": 0
        },
        {
            "exptPart": "trial",
            "trialNumber": 33,
            "roleCurrent": "receiver",
            "marblesSampled": 100,
            "probRed": 0.5,
            "lambda": 5,
            "drawnRed": 33,
            "reportedRed": 25,
            "inferredRed": 75,
            "playerTrialScore": -42,
            "oppTrialScore": 0,
            "playerTotalScore": 280,
            "oppTotalScore": -641,
            "waitTime": 7314.033375683614,
            "responseTime": 1642653181532,
            "catchQuestion": "How many <b class=\"r\">red<\/b> marbles did your opponent report drawing? ",
            "catchKey": -1,
            "catchResponse": -1,
            "catchTime": 1642653116960,
            "trialTime": 0
        },
        {
            "exptPart": "trial",
            "trialNumber": 34,
            "roleCurrent": "sender",
            "marblesSampled": 100,
            "probRed": 0.5,
            "lambda": 5,
            "drawnRed": 75,
            "reportedRed": 0,
            "inferredRed": 4,
            "playerTrialScore": 71,
            "oppTrialScore": -71,
            "playerTotalScore": 351,
            "oppTotalScore": -712,
            "waitTime": 2630.6560490360816,
            "responseTime": 1642653237199,
            "catchQuestion": "How many <b class=\"r\">red<\/b> marbles did your opponent report drawing? ",
            "catchKey": -1,
            "catchResponse": -1,
            "catchTime": 1642653116960,
            "trialTime": 0
        },
        {
            "exptPart": "trial",
            "trialNumber": 35,
            "roleCurrent": "receiver",
            "marblesSampled": 100,
            "probRed": 0.5,
            "lambda": 5,
            "drawnRed": 69,
            "reportedRed": 64,
            "inferredRed": 96,
            "playerTrialScore": -27,
            "oppTrialScore": 0,
            "playerTotalScore": 324,
            "oppTotalScore": -712,
            "waitTime": 6800.630524020084,
            "responseTime": 1642653254246,
            "catchQuestion": "How many <b class=\"r\">red<\/b> marbles did your opponent report drawing? ",
            "catchKey": -1,
            "catchResponse": -1,
            "catchTime": 1642653254246,
            "trialTime": 0
        },
        {
            "exptPart": "trial",
            "trialNumber": 36,
            "roleCurrent": "sender",
            "marblesSampled": 100,
            "probRed": 0.5,
            "lambda": 5,
            "drawnRed": 84,
            "reportedRed": 0,
            "inferredRed": 5,
            "playerTrialScore": 79,
            "oppTrialScore": -79,
            "playerTotalScore": 403,
            "oppTotalScore": -791,
            "waitTime": 2911.0488992757128,
            "responseTime": 1642653346781,
            "catchQuestion": "How many <b class=\"r\">red<\/b> marbles did your opponent report drawing? ",
            "catchKey": -1,
            "catchResponse": -1,
            "catchTime": 1642653254246,
            "trialTime": 0
        },
        {
            "exptPart": "trial",
            "trialNumber": 37,
            "roleCurrent": "receiver",
            "marblesSampled": 100,
            "probRed": 0.5,
            "lambda": 5,
            "drawnRed": 53,
            "reportedRed": 47,
            "inferredRed": 97,
            "playerTrialScore": -44,
            "oppTrialScore": 0,
            "playerTotalScore": 359,
            "oppTotalScore": -791,
            "waitTime": 6228.053411850492,
            "responseTime": 1642653356834,
            "catchQuestion": "How many <b class=\"r\">red<\/b> marbles did your opponent report drawing? ",
            "catchKey": -1,
            "catchResponse": -1,
            "catchTime": 1642653254246,
            "trialTime": 0
        },
        {
            "exptPart": "trial",
            "trialNumber": 38,
            "roleCurrent": "sender",
            "marblesSampled": 100,
            "probRed": 0.5,
            "lambda": 5,
            "drawnRed": 66,
            "reportedRed": 0,
            "inferredRed": 3,
            "playerTrialScore": 63,
            "oppTrialScore": -63,
            "playerTotalScore": 422,
            "oppTotalScore": -854,
            "waitTime": 2460.5088289060213,
            "responseTime": 1642653441949,
            "catchQuestion": "How many <b class=\"r\">red<\/b> marbles did your opponent report drawing? ",
            "catchKey": -1,
            "catchResponse": -1,
            "catchTime": 1642653254246,
            "trialTime": 0
        },
        {
            "exptPart": "trial",
            "trialNumber": 39,
            "roleCurrent": "receiver",
            "marblesSampled": 100,
            "probRed": 0.5,
            "lambda": 5,
            "drawnRed": 52,
            "reportedRed": 49,
            "inferredRed": 78,
            "playerTrialScore": -26,
            "oppTrialScore": 0,
            "playerTotalScore": 396,
            "oppTotalScore": -854,
            "waitTime": 7045.679521220259,
            "responseTime": 1642653464123,
            "catchQuestion": "How many <b class=\"r\">red<\/b> marbles did your opponent report drawing? ",
            "catchKey": -1,
            "catchResponse": -1,
            "catchTime": 1642653254246,
            "trialTime": 0
        },
        {
            "exptPart": "trial",
            "trialNumber": 40,
            "roleCurrent": "sender",
            "marblesSampled": 100,
            "probRed": 0.5,
            "lambda": 5,
            "drawnRed": 67,
            "reportedRed": 0,
            "inferredRed": 8,
            "playerTrialScore": 59,
            "oppTrialScore": -59,
            "playerTotalScore": 455,
            "oppTotalScore": -913,
            "waitTime": 3037.2872606933265,
            "responseTime": 1642653548668,
            "catchQuestion": "How many <b class=\"r\">red<\/b> marbles did your opponent report drawing? ",
            "catchKey": -1,
            "catchResponse": -1,
            "catchTime": 1642653548668,
            "trialTime": 0
        },
        {
            "exptPart": "trial",
            "trialNumber": 41,
            "roleCurrent": "receiver",
            "marblesSampled": 100,
            "probRed": 0.5,
            "lambda": 5,
            "drawnRed": 62,
            "reportedRed": 57,
            "inferredRed": 87,
            "playerTrialScore": -25,
            "oppTrialScore": 0,
            "playerTotalScore": 430,
            "oppTotalScore": -913,
            "waitTime": 5218.771672242066,
            "responseTime": 1642653562940,
            "catchQuestion": "How many <b class=\"r\">red<\/b> marbles did your opponent report drawing? ",
            "catchKey": -1,
            "catchResponse": -1,
            "catchTime": 1642653548668,
            "trialTime": 0
        },
        {
            "exptPart": "trial",
            "trialNumber": 42,
            "roleCurrent": "sender",
            "marblesSampled": 100,
            "probRed": 0.5,
            "lambda": 5,
            "drawnRed": 49,
            "reportedRed": 0,
            "inferredRed": 6,
            "playerTrialScore": 43,
            "oppTrialScore": -43,
            "playerTotalScore": 473,
            "oppTotalScore": -956,
            "waitTime": 2269.8829548808485,
            "responseTime": 1642653615403,
            "catchQuestion": "How many <b class=\"r\">red<\/b> marbles did your opponent report drawing? ",
            "catchKey": -1,
            "catchResponse": -1,
            "catchTime": 1642653548668,
            "trialTime": 0
        },
        {
            "exptPart": "trial",
            "trialNumber": 43,
            "roleCurrent": "receiver",
            "marblesSampled": 100,
            "probRed": 0.5,
            "lambda": 5,
            "drawnRed": 13,
            "reportedRed": 7,
            "inferredRed": 50,
            "playerTrialScore": -37,
            "oppTrialScore": 0,
            "playerTotalScore": 436,
            "oppTotalScore": -956,
            "waitTime": 5357.225196617286,
            "responseTime": 1642653627498,
            "catchQuestion": "How many <b class=\"r\">red<\/b> marbles did your opponent report drawing? ",
            "catchKey": -1,
            "catchResponse": -1,
            "catchTime": 1642653548668,
            "trialTime": 0
        },
        {
            "exptPart": "trial",
            "trialNumber": 44,
            "roleCurrent": "sender",
            "marblesSampled": 100,
            "probRed": 0.5,
            "lambda": 5,
            "drawnRed": 20,
            "reportedRed": 0,
            "inferredRed": 5,
            "playerTrialScore": 15,
            "oppTrialScore": -15,
            "playerTotalScore": 451,
            "oppTotalScore": -971,
            "waitTime": 2409.2349537683913,
            "responseTime": 1642653656779,
            "catchQuestion": "How many <b class=\"r\">red<\/b> marbles did your opponent report drawing? ",
            "catchKey": -1,
            "catchResponse": -1,
            "catchTime": 1642653548668,
            "trialTime": 0
        },
        {
            "exptPart": "trial",
            "trialNumber": 45,
            "roleCurrent": "receiver",
            "marblesSampled": 100,
            "probRed": 0.5,
            "lambda": 5,
            "drawnRed": 28,
            "reportedRed": 25,
            "inferredRed": 75,
            "playerTrialScore": -47,
            "oppTrialScore": 0,
            "playerTotalScore": 404,
            "oppTotalScore": -971,
            "waitTime": 5714.8215329316845,
            "responseTime": 1642653673095,
            "catchQuestion": "How many <b class=\"r\">red<\/b> marbles did your opponent report drawing? ",
            "catchKey": -1,
            "catchResponse": -1,
            "catchTime": 1642653673095,
            "trialTime": 0
        },
        {
            "exptPart": "trial",
            "trialNumber": 46,
            "roleCurrent": "sender",
            "marblesSampled": 100,
            "probRed": 0.5,
            "lambda": 5,
            "drawnRed": 13,
            "reportedRed": 0,
            "inferredRed": 1,
            "playerTrialScore": 12,
            "oppTrialScore": -12,
            "playerTotalScore": 416,
            "oppTotalScore": -983,
            "waitTime": 3035.1844317235996,
            "responseTime": 1642653699375,
            "catchQuestion": "How many <b class=\"r\">red<\/b> marbles did your opponent report drawing? ",
            "catchKey": -1,
            "catchResponse": -1,
            "catchTime": 1642653673095,
            "trialTime": 0
        },
        {
            "exptPart": "trial",
            "trialNumber": 47,
            "roleCurrent": "receiver",
            "marblesSampled": 100,
            "probRed": 0.5,
            "lambda": 5,
            "drawnRed": 45,
            "reportedRed": 37,
            "inferredRed": 73,
            "playerTrialScore": -28,
            "oppTrialScore": 0,
            "playerTotalScore": 388,
            "oppTotalScore": -983,
            "waitTime": 6992.577860935151,
            "responseTime": 1642653712020,
            "catchQuestion": "How many <b class=\"r\">red<\/b> marbles did your opponent report drawing? ",
            "catchKey": -1,
            "catchResponse": -1,
            "catchTime": 1642653673095,
            "trialTime": 0
        },
        {
            "exptPart": "trial",
            "trialNumber": 48,
            "roleCurrent": "sender",
            "marblesSampled": 100,
            "probRed": 0.5,
            "lambda": 5,
            "drawnRed": 72,
            "reportedRed": 0,
            "inferredRed": 7,
            "playerTrialScore": 65,
            "oppTrialScore": -65,
            "playerTotalScore": 453,
            "oppTotalScore": -1048,
            "waitTime": 2358.80764048777,
            "responseTime": 1642653770070,
            "catchQuestion": "How many <b class=\"r\">red<\/b> marbles did your opponent report drawing? ",
            "catchKey": -1,
            "catchResponse": -1,
            "catchTime": 1642653673095,
            "trialTime": 0
        },
        {
            "exptPart": "trial",
            "trialNumber": 49,
            "roleCurrent": "receiver",
            "marblesSampled": 100,
            "probRed": 0.5,
            "lambda": 5,
            "drawnRed": 82,
            "reportedRed": 78,
            "inferredRed": 98,
            "playerTrialScore": -16,
            "oppTrialScore": 0,
            "playerTotalScore": 437,
            "oppTotalScore": -1048,
            "waitTime": 6502.752043020725,
            "responseTime": 1642653782791,
            "catchQuestion": "How many <b class=\"r\">red<\/b> marbles did your opponent report drawing? ",
            "catchKey": -1,
            "catchResponse": -1,
            "catchTime": 1642653673095,
            "trialTime": 0
        },
        {
            "exptPart": "trial",
            "trialNumber": 50,
            "roleCurrent": "sender",
            "marblesSampled": 100,
            "probRed": 0.5,
            "lambda": 5,
            "drawnRed": 50,
            "reportedRed": 0,
            "inferredRed": 4,
            "playerTrialScore": 46,
            "oppTrialScore": -46,
            "playerTotalScore": 483,
            "oppTotalScore": -1094,
            "waitTime": 2282.4915744492164,
            "responseTime": 1642653825347,
            "catchQuestion": "How many <b class=\"r\">red<\/b> marbles did your opponent report drawing? ",
            "catchKey": -1,
            "catchResponse": -1,
            "catchTime": 1642653825347,
            "trialTime": 0
        },
        {
            "exptPart": "trial",
            "trialNumber": 51,
            "roleCurrent": "receiver",
            "marblesSampled": 100,
            "probRed": 0.5,
            "lambda": 5,
            "drawnRed": 87,
            "reportedRed": 85,
            "inferredRed": 100,
            "playerTrialScore": -13,
            "oppTrialScore": 0,
            "playerTotalScore": 470,
            "oppTotalScore": -1094,
            "waitTime": 5389.745803711051,
            "responseTime": 1642653837726,
            "catchQuestion": "How many <b class=\"r\">red<\/b> marbles did your opponent report drawing? ",
            "catchKey": -1,
            "catchResponse": -1,
            "catchTime": 1642653825347,
            "trialTime": 0
        },
        {
            "exptPart": "trial",
            "trialNumber": 52,
            "roleCurrent": "sender",
            "marblesSampled": 100,
            "probRed": 0.5,
            "lambda": 5,
            "drawnRed": 38,
            "reportedRed": 0,
            "inferredRed": 4,
            "playerTrialScore": 34,
            "oppTrialScore": -34,
            "playerTotalScore": 504,
            "oppTotalScore": -1128,
            "waitTime": 2599.340251159704,
            "responseTime": 1642653870900,
            "catchQuestion": "How many <b class=\"r\">red<\/b> marbles did your opponent report drawing? ",
            "catchKey": -1,
            "catchResponse": -1,
            "catchTime": 1642653825347,
            "trialTime": 0
        },
        {
            "exptPart": "trial",
            "trialNumber": 53,
            "roleCurrent": "receiver",
            "marblesSampled": 100,
            "probRed": 0.5,
            "lambda": 5,
            "drawnRed": 23,
            "reportedRed": 18,
            "inferredRed": 56,
            "playerTrialScore": -33,
            "oppTrialScore": 0,
            "playerTotalScore": 471,
            "oppTotalScore": -1128,
            "waitTime": 5576.814404519734,
            "responseTime": 1642653883090,
            "catchQuestion": "How many <b class=\"r\">red<\/b> marbles did your opponent report drawing? ",
            "catchKey": 18,
            "catchResponse": 18,
            "catchTime": 1642653883090,
            "trialTime": 0
        },
        {
            "exptPart": "trial",
            "trialNumber": 54,
            "roleCurrent": "sender",
            "marblesSampled": 100,
            "probRed": 0.5,
            "lambda": 5,
            "drawnRed": 32,
            "reportedRed": 0,
            "inferredRed": 5,
            "playerTrialScore": 27,
            "oppTrialScore": -27,
            "playerTotalScore": 498,
            "oppTotalScore": -1155,
            "waitTime": 2181.8707112492293,
            "responseTime": 1642653933557,
            "catchQuestion": "How many <b class=\"r\">red<\/b> marbles did you actually draw (before any changes)? ",
            "catchKey": 32,
            "catchResponse": 43,
            "catchTime": 1642653933558,
            "trialTime": 0
        },
        {
            "exptPart": "trial",
            "trialNumber": 55,
            "roleCurrent": "receiver",
            "marblesSampled": 100,
            "probRed": 0.5,
            "lambda": 5,
            "drawnRed": 62,
            "reportedRed": 59,
            "inferredRed": 87,
            "playerTrialScore": -25,
            "oppTrialScore": 0,
            "playerTotalScore": 473,
            "oppTotalScore": -1155,
            "waitTime": 5425.737154269115,
            "responseTime": 1642653963415,
            "catchQuestion": "How many <b class=\"r\">red<\/b> marbles did you actually draw (before any changes)? ",
            "catchKey": -1,
            "catchResponse": -1,
            "catchTime": 1642653963415,
            "trialTime": 0
        },
        {
            "exptPart": "trial",
            "trialNumber": 56,
            "roleCurrent": "sender",
            "marblesSampled": 100,
            "probRed": 0.5,
            "lambda": 5,
            "drawnRed": 85,
            "reportedRed": 0,
            "inferredRed": 7,
            "playerTrialScore": 78,
            "oppTrialScore": -78,
            "playerTotalScore": 551,
            "oppTotalScore": -1233,
            "waitTime": 2416.4189660592,
            "responseTime": 1642654025368,
            "catchQuestion": "How many <b class=\"r\">red<\/b> marbles did you actually draw (before any changes)? ",
            "catchKey": -1,
            "catchResponse": -1,
            "catchTime": 1642653963415,
            "trialTime": 0
        },
        {
            "exptPart": "trial",
            "trialNumber": 57,
            "roleCurrent": "receiver",
            "marblesSampled": 100,
            "probRed": 0.5,
            "lambda": 5,
            "drawnRed": 38,
            "reportedRed": 34,
            "inferredRed": 74,
            "playerTrialScore": -36,
            "oppTrialScore": 0,
            "playerTotalScore": 515,
            "oppTotalScore": -1233,
            "waitTime": 7246.790271866644,
            "responseTime": 1642654037912,
            "catchQuestion": "How many <b class=\"r\">red<\/b> marbles did you actually draw (before any changes)? ",
            "catchKey": -1,
            "catchResponse": -1,
            "catchTime": 1642653963415,
            "trialTime": 0
        },
        {
            "exptPart": "trial",
            "trialNumber": 58,
            "roleCurrent": "sender",
            "marblesSampled": 100,
            "probRed": 0.5,
            "lambda": 5,
            "drawnRed": 56,
            "reportedRed": 0,
            "inferredRed": 7,
            "playerTrialScore": 49,
            "oppTrialScore": -49,
            "playerTotalScore": 564,
            "oppTotalScore": -1282,
            "waitTime": 2847.4754562125163,
            "responseTime": 1642654081496,
            "catchQuestion": "How many <b class=\"r\">red<\/b> marbles did you actually draw (before any changes)? ",
            "catchKey": 56,
            "catchResponse": 56,
            "catchTime": 1642654081496,
            "trialTime": 0
        },
        {
            "exptPart": "trial",
            "trialNumber": 59,
            "roleCurrent": "receiver",
            "marblesSampled": 100,
            "probRed": 0.5,
            "lambda": 5,
            "drawnRed": 42,
            "reportedRed": 36,
            "inferredRed": 76,
            "playerTrialScore": -34,
            "oppTrialScore": 0,
            "playerTotalScore": 530,
            "oppTotalScore": -1282,
            "waitTime": 5879.651804141132,
            "responseTime": 1642654096716,
            "catchQuestion": "How many <b class=\"r\">red<\/b> marbles did you actually draw (before any changes)? ",
            "catchKey": -1,
            "catchResponse": -1,
            "catchTime": 1642654081496,
            "trialTime": 0
        },
        {
            "exptPart": "trial",
            "trialNumber": 60,
            "roleCurrent": "sender",
            "marblesSampled": 100,
            "probRed": 0.5,
            "lambda": 5,
            "drawnRed": 52,
            "reportedRed": 0,
            "inferredRed": 6,
            "playerTrialScore": 46,
            "oppTrialScore": -46,
            "playerTotalScore": 576,
            "oppTotalScore": -1328,
            "waitTime": 3053.4938817236634,
            "responseTime": 1642654137864,
            "catchQuestion": "How many <b class=\"r\">red<\/b> marbles did you actually draw (before any changes)? ",
            "catchKey": 52,
            "catchResponse": 52,
            "catchTime": 1642654137864,
            "trialTime": 0
        },
        {
            "exptPart": "trial",
            "trialNumber": 61,
            "roleCurrent": "receiver",
            "marblesSampled": 100,
            "probRed": 0.5,
            "lambda": 5,
            "drawnRed": 26,
            "reportedRed": 23,
            "inferredRed": 65,
            "playerTrialScore": -39,
            "oppTrialScore": 0,
            "playerTotalScore": 537,
            "oppTotalScore": -1328,
            "waitTime": 5280.679581303662,
            "responseTime": 1642654152777,
            "catchQuestion": "How many <b class=\"r\">red<\/b> marbles did you actually draw (before any changes)? ",
            "catchKey": -1,
            "catchResponse": -1,
            "catchTime": 1642654137864,
            "trialTime": 0
        },
        {
            "exptPart": "trial",
            "trialNumber": 62,
            "roleCurrent": "sender",
            "marblesSampled": 100,
            "probRed": 0.5,
            "lambda": 5,
            "drawnRed": 20,
            "reportedRed": 0,
            "inferredRed": 4,
            "playerTrialScore": 16,
            "oppTrialScore": -16,
            "playerTotalScore": 553,
            "oppTotalScore": -1344,
            "waitTime": 2337.8137402347807,
            "responseTime": 1642654176435,
            "catchQuestion": "How many <b class=\"r\">red<\/b> marbles did you actually draw (before any changes)? ",
            "catchKey": -1,
            "catchResponse": -1,
            "catchTime": 1642654137864,
            "trialTime": 0
        },
        {
            "exptPart": "trial",
            "trialNumber": 63,
            "roleCurrent": "receiver",
            "marblesSampled": 100,
            "probRed": 0.5,
            "lambda": 5,
            "drawnRed": 83,
            "reportedRed": 79,
            "inferredRed": 94,
            "playerTrialScore": -11,
            "oppTrialScore": 0,
            "playerTotalScore": 542,
            "oppTotalScore": -1344,
            "waitTime": 5477.599095847907,
            "responseTime": 1642654187703,
            "catchQuestion": "How many <b class=\"r\">red<\/b> marbles did you actually draw (before any changes)? ",
            "catchKey": -1,
            "catchResponse": -1,
            "catchTime": 1642654137864,
            "trialTime": 0
        },
        {
            "exptPart": "trial",
            "trialNumber": 64,
            "roleCurrent": "sender",
            "marblesSampled": 100,
            "probRed": 0.5,
            "lambda": 5,
            "drawnRed": 62,
            "reportedRed": 0,
            "inferredRed": 2,
            "playerTrialScore": 60,
            "oppTrialScore": -60,
            "playerTotalScore": 602,
            "oppTotalScore": -1404,
            "waitTime": 3103.9844479062194,
            "responseTime": 1642654240291,
            "catchQuestion": "How many <b class=\"r\">red<\/b> marbles did you actually draw (before any changes)? ",
            "catchKey": -1,
            "catchResponse": -1,
            "catchTime": 1642654137864,
            "trialTime": 0
        },
        {
            "exptPart": "trial",
            "trialNumber": 65,
            "roleCurrent": "receiver",
            "marblesSampled": 100,
            "probRed": 0.5,
            "lambda": 5,
            "drawnRed": 25,
            "reportedRed": 20,
            "inferredRed": 80,
            "playerTrialScore": -55,
            "oppTrialScore": 0,
            "playerTotalScore": 547,
            "oppTotalScore": -1404,
            "waitTime": 6163.7021766567395,
            "responseTime": 1642654256939,
            "catchQuestion": "How many <b class=\"r\">red<\/b> marbles did you actually draw (before any changes)? ",
            "catchKey": -1,
            "catchResponse": -1,
            "catchTime": 1642654256939,
            "trialTime": 0
        },
        {
            "exptPart": "trial",
            "trialNumber": 66,
            "roleCurrent": "sender",
            "marblesSampled": 100,
            "probRed": 0.5,
            "lambda": 5,
            "drawnRed": 57,
            "reportedRed": 0,
            "inferredRed": 10,
            "playerTrialScore": 47,
            "oppTrialScore": -47,
            "playerTotalScore": 594,
            "oppTotalScore": -1451,
            "waitTime": 2995.3029203374676,
            "responseTime": 1642654318377,
            "catchQuestion": "How many <b class=\"r\">red<\/b> marbles did you actually draw (before any changes)? ",
            "catchKey": -1,
            "catchResponse": -1,
            "catchTime": 1642654256939,
            "trialTime": 0
        },
        {
            "exptPart": "trial",
            "trialNumber": 67,
            "roleCurrent": "receiver",
            "marblesSampled": 100,
            "probRed": 0.5,
            "lambda": 5,
            "drawnRed": 18,
            "reportedRed": 15,
            "inferredRed": 56,
            "playerTrialScore": -38,
            "oppTrialScore": 0,
            "playerTotalScore": 556,
            "oppTotalScore": -1451,
            "waitTime": 5968.409373471273,
            "responseTime": 1642654333154,
            "catchQuestion": "How many <b class=\"r\">red<\/b> marbles did you actually draw (before any changes)? ",
            "catchKey": -1,
            "catchResponse": -1,
            "catchTime": 1642654256939,
            "trialTime": 0
        },
        {
            "exptPart": "trial",
            "trialNumber": 68,
            "roleCurrent": "sender",
            "marblesSampled": 100,
            "probRed": 0.5,
            "lambda": 5,
            "drawnRed": 35,
            "reportedRed": 0,
            "inferredRed": 8,
            "playerTrialScore": 27,
            "oppTrialScore": -27,
            "playerTotalScore": 583,
            "oppTotalScore": -1478,
            "waitTime": 2178.5889758782655,
            "responseTime": 1642654364530,
            "catchQuestion": "How many <b class=\"r\">red<\/b> marbles did you actually draw (before any changes)? ",
            "catchKey": -1,
            "catchResponse": -1,
            "catchTime": 1642654256939,
            "trialTime": 0
        },
        {
            "exptPart": "trial",
            "trialNumber": 69,
            "roleCurrent": "receiver",
            "marblesSampled": 100,
            "probRed": 0.5,
            "lambda": 5,
            "drawnRed": 87,
            "reportedRed": 79,
            "inferredRed": 94,
            "playerTrialScore": -7,
            "oppTrialScore": 0,
            "playerTotalScore": 576,
            "oppTotalScore": -1478,
            "waitTime": 5751.545144934096,
            "responseTime": 1642654384572,
            "catchQuestion": "How many <b class=\"r\">red<\/b> marbles did your opponent report drawing? ",
            "catchKey": 79,
            "catchResponse": 79,
            "catchTime": 1642654384573,
            "trialTime": 0
        },
        {
            "exptPart": "trial",
            "trialNumber": 70,
            "roleCurrent": "sender",
            "marblesSampled": 100,
            "probRed": 0.5,
            "lambda": 5,
            "drawnRed": 87,
            "reportedRed": 0,
            "inferredRed": 3,
            "playerTrialScore": 84,
            "oppTrialScore": -84,
            "playerTotalScore": 660,
            "oppTotalScore": -1562,
            "waitTime": 2228.841580116683,
            "responseTime": 1642654464052,
            "catchQuestion": "How many <b class=\"r\">red<\/b> marbles did your opponent report drawing? ",
            "catchKey": -1,
            "catchResponse": -1,
            "catchTime": 1642654464052,
            "trialTime": 0
        },
        {
            "exptPart": "trial",
            "trialNumber": 71,
            "roleCurrent": "receiver",
            "marblesSampled": 100,
            "probRed": 0.5,
            "lambda": 5,
            "drawnRed": 29,
            "reportedRed": 26,
            "inferredRed": 76,
            "playerTrialScore": -47,
            "oppTrialScore": 0,
            "playerTotalScore": 613,
            "oppTotalScore": -1562,
            "waitTime": 6674.002896232483,
            "responseTime": 1642654480417,
            "catchQuestion": "How many <b class=\"r\">red<\/b> marbles did your opponent report drawing? ",
            "catchKey": -1,
            "catchResponse": -1,
            "catchTime": 1642654464052,
            "trialTime": 0
        },
        {
            "exptPart": "trial",
            "trialNumber": 72,
            "roleCurrent": "sender",
            "marblesSampled": 100,
            "probRed": 0.5,
            "lambda": 5,
            "drawnRed": 74,
            "reportedRed": 0,
            "inferredRed": 7,
            "playerTrialScore": 67,
            "oppTrialScore": -67,
            "playerTotalScore": 680,
            "oppTotalScore": -1629,
            "waitTime": 2255.6880803261565,
            "responseTime": 1642654539986,
            "catchQuestion": "How many <b class=\"r\">red<\/b> marbles did your opponent report drawing? ",
            "catchKey": -1,
            "catchResponse": -1,
            "catchTime": 1642654464052,
            "trialTime": 0
        },
        {
            "exptPart": "trial",
            "trialNumber": 73,
            "roleCurrent": "receiver",
            "marblesSampled": 100,
            "probRed": 0.5,
            "lambda": 5,
            "drawnRed": 42,
            "reportedRed": 37,
            "inferredRed": 73,
            "playerTrialScore": -31,
            "oppTrialScore": 0,
            "playerTotalScore": 649,
            "oppTotalScore": -1629,
            "waitTime": 6782.161321311463,
            "responseTime": 1642654553140,
            "catchQuestion": "How many <b class=\"r\">red<\/b> marbles did your opponent report drawing? ",
            "catchKey": -1,
            "catchResponse": -1,
            "catchTime": 1642654464052,
            "trialTime": 0
        },
        {
            "exptPart": "trial",
            "trialNumber": 74,
            "roleCurrent": "sender",
            "marblesSampled": 100,
            "probRed": 0.5,
            "lambda": 5,
            "drawnRed": 53,
            "reportedRed": 0,
            "inferredRed": 5,
            "playerTrialScore": 48,
            "oppTrialScore": -48,
            "playerTotalScore": 697,
            "oppTotalScore": -1677,
            "waitTime": 2967.0748443749617,
            "responseTime": 1642654612765,
            "catchQuestion": "How many <b class=\"r\">red<\/b> marbles did your opponent report drawing? ",
            "catchKey": -1,
            "catchResponse": -1,
            "catchTime": 1642654464052,
            "trialTime": 0
        },
        {
            "exptPart": "trial",
            "trialNumber": 75,
            "roleCurrent": "receiver",
            "marblesSampled": 100,
            "probRed": 0.5,
            "lambda": 5,
            "drawnRed": 75,
            "reportedRed": 70,
            "inferredRed": 90,
            "playerTrialScore": -15,
            "oppTrialScore": 0,
            "playerTotalScore": 682,
            "oppTotalScore": -1677,
            "waitTime": 5274.6831887077005,
            "responseTime": 1642654631379,
            "catchQuestion": "How many <b class=\"r\">red<\/b> marbles did your opponent report drawing? ",
            "catchKey": -1,
            "catchResponse": -1,
            "catchTime": 1642654631379,
            "trialTime": 0
        },
        {
            "exptPart": "trial",
            "trialNumber": 76,
            "roleCurrent": "sender",
            "marblesSampled": 100,
            "probRed": 0.5,
            "lambda": 5,
            "drawnRed": 64,
            "reportedRed": 0,
            "inferredRed": 5,
            "playerTrialScore": 59,
            "oppTrialScore": -59,
            "playerTotalScore": 741,
            "oppTotalScore": -1736,
            "waitTime": 2390.2413494512093,
            "responseTime": 1642654689551,
            "catchQuestion": "How many <b class=\"r\">red<\/b> marbles did your opponent report drawing? ",
            "catchKey": -1,
            "catchResponse": -1,
            "catchTime": 1642654631379,
            "trialTime": 0
        },
        {
            "exptPart": "trial",
            "trialNumber": 77,
            "roleCurrent": "receiver",
            "marblesSampled": 100,
            "probRed": 0.5,
            "lambda": 5,
            "drawnRed": 47,
            "reportedRed": 43,
            "inferredRed": 84,
            "playerTrialScore": -37,
            "oppTrialScore": 0,
            "playerTotalScore": 704,
            "oppTotalScore": -1736,
            "waitTime": 5243.253533895364,
            "responseTime": 1642654700363,
            "catchQuestion": "How many <b class=\"r\">red<\/b> marbles did your opponent report drawing? ",
            "catchKey": -1,
            "catchResponse": -1,
            "catchTime": 1642654631379,
            "trialTime": 0
        },
        {
            "exptPart": "trial",
            "trialNumber": 78,
            "roleCurrent": "sender",
            "marblesSampled": 100,
            "probRed": 0.5,
            "lambda": 5,
            "drawnRed": 73,
            "reportedRed": 0,
            "inferredRed": 4,
            "playerTrialScore": 69,
            "oppTrialScore": -69,
            "playerTotalScore": 773,
            "oppTotalScore": -1805,
            "waitTime": 3204.106909396657,
            "responseTime": 1642654755233,
            "catchQuestion": "How many <b class=\"r\">red<\/b> marbles did your opponent report drawing? ",
            "catchKey": -1,
            "catchResponse": -1,
            "catchTime": 1642654631379,
            "trialTime": 0
        },
        {
            "exptPart": "trial",
            "trialNumber": 79,
            "roleCurrent": "receiver",
            "marblesSampled": 100,
            "probRed": 0.5,
            "lambda": 5,
            "drawnRed": 61,
            "reportedRed": 57,
            "inferredRed": 79,
            "playerTrialScore": -18,
            "oppTrialScore": 0,
            "playerTotalScore": 755,
            "oppTotalScore": -1805,
            "waitTime": 5706.386238629704,
            "responseTime": 1642654766344,
            "catchQuestion": "How many <b class=\"r\">red<\/b> marbles did your opponent report drawing? ",
            "catchKey": -1,
            "catchResponse": -1,
            "catchTime": 1642654631379,
            "trialTime": 0
        },
        {
            "exptPart": "trial",
            "trialNumber": 80,
            "roleCurrent": "sender",
            "marblesSampled": 100,
            "probRed": 0.5,
            "lambda": 5,
            "drawnRed": 52,
            "reportedRed": 0,
            "inferredRed": 9,
            "playerTrialScore": 43,
            "oppTrialScore": -43,
            "playerTotalScore": 798,
            "oppTotalScore": -1848,
            "waitTime": 2596.93211855779,
            "responseTime": 1642654811112,
            "catchQuestion": "How many <b class=\"r\">red<\/b> marbles did your opponent report drawing? ",
            "catchKey": -1,
            "catchResponse": -1,
            "catchTime": 1642654811113,
            "trialTime": 0
        },
        {
            "exptPart": "trial",
            "trialNumber": 81,
            "roleCurrent": "receiver",
            "marblesSampled": 100,
            "probRed": 0.5,
            "lambda": 5,
            "drawnRed": 8,
            "reportedRed": 1,
            "inferredRed": 54,
            "playerTrialScore": -46,
            "oppTrialScore": 0,
            "playerTotalScore": 752,
            "oppTotalScore": -1848,
            "waitTime": 5858.064692225487,
            "responseTime": 1642654823443,
            "catchQuestion": "How many <b class=\"r\">red<\/b> marbles did your opponent report drawing? ",
            "catchKey": -1,
            "catchResponse": -1,
            "catchTime": 1642654811113,
            "trialTime": 0
        },
        {
            "exptPart": "trial",
            "trialNumber": 82,
            "roleCurrent": "sender",
            "marblesSampled": 100,
            "probRed": 0.5,
            "lambda": 5,
            "drawnRed": 86,
            "reportedRed": 0,
            "inferredRed": 4,
            "playerTrialScore": 82,
            "oppTrialScore": -82,
            "playerTotalScore": 834,
            "oppTotalScore": -1930,
            "waitTime": 2193.4064311502334,
            "responseTime": 1642654884344,
            "catchQuestion": "How many <b class=\"r\">red<\/b> marbles did you actually draw (before any changes)? ",
            "catchKey": 86,
            "catchResponse": 86,
            "catchTime": 1642654884344,
            "trialTime": 0
        },
        {
            "exptPart": "trial",
            "trialNumber": 83,
            "roleCurrent": "receiver",
            "marblesSampled": 100,
            "probRed": 0.5,
            "lambda": 5,
            "drawnRed": 53,
            "reportedRed": 48,
            "inferredRed": 78,
            "playerTrialScore": -25,
            "oppTrialScore": 0,
            "playerTotalScore": 809,
            "oppTotalScore": -1930,
            "waitTime": 6877.522167229397,
            "responseTime": 1642654899533,
            "catchQuestion": "How many <b class=\"r\">red<\/b> marbles did you actually draw (before any changes)? ",
            "catchKey": -1,
            "catchResponse": -1,
            "catchTime": 1642654884344,
            "trialTime": 0
        },
        {
            "exptPart": "trial",
            "trialNumber": 84,
            "roleCurrent": "sender",
            "marblesSampled": 100,
            "probRed": 0.5,
            "lambda": 5,
            "drawnRed": 17,
            "reportedRed": 0,
            "inferredRed": 2,
            "playerTrialScore": 15,
            "oppTrialScore": -15,
            "playerTotalScore": 824,
            "oppTotalScore": -1945,
            "waitTime": 2789.8690269942476,
            "responseTime": 1642654921792,
            "catchQuestion": "How many <b class=\"r\">red<\/b> marbles did you actually draw (before any changes)? ",
            "catchKey": -1,
            "catchResponse": -1,
            "catchTime": 1642654884344,
            "trialTime": 0
        },
        {
            "exptPart": "trial",
            "trialNumber": 85,
            "roleCurrent": "receiver",
            "marblesSampled": 100,
            "probRed": 0.5,
            "lambda": 5,
            "drawnRed": 32,
            "reportedRed": 22,
            "inferredRed": 88,
            "playerTrialScore": -56,
            "oppTrialScore": 0,
            "playerTotalScore": 768,
            "oppTotalScore": -1945,
            "waitTime": 6095.144409570393,
            "responseTime": 1642654933169,
            "catchQuestion": "How many <b class=\"r\">red<\/b> marbles did your opponent report drawing? ",
            "catchKey": 22,
            "catchResponse": 22,
            "catchTime": 1642654933169,
            "trialTime": 0
        },
        {
            "exptPart": "trial",
            "trialNumber": 86,
            "roleCurrent": "sender",
            "marblesSampled": 100,
            "probRed": 0.5,
            "lambda": 5,
            "drawnRed": 82,
            "reportedRed": 0,
            "inferredRed": 11,
            "playerTrialScore": 71,
            "oppTrialScore": -71,
            "playerTotalScore": 839,
            "oppTotalScore": -2016,
            "waitTime": 2751.211706670848,
            "responseTime": 1642655075249,
            "catchQuestion": "How many <b class=\"r\">red<\/b> marbles did your opponent report drawing? ",
            "catchKey": -1,
            "catchResponse": -1,
            "catchTime": 1642654933169,
            "trialTime": 0
        },
        {
            "exptPart": "trial",
            "trialNumber": 87,
            "roleCurrent": "receiver",
            "marblesSampled": 100,
            "probRed": 0.5,
            "lambda": 5,
            "drawnRed": 24,
            "reportedRed": 13,
            "inferredRed": 63,
            "playerTrialScore": -39,
            "oppTrialScore": 0,
            "playerTotalScore": 800,
            "oppTotalScore": -2016,
            "waitTime": 5712.899898091654,
            "responseTime": 1642655087497,
            "catchQuestion": "How many <b class=\"r\">red<\/b> marbles did your opponent report drawing? ",
            "catchKey": -1,
            "catchResponse": -1,
            "catchTime": 1642654933169,
            "trialTime": 0
        },
        {
            "exptPart": "trial",
            "trialNumber": 88,
            "roleCurrent": "sender",
            "marblesSampled": 100,
            "probRed": 0.5,
            "lambda": 5,
            "drawnRed": 39,
            "reportedRed": 0,
            "inferredRed": 6,
            "playerTrialScore": 33,
            "oppTrialScore": -33,
            "playerTotalScore": 833,
            "oppTotalScore": -2049,
            "waitTime": 2347.6647285686568,
            "responseTime": 1642655118983,
            "catchQuestion": "How many <b class=\"r\">red<\/b> marbles did your opponent report drawing? ",
            "catchKey": -1,
            "catchResponse": -1,
            "catchTime": 1642654933169,
            "trialTime": 0
        },
        {
            "exptPart": "trial",
            "trialNumber": 89,
            "roleCurrent": "receiver",
            "marblesSampled": 100,
            "probRed": 0.5,
            "lambda": 5,
            "drawnRed": 43,
            "reportedRed": 37,
            "inferredRed": 73,
            "playerTrialScore": -30,
            "oppTrialScore": 0,
            "playerTotalScore": 803,
            "oppTotalScore": -2049,
            "waitTime": 6664.862446418161,
            "responseTime": 1642655133009,
            "catchQuestion": "How many <b class=\"r\">red<\/b> marbles did your opponent report drawing? ",
            "catchKey": -1,
            "catchResponse": -1,
            "catchTime": 1642654933169,
            "trialTime": 0
        },
        {
            "exptPart": "trial",
            "trialNumber": 90,
            "roleCurrent": "sender",
            "marblesSampled": 100,
            "probRed": 0.5,
            "lambda": 5,
            "drawnRed": 36,
            "reportedRed": 0,
            "inferredRed": 3,
            "playerTrialScore": 33,
            "oppTrialScore": -33,
            "playerTotalScore": 836,
            "oppTotalScore": -2082,
            "waitTime": 2950.9778565202614,
            "responseTime": 1642655168476,
            "catchQuestion": "How many <b class=\"r\">red<\/b> marbles did your opponent report drawing? ",
            "catchKey": -1,
            "catchResponse": -1,
            "catchTime": 1642655168477,
            "trialTime": 0
        },
        {
            "exptPart": "trial",
            "trialNumber": 91,
            "roleCurrent": "receiver",
            "marblesSampled": 100,
            "probRed": 0.5,
            "lambda": 5,
            "drawnRed": 25,
            "reportedRed": 17,
            "inferredRed": 71,
            "playerTrialScore": -46,
            "oppTrialScore": 0,
            "playerTotalScore": 790,
            "oppTotalScore": -2082,
            "waitTime": 5397.531927107564,
            "responseTime": 1642655179041,
            "catchQuestion": "How many <b class=\"r\">red<\/b> marbles did your opponent report drawing? ",
            "catchKey": -1,
            "catchResponse": -1,
            "catchTime": 1642655168477,
            "trialTime": 0
        },
        {
            "exptPart": "trial",
            "trialNumber": 92,
            "roleCurrent": "sender",
            "marblesSampled": 100,
            "probRed": 0.5,
            "lambda": 5,
            "drawnRed": 32,
            "reportedRed": 17,
            "inferredRed": 22,
            "playerTrialScore": 10,
            "oppTrialScore": -10,
            "playerTotalScore": 800,
            "oppTotalScore": -2092,
            "waitTime": 2238.3165369351836,
            "responseTime": 1642655200369,
            "catchQuestion": "How many <b class=\"r\">red<\/b> marbles did your opponent report drawing? ",
            "catchKey": -1,
            "catchResponse": -1,
            "catchTime": 1642655168477,
            "trialTime": 0
        },
        {
            "exptPart": "trial",
            "trialNumber": 93,
            "roleCurrent": "receiver",
            "marblesSampled": 100,
            "probRed": 0.5,
            "lambda": 5,
            "drawnRed": 49,
            "reportedRed": 45,
            "inferredRed": 76,
            "playerTrialScore": -27,
            "oppTrialScore": 0,
            "playerTotalScore": 773,
            "oppTotalScore": -2092,
            "waitTime": 6926.515840747643,
            "responseTime": 1642655212060,
            "catchQuestion": "How many <b class=\"r\">red<\/b> marbles did your opponent report drawing? ",
            "catchKey": -1,
            "catchResponse": -1,
            "catchTime": 1642655168477,
            "trialTime": 0
        },
        {
            "exptPart": "trial",
            "trialNumber": 94,
            "roleCurrent": "sender",
            "marblesSampled": 100,
            "probRed": 0.5,
            "lambda": 5,
            "drawnRed": 61,
            "reportedRed": 17,
            "inferredRed": 19,
            "playerTrialScore": 42,
            "oppTrialScore": -42,
            "playerTotalScore": 815,
            "oppTotalScore": -2134,
            "waitTime": 3126.4575565876403,
            "responseTime": 1642655249063,
            "catchQuestion": "How many <b class=\"r\">red<\/b> marbles did your opponent report drawing? ",
            "catchKey": -1,
            "catchResponse": -1,
            "catchTime": 1642655168477,
            "trialTime": 0
        },
        {
            "exptPart": "trial",
            "trialNumber": 95,
            "roleCurrent": "receiver",
            "marblesSampled": 100,
            "probRed": 0.5,
            "lambda": 5,
            "drawnRed": 79,
            "reportedRed": 77,
            "inferredRed": 98,
            "playerTrialScore": -19,
            "oppTrialScore": 0,
            "playerTotalScore": 796,
            "oppTotalScore": -2134,
            "waitTime": 5216.327112787481,
            "responseTime": 1642655260150,
            "catchQuestion": "How many <b class=\"r\">red<\/b> marbles did your opponent report drawing? ",
            "catchKey": -1,
            "catchResponse": -1,
            "catchTime": 1642655260151,
            "trialTime": 0
        },
        {
            "exptPart": "trial",
            "trialNumber": 96,
            "roleCurrent": "sender",
            "marblesSampled": 100,
            "probRed": 0.5,
            "lambda": 5,
            "drawnRed": 44,
            "reportedRed": 17,
            "inferredRed": 18,
            "playerTrialScore": 26,
            "oppTrialScore": -26,
            "playerTotalScore": 822,
            "oppTotalScore": -2160,
            "waitTime": 3111.5190032194664,
            "responseTime": 1642655288790,
            "catchQuestion": "How many <b class=\"r\">red<\/b> marbles did your opponent report drawing? ",
            "catchKey": -1,
            "catchResponse": -1,
            "catchTime": 1642655260151,
            "trialTime": 0
        },
        {
            "exptPart": "trial",
            "trialNumber": 97,
            "roleCurrent": "receiver",
            "marblesSampled": 100,
            "probRed": 0.5,
            "lambda": 5,
            "drawnRed": 57,
            "reportedRed": 54,
            "inferredRed": 76,
            "playerTrialScore": -19,
            "oppTrialScore": 0,
            "playerTotalScore": 803,
            "oppTotalScore": -2160,
            "waitTime": 5833.413621891748,
            "responseTime": 1642655299235,
            "catchQuestion": "How many <b class=\"r\">red<\/b> marbles did your opponent report drawing? ",
            "catchKey": -1,
            "catchResponse": -1,
            "catchTime": 1642655260151,
            "trialTime": 0
        },
        {
            "exptPart": "trial",
            "trialNumber": 98,
            "roleCurrent": "sender",
            "marblesSampled": 100,
            "probRed": 0.5,
            "lambda": 5,
            "drawnRed": 48,
            "reportedRed": 0,
            "inferredRed": 2,
            "playerTrialScore": 46,
            "oppTrialScore": -46,
            "playerTotalScore": 849,
            "oppTotalScore": -2206,
            "waitTime": 2359.9121985143584,
            "responseTime": 1642655336040,
            "catchQuestion": "How many <b class=\"r\">red<\/b> marbles did your opponent report drawing? ",
            "catchKey": -1,
            "catchResponse": -1,
            "catchTime": 1642655260151,
            "trialTime": 0
        },
        {
            "exptPart": "trial",
            "trialNumber": 99,
            "roleCurrent": "receiver",
            "marblesSampled": 100,
            "probRed": 0.5,
            "lambda": 5,
            "drawnRed": 49,
            "reportedRed": 42,
            "inferredRed": 67,
            "playerTrialScore": -18,
            "oppTrialScore": 0,
            "playerTotalScore": 831,
            "oppTotalScore": -2206,
            "waitTime": 5734.385863517678,
            "responseTime": 1642655346407,
            "catchQuestion": "How many <b class=\"r\">red<\/b> marbles did your opponent report drawing? ",
            "catchKey": -1,
            "catchResponse": -1,
            "catchTime": 1642655260151,
            "trialTime": 0
        },
        {
            "exptPart": "trial",
            "trialNumber": 100,
            "roleCurrent": "sender",
            "marblesSampled": 100,
            "probRed": 0.5,
            "lambda": 5,
            "drawnRed": 38,
            "reportedRed": 0,
            "inferredRed": 4,
            "playerTrialScore": 34,
            "oppTrialScore": -34,
            "playerTotalScore": 865,
            "oppTotalScore": -2240,
            "waitTime": 2134.375199084698,
            "responseTime": 1642655376568,
            "catchQuestion": "How many <b class=\"r\">red<\/b> marbles did your opponent report drawing? ",
            "catchKey": -1,
            "catchResponse": -1,
            "catchTime": 1642655376568,
            "trialTime": 0
        }
    ]
}