{
    "client": {
        "type": "sona",
        "experiment_id": 2228,
        "credit_token": "b315147ae43241ea9c65086cb510cfb7",
        "survey_code": "27578",
        "sid": "sona-27578",
        "window": {
            "width": 1280,
            "height": 577
        },
        "screen": {
            "width": 1280,
            "height": 720
        },
        "userAgent": "Mozilla\/5.0 (Windows NT 10.0; Win64; x64) AppleWebKit\/537.36 (KHTML, like Gecko) Chrome\/93.0.4577.82 Safari\/537.36",
        "score": 0,
        "bonus": 0
    },
    "expt": {
        "saveURL": "submit.simple.php",
        "trials": 100,
        "practiceTrials": 2,
        "marblesSampled": 100,
        "probRed": 0.5,
        "lambdaAI": 5,
        "roleFirst": "sender",
        "roles": [
            "sender",
            "receiver"
        ],
        "cost": "linear",
        "goal": "under",
        "catchTrials": [
            92,
            65,
            72,
            7,
            70,
            49,
            26,
            61,
            25,
            0
        ],
        "scoreTotal": {
            "player": -277,
            "opp": -165
        },
        "sona": {
            "experiment_id": 2228,
            "credit_token": "b315147ae43241ea9c65086cb510cfb7"
        },
        "pilot": false,
        "debug": false
    },
    "trials": [
        {
            "exptPart": "practice",
            "trialNumber": 1,
            "roleCurrent": "sender",
            "marblesSampled": 100,
            "probRed": 0.5,
            "lambda": 5,
            "drawnRed": 20,
            "reportedRed": 22,
            "inferredRed": 26,
            "playerTrialScore": 0,
            "oppTrialScore": -6,
            "playerTotalScore": 0,
            "oppTotalScore": -6,
            "waitTime": 2428.2464784477615,
            "responseTime": 1642364346805,
            "catchQuestion": "How many <b class=\"r\">red<\/b> marbles did you actually draw (before any changes)? ",
            "catchKey": 20,
            "catchResponse": 20,
            "catchTime": 1642364346806,
            "trialTime": 0
        },
        {
            "exptPart": "practice",
            "trialNumber": 2,
            "roleCurrent": "receiver",
            "marblesSampled": 100,
            "probRed": 0.5,
            "lambda": 5,
            "drawnRed": 31,
            "reportedRed": 26,
            "inferredRed": 24,
            "playerTrialScore": -7,
            "oppTrialScore": 7,
            "playerTotalScore": -7,
            "oppTotalScore": 1,
            "waitTime": 5883.305354934162,
            "responseTime": 1642364401372,
            "catchQuestion": "How many <b class=\"r\">red<\/b> marbles did your opponent report drawing? ",
            "catchKey": 26,
            "catchResponse": 26,
            "catchTime": 1642364401373,
            "trialTime": 0
        },
        {
            "exptPart": "trial",
            "trialNumber": 1,
            "roleCurrent": "sender",
            "marblesSampled": 100,
            "probRed": 0.5,
            "lambda": 5,
            "drawnRed": 37,
            "reportedRed": 31,
            "inferredRed": 37,
            "playerTrialScore": 0,
            "oppTrialScore": 0,
            "playerTotalScore": 0,
            "oppTotalScore": 0,
            "waitTime": 2381.4242470105437,
            "responseTime": 1642364468081,
            "catchQuestion": "How many <b class=\"r\">red<\/b> marbles did you actually draw (before any changes)? ",
            "catchKey": 37,
            "catchResponse": 39,
            "catchTime": 1642364468081,
            "trialTime": 0
        },
        {
            "exptPart": "trial",
            "trialNumber": 2,
            "roleCurrent": "receiver",
            "marblesSampled": 100,
            "probRed": 0.5,
            "lambda": 5,
            "drawnRed": 61,
            "reportedRed": 56,
            "inferredRed": 56,
            "playerTrialScore": -5,
            "oppTrialScore": 5,
            "playerTotalScore": -5,
            "oppTotalScore": 5,
            "waitTime": 5472.282798480101,
            "responseTime": 1642364524492,
            "catchQuestion": "How many <b class=\"r\">red<\/b> marbles did you actually draw (before any changes)? ",
            "catchKey": -1,
            "catchResponse": -1,
            "catchTime": 1642364468081,
            "trialTime": 0
        },
        {
            "exptPart": "trial",
            "trialNumber": 3,
            "roleCurrent": "sender",
            "marblesSampled": 100,
            "probRed": 0.5,
            "lambda": 5,
            "drawnRed": 56,
            "reportedRed": 56,
            "inferredRed": 60,
            "playerTrialScore": 0,
            "oppTrialScore": -4,
            "playerTotalScore": -5,
            "oppTotalScore": 1,
            "waitTime": 2471.433522046407,
            "responseTime": 1642364566063,
            "catchQuestion": "How many <b class=\"r\">red<\/b> marbles did you actually draw (before any changes)? ",
            "catchKey": -1,
            "catchResponse": -1,
            "catchTime": 1642364468081,
            "trialTime": 0
        },
        {
            "exptPart": "trial",
            "trialNumber": 4,
            "roleCurrent": "receiver",
            "marblesSampled": 100,
            "probRed": 0.5,
            "lambda": 5,
            "drawnRed": 84,
            "reportedRed": 79,
            "inferredRed": 83,
            "playerTrialScore": -1,
            "oppTrialScore": 1,
            "playerTotalScore": -6,
            "oppTotalScore": 2,
            "waitTime": 5628.774083283585,
            "responseTime": 1642364588530,
            "catchQuestion": "How many <b class=\"r\">red<\/b> marbles did you actually draw (before any changes)? ",
            "catchKey": -1,
            "catchResponse": -1,
            "catchTime": 1642364468081,
            "trialTime": 0
        },
        {
            "exptPart": "trial",
            "trialNumber": 5,
            "roleCurrent": "sender",
            "marblesSampled": 100,
            "probRed": 0.5,
            "lambda": 5,
            "drawnRed": 82,
            "reportedRed": 82,
            "inferredRed": 91,
            "playerTrialScore": 0,
            "oppTrialScore": -9,
            "playerTotalScore": -6,
            "oppTotalScore": -7,
            "waitTime": 2225.8803750242514,
            "responseTime": 1642364599479,
            "catchQuestion": "How many <b class=\"r\">red<\/b> marbles did you actually draw (before any changes)? ",
            "catchKey": -1,
            "catchResponse": -1,
            "catchTime": 1642364599480,
            "trialTime": 0
        },
        {
            "exptPart": "trial",
            "trialNumber": 6,
            "roleCurrent": "receiver",
            "marblesSampled": 100,
            "probRed": 0.5,
            "lambda": 5,
            "drawnRed": 25,
            "reportedRed": 20,
            "inferredRed": 27,
            "playerTrialScore": -2,
            "oppTrialScore": 0,
            "playerTotalScore": -8,
            "oppTotalScore": -7,
            "waitTime": 6115.951432181585,
            "responseTime": 1642364622734,
            "catchQuestion": "How many <b class=\"r\">red<\/b> marbles did you actually draw (before any changes)? ",
            "catchKey": -1,
            "catchResponse": -1,
            "catchTime": 1642364599480,
            "trialTime": 0
        },
        {
            "exptPart": "trial",
            "trialNumber": 7,
            "roleCurrent": "sender",
            "marblesSampled": 100,
            "probRed": 0.5,
            "lambda": 5,
            "drawnRed": 52,
            "reportedRed": 52,
            "inferredRed": 53,
            "playerTrialScore": 0,
            "oppTrialScore": -1,
            "playerTotalScore": -8,
            "oppTotalScore": -8,
            "waitTime": 2581.106378072851,
            "responseTime": 1642364630850,
            "catchQuestion": "How many <b class=\"r\">red<\/b> marbles did you actually draw (before any changes)? ",
            "catchKey": -1,
            "catchResponse": -1,
            "catchTime": 1642364599480,
            "trialTime": 0
        },
        {
            "exptPart": "trial",
            "trialNumber": 8,
            "roleCurrent": "receiver",
            "marblesSampled": 100,
            "probRed": 0.5,
            "lambda": 5,
            "drawnRed": 44,
            "reportedRed": 40,
            "inferredRed": 45,
            "playerTrialScore": -1,
            "oppTrialScore": 0,
            "playerTotalScore": -9,
            "oppTotalScore": -8,
            "waitTime": 6043.568380096949,
            "responseTime": 1642364640869,
            "catchQuestion": "How many <b class=\"r\">red<\/b> marbles did your opponent report drawing? ",
            "catchKey": 40,
            "catchResponse": 40,
            "catchTime": 1642364640870,
            "trialTime": 0
        },
        {
            "exptPart": "trial",
            "trialNumber": 9,
            "roleCurrent": "sender",
            "marblesSampled": 100,
            "probRed": 0.5,
            "lambda": 5,
            "drawnRed": 83,
            "reportedRed": 83,
            "inferredRed": 86,
            "playerTrialScore": 0,
            "oppTrialScore": -3,
            "playerTotalScore": -9,
            "oppTotalScore": -11,
            "waitTime": 2224.569778430612,
            "responseTime": 1642364663645,
            "catchQuestion": "How many <b class=\"r\">red<\/b> marbles did your opponent report drawing? ",
            "catchKey": -1,
            "catchResponse": -1,
            "catchTime": 1642364640870,
            "trialTime": 0
        },
        {
            "exptPart": "trial",
            "trialNumber": 10,
            "roleCurrent": "receiver",
            "marblesSampled": 100,
            "probRed": 0.5,
            "lambda": 5,
            "drawnRed": 42,
            "reportedRed": 38,
            "inferredRed": 43,
            "playerTrialScore": -1,
            "oppTrialScore": 0,
            "playerTotalScore": -10,
            "oppTotalScore": -11,
            "waitTime": 6293.63281386876,
            "responseTime": 1642364673991,
            "catchQuestion": "How many <b class=\"r\">red<\/b> marbles did your opponent report drawing? ",
            "catchKey": -1,
            "catchResponse": -1,
            "catchTime": 1642364673992,
            "trialTime": 0
        },
        {
            "exptPart": "trial",
            "trialNumber": 11,
            "roleCurrent": "sender",
            "marblesSampled": 100,
            "probRed": 0.5,
            "lambda": 5,
            "drawnRed": 29,
            "reportedRed": 29,
            "inferredRed": 31,
            "playerTrialScore": 0,
            "oppTrialScore": -2,
            "playerTotalScore": -10,
            "oppTotalScore": -13,
            "waitTime": 2202.8344367353734,
            "responseTime": 1642364683320,
            "catchQuestion": "How many <b class=\"r\">red<\/b> marbles did your opponent report drawing? ",
            "catchKey": -1,
            "catchResponse": -1,
            "catchTime": 1642364673992,
            "trialTime": 0
        },
        {
            "exptPart": "trial",
            "trialNumber": 12,
            "roleCurrent": "receiver",
            "marblesSampled": 100,
            "probRed": 0.5,
            "lambda": 5,
            "drawnRed": 58,
            "reportedRed": 56,
            "inferredRed": 66,
            "playerTrialScore": -8,
            "oppTrialScore": 0,
            "playerTotalScore": -18,
            "oppTotalScore": -13,
            "waitTime": 7365.2074921274425,
            "responseTime": 1642364700016,
            "catchQuestion": "How many <b class=\"r\">red<\/b> marbles did your opponent report drawing? ",
            "catchKey": -1,
            "catchResponse": -1,
            "catchTime": 1642364673992,
            "trialTime": 0
        },
        {
            "exptPart": "trial",
            "trialNumber": 13,
            "roleCurrent": "sender",
            "marblesSampled": 100,
            "probRed": 0.5,
            "lambda": 5,
            "drawnRed": 51,
            "reportedRed": 51,
            "inferredRed": 58,
            "playerTrialScore": 0,
            "oppTrialScore": -7,
            "playerTotalScore": -18,
            "oppTotalScore": -20,
            "waitTime": 2885.5387650010553,
            "responseTime": 1642364709069,
            "catchQuestion": "How many <b class=\"r\">red<\/b> marbles did your opponent report drawing? ",
            "catchKey": -1,
            "catchResponse": -1,
            "catchTime": 1642364673992,
            "trialTime": 0
        },
        {
            "exptPart": "trial",
            "trialNumber": 14,
            "roleCurrent": "receiver",
            "marblesSampled": 100,
            "probRed": 0.5,
            "lambda": 5,
            "drawnRed": 44,
            "reportedRed": 42,
            "inferredRed": 51,
            "playerTrialScore": -7,
            "oppTrialScore": 0,
            "playerTotalScore": -25,
            "oppTotalScore": -20,
            "waitTime": 7136.797859418486,
            "responseTime": 1642364724816,
            "catchQuestion": "How many <b class=\"r\">red<\/b> marbles did your opponent report drawing? ",
            "catchKey": -1,
            "catchResponse": -1,
            "catchTime": 1642364673992,
            "trialTime": 0
        },
        {
            "exptPart": "trial",
            "trialNumber": 15,
            "roleCurrent": "sender",
            "marblesSampled": 100,
            "probRed": 0.5,
            "lambda": 5,
            "drawnRed": 79,
            "reportedRed": 79,
            "inferredRed": 83,
            "playerTrialScore": 0,
            "oppTrialScore": -4,
            "playerTotalScore": -25,
            "oppTotalScore": -24,
            "waitTime": 2088.521585126152,
            "responseTime": 1642364732364,
            "catchQuestion": "How many <b class=\"r\">red<\/b> marbles did your opponent report drawing? ",
            "catchKey": -1,
            "catchResponse": -1,
            "catchTime": 1642364732364,
            "trialTime": 0
        },
        {
            "exptPart": "trial",
            "trialNumber": 16,
            "roleCurrent": "receiver",
            "marblesSampled": 100,
            "probRed": 0.5,
            "lambda": 5,
            "drawnRed": 75,
            "reportedRed": 71,
            "inferredRed": 75,
            "playerTrialScore": 0,
            "oppTrialScore": 0,
            "playerTotalScore": -25,
            "oppTotalScore": -24,
            "waitTime": 5786.483746291713,
            "responseTime": 1642364754957,
            "catchQuestion": "How many <b class=\"r\">red<\/b> marbles did your opponent report drawing? ",
            "catchKey": -1,
            "catchResponse": -1,
            "catchTime": 1642364732364,
            "trialTime": 0
        },
        {
            "exptPart": "trial",
            "trialNumber": 17,
            "roleCurrent": "sender",
            "marblesSampled": 100,
            "probRed": 0.5,
            "lambda": 5,
            "drawnRed": 74,
            "reportedRed": 74,
            "inferredRed": 83,
            "playerTrialScore": 0,
            "oppTrialScore": -9,
            "playerTotalScore": -25,
            "oppTotalScore": -33,
            "waitTime": 2263.491814164904,
            "responseTime": 1642364761944,
            "catchQuestion": "How many <b class=\"r\">red<\/b> marbles did your opponent report drawing? ",
            "catchKey": -1,
            "catchResponse": -1,
            "catchTime": 1642364732364,
            "trialTime": 0
        },
        {
            "exptPart": "trial",
            "trialNumber": 18,
            "roleCurrent": "receiver",
            "marblesSampled": 100,
            "probRed": 0.5,
            "lambda": 5,
            "drawnRed": 48,
            "reportedRed": 41,
            "inferredRed": 41,
            "playerTrialScore": -7,
            "oppTrialScore": 7,
            "playerTotalScore": -32,
            "oppTotalScore": -26,
            "waitTime": 6851.413254742363,
            "responseTime": 1642364776961,
            "catchQuestion": "How many <b class=\"r\">red<\/b> marbles did your opponent report drawing? ",
            "catchKey": -1,
            "catchResponse": -1,
            "catchTime": 1642364732364,
            "trialTime": 0
        },
        {
            "exptPart": "trial",
            "trialNumber": 19,
            "roleCurrent": "sender",
            "marblesSampled": 100,
            "probRed": 0.5,
            "lambda": 5,
            "drawnRed": 48,
            "reportedRed": 48,
            "inferredRed": 52,
            "playerTrialScore": 0,
            "oppTrialScore": -4,
            "playerTotalScore": -32,
            "oppTotalScore": -30,
            "waitTime": 3170.344936956136,
            "responseTime": 1642364792936,
            "catchQuestion": "How many <b class=\"r\">red<\/b> marbles did your opponent report drawing? ",
            "catchKey": -1,
            "catchResponse": -1,
            "catchTime": 1642364732364,
            "trialTime": 0
        },
        {
            "exptPart": "trial",
            "trialNumber": 20,
            "roleCurrent": "receiver",
            "marblesSampled": 100,
            "probRed": 0.5,
            "lambda": 5,
            "drawnRed": 82,
            "reportedRed": 74,
            "inferredRed": 74,
            "playerTrialScore": -8,
            "oppTrialScore": 8,
            "playerTotalScore": -40,
            "oppTotalScore": -22,
            "waitTime": 5199.818058452136,
            "responseTime": 1642364803364,
            "catchQuestion": "How many <b class=\"r\">red<\/b> marbles did your opponent report drawing? ",
            "catchKey": -1,
            "catchResponse": -1,
            "catchTime": 1642364803364,
            "trialTime": 0
        },
        {
            "exptPart": "trial",
            "trialNumber": 21,
            "roleCurrent": "sender",
            "marblesSampled": 100,
            "probRed": 0.5,
            "lambda": 5,
            "drawnRed": 38,
            "reportedRed": 38,
            "inferredRed": 43,
            "playerTrialScore": 0,
            "oppTrialScore": -5,
            "playerTotalScore": -40,
            "oppTotalScore": -27,
            "waitTime": 2162.208188155737,
            "responseTime": 1642364823085,
            "catchQuestion": "How many <b class=\"r\">red<\/b> marbles did your opponent report drawing? ",
            "catchKey": -1,
            "catchResponse": -1,
            "catchTime": 1642364803364,
            "trialTime": 0
        },
        {
            "exptPart": "trial",
            "trialNumber": 22,
            "roleCurrent": "receiver",
            "marblesSampled": 100,
            "probRed": 0.5,
            "lambda": 5,
            "drawnRed": 22,
            "reportedRed": 13,
            "inferredRed": 20,
            "playerTrialScore": -2,
            "oppTrialScore": 2,
            "playerTotalScore": -42,
            "oppTotalScore": -25,
            "waitTime": 5373.7789375232005,
            "responseTime": 1642364832662,
            "catchQuestion": "How many <b class=\"r\">red<\/b> marbles did your opponent report drawing? ",
            "catchKey": -1,
            "catchResponse": -1,
            "catchTime": 1642364803364,
            "trialTime": 0
        },
        {
            "exptPart": "trial",
            "trialNumber": 23,
            "roleCurrent": "sender",
            "marblesSampled": 100,
            "probRed": 0.5,
            "lambda": 5,
            "drawnRed": 77,
            "reportedRed": 77,
            "inferredRed": 83,
            "playerTrialScore": 0,
            "oppTrialScore": -6,
            "playerTotalScore": -42,
            "oppTotalScore": -31,
            "waitTime": 2182.669428546613,
            "responseTime": 1642364841789,
            "catchQuestion": "How many <b class=\"r\">red<\/b> marbles did your opponent report drawing? ",
            "catchKey": -1,
            "catchResponse": -1,
            "catchTime": 1642364803364,
            "trialTime": 0
        },
        {
            "exptPart": "trial",
            "trialNumber": 24,
            "roleCurrent": "receiver",
            "marblesSampled": 100,
            "probRed": 0.5,
            "lambda": 5,
            "drawnRed": 39,
            "reportedRed": 35,
            "inferredRed": 45,
            "playerTrialScore": -6,
            "oppTrialScore": 0,
            "playerTotalScore": -48,
            "oppTotalScore": -31,
            "waitTime": 6605.286022669226,
            "responseTime": 1642364858696,
            "catchQuestion": "How many <b class=\"r\">red<\/b> marbles did your opponent report drawing? ",
            "catchKey": -1,
            "catchResponse": -1,
            "catchTime": 1642364803364,
            "trialTime": 0
        },
        {
            "exptPart": "trial",
            "trialNumber": 25,
            "roleCurrent": "sender",
            "marblesSampled": 100,
            "probRed": 0.5,
            "lambda": 5,
            "drawnRed": 62,
            "reportedRed": 62,
            "inferredRed": 73,
            "playerTrialScore": 0,
            "oppTrialScore": -11,
            "playerTotalScore": -48,
            "oppTotalScore": -42,
            "waitTime": 2081.3522367987225,
            "responseTime": 1642364865805,
            "catchQuestion": "How many <b class=\"r\">red<\/b> marbles did your opponent report drawing? ",
            "catchKey": -1,
            "catchResponse": -1,
            "catchTime": 1642364865805,
            "trialTime": 0
        },
        {
            "exptPart": "trial",
            "trialNumber": 26,
            "roleCurrent": "receiver",
            "marblesSampled": 100,
            "probRed": 0.5,
            "lambda": 5,
            "drawnRed": 42,
            "reportedRed": 38,
            "inferredRed": 48,
            "playerTrialScore": -6,
            "oppTrialScore": 0,
            "playerTotalScore": -54,
            "oppTotalScore": -42,
            "waitTime": 7470.255002368375,
            "responseTime": 1642364890069,
            "catchQuestion": "How many <b class=\"r\">red<\/b> marbles did your opponent report drawing? ",
            "catchKey": 38,
            "catchResponse": 38,
            "catchTime": 1642364890069,
            "trialTime": 0
        },
        {
            "exptPart": "trial",
            "trialNumber": 27,
            "roleCurrent": "sender",
            "marblesSampled": 100,
            "probRed": 0.5,
            "lambda": 5,
            "drawnRed": 72,
            "reportedRed": 72,
            "inferredRed": 87,
            "playerTrialScore": 0,
            "oppTrialScore": -15,
            "playerTotalScore": -54,
            "oppTotalScore": -57,
            "waitTime": 2617.8878969946545,
            "responseTime": 1642364904965,
            "catchQuestion": "How many <b class=\"r\">red<\/b> marbles did you actually draw (before any changes)? ",
            "catchKey": 72,
            "catchResponse": 72,
            "catchTime": 1642364904965,
            "trialTime": 0
        },
        {
            "exptPart": "trial",
            "trialNumber": 28,
            "roleCurrent": "receiver",
            "marblesSampled": 100,
            "probRed": 0.5,
            "lambda": 5,
            "drawnRed": 67,
            "reportedRed": 63,
            "inferredRed": 73,
            "playerTrialScore": -6,
            "oppTrialScore": 0,
            "playerTotalScore": -60,
            "oppTotalScore": -57,
            "waitTime": 5266.532407046985,
            "responseTime": 1642364921313,
            "catchQuestion": "How many <b class=\"r\">red<\/b> marbles did you actually draw (before any changes)? ",
            "catchKey": -1,
            "catchResponse": -1,
            "catchTime": 1642364904965,
            "trialTime": 0
        },
        {
            "exptPart": "trial",
            "trialNumber": 29,
            "roleCurrent": "sender",
            "marblesSampled": 100,
            "probRed": 0.5,
            "lambda": 5,
            "drawnRed": 51,
            "reportedRed": 51,
            "inferredRed": 53,
            "playerTrialScore": 0,
            "oppTrialScore": -2,
            "playerTotalScore": -60,
            "oppTotalScore": -59,
            "waitTime": 2626.914961414688,
            "responseTime": 1642364935524,
            "catchQuestion": "How many <b class=\"r\">red<\/b> marbles did you actually draw (before any changes)? ",
            "catchKey": -1,
            "catchResponse": -1,
            "catchTime": 1642364904965,
            "trialTime": 0
        },
        {
            "exptPart": "trial",
            "trialNumber": 30,
            "roleCurrent": "receiver",
            "marblesSampled": 100,
            "probRed": 0.5,
            "lambda": 5,
            "drawnRed": 70,
            "reportedRed": 66,
            "inferredRed": 78,
            "playerTrialScore": -8,
            "oppTrialScore": 0,
            "playerTotalScore": -68,
            "oppTotalScore": -59,
            "waitTime": 7433.650086984148,
            "responseTime": 1642364948066,
            "catchQuestion": "How many <b class=\"r\">red<\/b> marbles did you actually draw (before any changes)? ",
            "catchKey": -1,
            "catchResponse": -1,
            "catchTime": 1642364948066,
            "trialTime": 0
        },
        {
            "exptPart": "trial",
            "trialNumber": 31,
            "roleCurrent": "sender",
            "marblesSampled": 100,
            "probRed": 0.5,
            "lambda": 5,
            "drawnRed": 35,
            "reportedRed": 35,
            "inferredRed": 43,
            "playerTrialScore": 0,
            "oppTrialScore": -8,
            "playerTotalScore": -68,
            "oppTotalScore": -67,
            "waitTime": 3048.526281159519,
            "responseTime": 1642364959704,
            "catchQuestion": "How many <b class=\"r\">red<\/b> marbles did you actually draw (before any changes)? ",
            "catchKey": -1,
            "catchResponse": -1,
            "catchTime": 1642364948066,
            "trialTime": 0
        },
        {
            "exptPart": "trial",
            "trialNumber": 32,
            "roleCurrent": "receiver",
            "marblesSampled": 100,
            "probRed": 0.5,
            "lambda": 5,
            "drawnRed": 74,
            "reportedRed": 70,
            "inferredRed": 80,
            "playerTrialScore": -6,
            "oppTrialScore": 0,
            "playerTotalScore": -74,
            "oppTotalScore": -67,
            "waitTime": 6059.523866882539,
            "responseTime": 1642364969342,
            "catchQuestion": "How many <b class=\"r\">red<\/b> marbles did you actually draw (before any changes)? ",
            "catchKey": -1,
            "catchResponse": -1,
            "catchTime": 1642364948066,
            "trialTime": 0
        },
        {
            "exptPart": "trial",
            "trialNumber": 33,
            "roleCurrent": "sender",
            "marblesSampled": 100,
            "probRed": 0.5,
            "lambda": 5,
            "drawnRed": 80,
            "reportedRed": 80,
            "inferredRed": 91,
            "playerTrialScore": 0,
            "oppTrialScore": -11,
            "playerTotalScore": -74,
            "oppTotalScore": -78,
            "waitTime": 2116.186665521326,
            "responseTime": 1642364976166,
            "catchQuestion": "How many <b class=\"r\">red<\/b> marbles did you actually draw (before any changes)? ",
            "catchKey": -1,
            "catchResponse": -1,
            "catchTime": 1642364948066,
            "trialTime": 0
        },
        {
            "exptPart": "trial",
            "trialNumber": 34,
            "roleCurrent": "receiver",
            "marblesSampled": 100,
            "probRed": 0.5,
            "lambda": 5,
            "drawnRed": 55,
            "reportedRed": 49,
            "inferredRed": 55,
            "playerTrialScore": 0,
            "oppTrialScore": 0,
            "playerTotalScore": -74,
            "oppTotalScore": -78,
            "waitTime": 5850.707622246683,
            "responseTime": 1642364991302,
            "catchQuestion": "How many <b class=\"r\">red<\/b> marbles did you actually draw (before any changes)? ",
            "catchKey": -1,
            "catchResponse": -1,
            "catchTime": 1642364948066,
            "trialTime": 0
        },
        {
            "exptPart": "trial",
            "trialNumber": 35,
            "roleCurrent": "sender",
            "marblesSampled": 100,
            "probRed": 0.5,
            "lambda": 5,
            "drawnRed": 76,
            "reportedRed": 76,
            "inferredRed": 80,
            "playerTrialScore": 0,
            "oppTrialScore": -4,
            "playerTotalScore": -74,
            "oppTotalScore": -82,
            "waitTime": 2416.264135103461,
            "responseTime": 1642364998810,
            "catchQuestion": "How many <b class=\"r\">red<\/b> marbles did you actually draw (before any changes)? ",
            "catchKey": -1,
            "catchResponse": -1,
            "catchTime": 1642364998810,
            "trialTime": 0
        },
        {
            "exptPart": "trial",
            "trialNumber": 36,
            "roleCurrent": "receiver",
            "marblesSampled": 100,
            "probRed": 0.5,
            "lambda": 5,
            "drawnRed": 30,
            "reportedRed": 26,
            "inferredRed": 36,
            "playerTrialScore": -6,
            "oppTrialScore": 0,
            "playerTotalScore": -80,
            "oppTotalScore": -82,
            "waitTime": 5140.965007295661,
            "responseTime": 1642365027798,
            "catchQuestion": "How many <b class=\"r\">red<\/b> marbles did you actually draw (before any changes)? ",
            "catchKey": -1,
            "catchResponse": -1,
            "catchTime": 1642364998810,
            "trialTime": 0
        },
        {
            "exptPart": "trial",
            "trialNumber": 37,
            "roleCurrent": "sender",
            "marblesSampled": 100,
            "probRed": 0.5,
            "lambda": 5,
            "drawnRed": 27,
            "reportedRed": 27,
            "inferredRed": 29,
            "playerTrialScore": 0,
            "oppTrialScore": -2,
            "playerTotalScore": -80,
            "oppTotalScore": -84,
            "waitTime": 2204.4937828604175,
            "responseTime": 1642365042693,
            "catchQuestion": "How many <b class=\"r\">red<\/b> marbles did you actually draw (before any changes)? ",
            "catchKey": -1,
            "catchResponse": -1,
            "catchTime": 1642364998810,
            "trialTime": 0
        },
        {
            "exptPart": "trial",
            "trialNumber": 38,
            "roleCurrent": "receiver",
            "marblesSampled": 100,
            "probRed": 0.5,
            "lambda": 5,
            "drawnRed": 48,
            "reportedRed": 37,
            "inferredRed": 47,
            "playerTrialScore": -1,
            "oppTrialScore": 1,
            "playerTotalScore": -81,
            "oppTotalScore": -83,
            "waitTime": 5387.738076271362,
            "responseTime": 1642365059714,
            "catchQuestion": "How many <b class=\"r\">red<\/b> marbles did you actually draw (before any changes)? ",
            "catchKey": -1,
            "catchResponse": -1,
            "catchTime": 1642364998810,
            "trialTime": 0
        },
        {
            "exptPart": "trial",
            "trialNumber": 39,
            "roleCurrent": "sender",
            "marblesSampled": 100,
            "probRed": 0.5,
            "lambda": 5,
            "drawnRed": 22,
            "reportedRed": 22,
            "inferredRed": 30,
            "playerTrialScore": 0,
            "oppTrialScore": -8,
            "playerTotalScore": -81,
            "oppTotalScore": -91,
            "waitTime": 2597.175047502364,
            "responseTime": 1642365082146,
            "catchQuestion": "How many <b class=\"r\">red<\/b> marbles did you actually draw (before any changes)? ",
            "catchKey": -1,
            "catchResponse": -1,
            "catchTime": 1642364998810,
            "trialTime": 0
        },
        {
            "exptPart": "trial",
            "trialNumber": 40,
            "roleCurrent": "receiver",
            "marblesSampled": 100,
            "probRed": 0.5,
            "lambda": 5,
            "drawnRed": 56,
            "reportedRed": 53,
            "inferredRed": 63,
            "playerTrialScore": -7,
            "oppTrialScore": 0,
            "playerTotalScore": -88,
            "oppTotalScore": -91,
            "waitTime": 6425.201826380001,
            "responseTime": 1642365094195,
            "catchQuestion": "How many <b class=\"r\">red<\/b> marbles did you actually draw (before any changes)? ",
            "catchKey": -1,
            "catchResponse": -1,
            "catchTime": 1642365094196,
            "trialTime": 0
        },
        {
            "exptPart": "trial",
            "trialNumber": 41,
            "roleCurrent": "sender",
            "marblesSampled": 100,
            "probRed": 0.5,
            "lambda": 5,
            "drawnRed": 34,
            "reportedRed": 34,
            "inferredRed": 36,
            "playerTrialScore": 0,
            "oppTrialScore": -2,
            "playerTotalScore": -88,
            "oppTotalScore": -93,
            "waitTime": 3035.659474954992,
            "responseTime": 1642365119551,
            "catchQuestion": "How many <b class=\"r\">red<\/b> marbles did you actually draw (before any changes)? ",
            "catchKey": -1,
            "catchResponse": -1,
            "catchTime": 1642365094196,
            "trialTime": 0
        },
        {
            "exptPart": "trial",
            "trialNumber": 42,
            "roleCurrent": "receiver",
            "marblesSampled": 100,
            "probRed": 0.5,
            "lambda": 5,
            "drawnRed": 24,
            "reportedRed": 21,
            "inferredRed": 31,
            "playerTrialScore": -7,
            "oppTrialScore": 0,
            "playerTotalScore": -95,
            "oppTotalScore": -93,
            "waitTime": 7204.1995618273795,
            "responseTime": 1642365131318,
            "catchQuestion": "How many <b class=\"r\">red<\/b> marbles did you actually draw (before any changes)? ",
            "catchKey": -1,
            "catchResponse": -1,
            "catchTime": 1642365094196,
            "trialTime": 0
        },
        {
            "exptPart": "trial",
            "trialNumber": 43,
            "roleCurrent": "sender",
            "marblesSampled": 100,
            "probRed": 0.5,
            "lambda": 5,
            "drawnRed": 67,
            "reportedRed": 67,
            "inferredRed": 70,
            "playerTrialScore": 0,
            "oppTrialScore": -3,
            "playerTotalScore": -95,
            "oppTotalScore": -96,
            "waitTime": 2198.515768782966,
            "responseTime": 1642365138535,
            "catchQuestion": "How many <b class=\"r\">red<\/b> marbles did you actually draw (before any changes)? ",
            "catchKey": -1,
            "catchResponse": -1,
            "catchTime": 1642365094196,
            "trialTime": 0
        },
        {
            "exptPart": "trial",
            "trialNumber": 44,
            "roleCurrent": "receiver",
            "marblesSampled": 100,
            "probRed": 0.5,
            "lambda": 5,
            "drawnRed": 66,
            "reportedRed": 63,
            "inferredRed": 63,
            "playerTrialScore": -3,
            "oppTrialScore": 3,
            "playerTotalScore": -98,
            "oppTotalScore": -93,
            "waitTime": 5602.087616991086,
            "responseTime": 1642365147358,
            "catchQuestion": "How many <b class=\"r\">red<\/b> marbles did you actually draw (before any changes)? ",
            "catchKey": -1,
            "catchResponse": -1,
            "catchTime": 1642365094196,
            "trialTime": 0
        },
        {
            "exptPart": "trial",
            "trialNumber": 45,
            "roleCurrent": "sender",
            "marblesSampled": 100,
            "probRed": 0.5,
            "lambda": 5,
            "drawnRed": 37,
            "reportedRed": 37,
            "inferredRed": 44,
            "playerTrialScore": 0,
            "oppTrialScore": -7,
            "playerTotalScore": -98,
            "oppTotalScore": -100,
            "waitTime": 2834.292265890633,
            "responseTime": 1642365162057,
            "catchQuestion": "How many <b class=\"r\">red<\/b> marbles did you actually draw (before any changes)? ",
            "catchKey": -1,
            "catchResponse": -1,
            "catchTime": 1642365162057,
            "trialTime": 0
        },
        {
            "exptPart": "trial",
            "trialNumber": 46,
            "roleCurrent": "receiver",
            "marblesSampled": 100,
            "probRed": 0.5,
            "lambda": 5,
            "drawnRed": 45,
            "reportedRed": 42,
            "inferredRed": 52,
            "playerTrialScore": -7,
            "oppTrialScore": 0,
            "playerTotalScore": -105,
            "oppTotalScore": -100,
            "waitTime": 6896.866965559897,
            "responseTime": 1642365174777,
            "catchQuestion": "How many <b class=\"r\">red<\/b> marbles did you actually draw (before any changes)? ",
            "catchKey": -1,
            "catchResponse": -1,
            "catchTime": 1642365162057,
            "trialTime": 0
        },
        {
            "exptPart": "trial",
            "trialNumber": 47,
            "roleCurrent": "sender",
            "marblesSampled": 100,
            "probRed": 0.5,
            "lambda": 5,
            "drawnRed": 44,
            "reportedRed": 44,
            "inferredRed": 49,
            "playerTrialScore": 0,
            "oppTrialScore": -5,
            "playerTotalScore": -105,
            "oppTotalScore": -105,
            "waitTime": 2770.186620541005,
            "responseTime": 1642365191886,
            "catchQuestion": "How many <b class=\"r\">red<\/b> marbles did you actually draw (before any changes)? ",
            "catchKey": -1,
            "catchResponse": -1,
            "catchTime": 1642365162057,
            "trialTime": 0
        },
        {
            "exptPart": "trial",
            "trialNumber": 48,
            "roleCurrent": "receiver",
            "marblesSampled": 100,
            "probRed": 0.5,
            "lambda": 5,
            "drawnRed": 40,
            "reportedRed": 37,
            "inferredRed": 47,
            "playerTrialScore": -7,
            "oppTrialScore": 0,
            "playerTotalScore": -112,
            "oppTotalScore": -105,
            "waitTime": 6418.880334024917,
            "responseTime": 1642365202097,
            "catchQuestion": "How many <b class=\"r\">red<\/b> marbles did you actually draw (before any changes)? ",
            "catchKey": -1,
            "catchResponse": -1,
            "catchTime": 1642365162057,
            "trialTime": 0
        },
        {
            "exptPart": "trial",
            "trialNumber": 49,
            "roleCurrent": "sender",
            "marblesSampled": 100,
            "probRed": 0.5,
            "lambda": 5,
            "drawnRed": 60,
            "reportedRed": 60,
            "inferredRed": 66,
            "playerTrialScore": 0,
            "oppTrialScore": -6,
            "playerTotalScore": -112,
            "oppTotalScore": -111,
            "waitTime": 2343.6608945872304,
            "responseTime": 1642365209628,
            "catchQuestion": "How many <b class=\"r\">red<\/b> marbles did you actually draw (before any changes)? ",
            "catchKey": -1,
            "catchResponse": -1,
            "catchTime": 1642365162057,
            "trialTime": 0
        },
        {
            "exptPart": "trial",
            "trialNumber": 50,
            "roleCurrent": "receiver",
            "marblesSampled": 100,
            "probRed": 0.5,
            "lambda": 5,
            "drawnRed": 25,
            "reportedRed": 23,
            "inferredRed": 43,
            "playerTrialScore": -18,
            "oppTrialScore": 0,
            "playerTotalScore": -130,
            "oppTotalScore": -111,
            "waitTime": 6600.215663780133,
            "responseTime": 1642365221360,
            "catchQuestion": "How many <b class=\"r\">red<\/b> marbles did your opponent report drawing? ",
            "catchKey": 23,
            "catchResponse": 23,
            "catchTime": 1642365221361,
            "trialTime": 0
        },
        {
            "exptPart": "trial",
            "trialNumber": 51,
            "roleCurrent": "sender",
            "marblesSampled": 100,
            "probRed": 0.5,
            "lambda": 5,
            "drawnRed": 24,
            "reportedRed": 24,
            "inferredRed": 29,
            "playerTrialScore": 0,
            "oppTrialScore": -5,
            "playerTotalScore": -130,
            "oppTotalScore": -116,
            "waitTime": 3130.7195217093727,
            "responseTime": 1642365239749,
            "catchQuestion": "How many <b class=\"r\">red<\/b> marbles did your opponent report drawing? ",
            "catchKey": -1,
            "catchResponse": -1,
            "catchTime": 1642365221361,
            "trialTime": 0
        },
        {
            "exptPart": "trial",
            "trialNumber": 52,
            "roleCurrent": "receiver",
            "marblesSampled": 100,
            "probRed": 0.5,
            "lambda": 5,
            "drawnRed": 72,
            "reportedRed": 67,
            "inferredRed": 77,
            "playerTrialScore": -5,
            "oppTrialScore": 0,
            "playerTotalScore": -135,
            "oppTotalScore": -116,
            "waitTime": 5211.855428549006,
            "responseTime": 1642365248319,
            "catchQuestion": "How many <b class=\"r\">red<\/b> marbles did your opponent report drawing? ",
            "catchKey": -1,
            "catchResponse": -1,
            "catchTime": 1642365221361,
            "trialTime": 0
        },
        {
            "exptPart": "trial",
            "trialNumber": 53,
            "roleCurrent": "sender",
            "marblesSampled": 100,
            "probRed": 0.5,
            "lambda": 5,
            "drawnRed": 28,
            "reportedRed": 28,
            "inferredRed": 36,
            "playerTrialScore": 0,
            "oppTrialScore": -8,
            "playerTotalScore": -135,
            "oppTotalScore": -124,
            "waitTime": 2929.907550720861,
            "responseTime": 1642365255436,
            "catchQuestion": "How many <b class=\"r\">red<\/b> marbles did your opponent report drawing? ",
            "catchKey": -1,
            "catchResponse": -1,
            "catchTime": 1642365221361,
            "trialTime": 0
        },
        {
            "exptPart": "trial",
            "trialNumber": 54,
            "roleCurrent": "receiver",
            "marblesSampled": 100,
            "probRed": 0.5,
            "lambda": 5,
            "drawnRed": 21,
            "reportedRed": 20,
            "inferredRed": 30,
            "playerTrialScore": -9,
            "oppTrialScore": 0,
            "playerTotalScore": -144,
            "oppTotalScore": -124,
            "waitTime": 5455.471533625932,
            "responseTime": 1642365264844,
            "catchQuestion": "How many <b class=\"r\">red<\/b> marbles did your opponent report drawing? ",
            "catchKey": -1,
            "catchResponse": -1,
            "catchTime": 1642365221361,
            "trialTime": 0
        },
        {
            "exptPart": "trial",
            "trialNumber": 55,
            "roleCurrent": "sender",
            "marblesSampled": 100,
            "probRed": 0.5,
            "lambda": 5,
            "drawnRed": 59,
            "reportedRed": 59,
            "inferredRed": 62,
            "playerTrialScore": 0,
            "oppTrialScore": -3,
            "playerTotalScore": -144,
            "oppTotalScore": -127,
            "waitTime": 2202.804458971215,
            "responseTime": 1642365271834,
            "catchQuestion": "How many <b class=\"r\">red<\/b> marbles did your opponent report drawing? ",
            "catchKey": -1,
            "catchResponse": -1,
            "catchTime": 1642365271835,
            "trialTime": 0
        },
        {
            "exptPart": "trial",
            "trialNumber": 56,
            "roleCurrent": "receiver",
            "marblesSampled": 100,
            "probRed": 0.5,
            "lambda": 5,
            "drawnRed": 66,
            "reportedRed": 59,
            "inferredRed": 69,
            "playerTrialScore": -3,
            "oppTrialScore": 0,
            "playerTotalScore": -147,
            "oppTotalScore": -127,
            "waitTime": 5580.947459003287,
            "responseTime": 1642365283950,
            "catchQuestion": "How many <b class=\"r\">red<\/b> marbles did your opponent report drawing? ",
            "catchKey": -1,
            "catchResponse": -1,
            "catchTime": 1642365271835,
            "trialTime": 0
        },
        {
            "exptPart": "trial",
            "trialNumber": 57,
            "roleCurrent": "sender",
            "marblesSampled": 100,
            "probRed": 0.5,
            "lambda": 5,
            "drawnRed": 81,
            "reportedRed": 81,
            "inferredRed": 85,
            "playerTrialScore": 0,
            "oppTrialScore": -4,
            "playerTotalScore": -147,
            "oppTotalScore": -131,
            "waitTime": 2169.4078817794025,
            "responseTime": 1642365301382,
            "catchQuestion": "How many <b class=\"r\">red<\/b> marbles did your opponent report drawing? ",
            "catchKey": -1,
            "catchResponse": -1,
            "catchTime": 1642365271835,
            "trialTime": 0
        },
        {
            "exptPart": "trial",
            "trialNumber": 58,
            "roleCurrent": "receiver",
            "marblesSampled": 100,
            "probRed": 0.5,
            "lambda": 5,
            "drawnRed": 28,
            "reportedRed": 25,
            "inferredRed": 35,
            "playerTrialScore": -7,
            "oppTrialScore": 0,
            "playerTotalScore": -154,
            "oppTotalScore": -131,
            "waitTime": 6513.841757877935,
            "responseTime": 1642365311672,
            "catchQuestion": "How many <b class=\"r\">red<\/b> marbles did your opponent report drawing? ",
            "catchKey": -1,
            "catchResponse": -1,
            "catchTime": 1642365271835,
            "trialTime": 0
        },
        {
            "exptPart": "trial",
            "trialNumber": 59,
            "roleCurrent": "sender",
            "marblesSampled": 100,
            "probRed": 0.5,
            "lambda": 5,
            "drawnRed": 68,
            "reportedRed": 68,
            "inferredRed": 71,
            "playerTrialScore": 0,
            "oppTrialScore": -3,
            "playerTotalScore": -154,
            "oppTotalScore": -134,
            "waitTime": 2271.1907918333386,
            "responseTime": 1642365319523,
            "catchQuestion": "How many <b class=\"r\">red<\/b> marbles did your opponent report drawing? ",
            "catchKey": -1,
            "catchResponse": -1,
            "catchTime": 1642365271835,
            "trialTime": 0
        },
        {
            "exptPart": "trial",
            "trialNumber": 60,
            "roleCurrent": "receiver",
            "marblesSampled": 100,
            "probRed": 0.5,
            "lambda": 5,
            "drawnRed": 76,
            "reportedRed": 73,
            "inferredRed": 83,
            "playerTrialScore": -7,
            "oppTrialScore": 0,
            "playerTotalScore": -161,
            "oppTotalScore": -134,
            "waitTime": 6948.569076347139,
            "responseTime": 1642365330933,
            "catchQuestion": "How many <b class=\"r\">red<\/b> marbles did your opponent report drawing? ",
            "catchKey": -1,
            "catchResponse": -1,
            "catchTime": 1642365330933,
            "trialTime": 0
        },
        {
            "exptPart": "trial",
            "trialNumber": 61,
            "roleCurrent": "sender",
            "marblesSampled": 100,
            "probRed": 0.5,
            "lambda": 5,
            "drawnRed": 61,
            "reportedRed": 61,
            "inferredRed": 65,
            "playerTrialScore": 0,
            "oppTrialScore": -4,
            "playerTotalScore": -161,
            "oppTotalScore": -138,
            "waitTime": 2244.2845008441336,
            "responseTime": 1642365343575,
            "catchQuestion": "How many <b class=\"r\">red<\/b> marbles did your opponent report drawing? ",
            "catchKey": -1,
            "catchResponse": -1,
            "catchTime": 1642365330933,
            "trialTime": 0
        },
        {
            "exptPart": "trial",
            "trialNumber": 62,
            "roleCurrent": "receiver",
            "marblesSampled": 100,
            "probRed": 0.5,
            "lambda": 5,
            "drawnRed": 37,
            "reportedRed": 30,
            "inferredRed": 45,
            "playerTrialScore": -8,
            "oppTrialScore": 0,
            "playerTotalScore": -169,
            "oppTotalScore": -138,
            "waitTime": 6410.162601501615,
            "responseTime": 1642365354808,
            "catchQuestion": "How many <b class=\"r\">red<\/b> marbles did your opponent report drawing? ",
            "catchKey": 30,
            "catchResponse": 59,
            "catchTime": 1642365354808,
            "trialTime": 0
        },
        {
            "exptPart": "trial",
            "trialNumber": 63,
            "roleCurrent": "sender",
            "marblesSampled": 100,
            "probRed": 0.5,
            "lambda": 5,
            "drawnRed": 52,
            "reportedRed": 52,
            "inferredRed": 59,
            "playerTrialScore": 0,
            "oppTrialScore": -7,
            "playerTotalScore": -169,
            "oppTotalScore": -145,
            "waitTime": 2135.403364593314,
            "responseTime": 1642365387935,
            "catchQuestion": "How many <b class=\"r\">red<\/b> marbles did your opponent report drawing? ",
            "catchKey": -1,
            "catchResponse": -1,
            "catchTime": 1642365354808,
            "trialTime": 0
        },
        {
            "exptPart": "trial",
            "trialNumber": 64,
            "roleCurrent": "receiver",
            "marblesSampled": 100,
            "probRed": 0.5,
            "lambda": 5,
            "drawnRed": 33,
            "reportedRed": 26,
            "inferredRed": 36,
            "playerTrialScore": -3,
            "oppTrialScore": 0,
            "playerTotalScore": -172,
            "oppTotalScore": -145,
            "waitTime": 5617.109588684405,
            "responseTime": 1642365398003,
            "catchQuestion": "How many <b class=\"r\">red<\/b> marbles did your opponent report drawing? ",
            "catchKey": -1,
            "catchResponse": -1,
            "catchTime": 1642365354808,
            "trialTime": 0
        },
        {
            "exptPart": "trial",
            "trialNumber": 65,
            "roleCurrent": "sender",
            "marblesSampled": 100,
            "probRed": 0.5,
            "lambda": 5,
            "drawnRed": 71,
            "reportedRed": 71,
            "inferredRed": 71,
            "playerTrialScore": 0,
            "oppTrialScore": 0,
            "playerTotalScore": -172,
            "oppTotalScore": -145,
            "waitTime": 2468.8362337374438,
            "responseTime": 1642365409697,
            "catchQuestion": "How many <b class=\"r\">red<\/b> marbles did your opponent report drawing? ",
            "catchKey": -1,
            "catchResponse": -1,
            "catchTime": 1642365409697,
            "trialTime": 0
        },
        {
            "exptPart": "trial",
            "trialNumber": 66,
            "roleCurrent": "receiver",
            "marblesSampled": 100,
            "probRed": 0.5,
            "lambda": 5,
            "drawnRed": 79,
            "reportedRed": 72,
            "inferredRed": 85,
            "playerTrialScore": -6,
            "oppTrialScore": 0,
            "playerTotalScore": -178,
            "oppTotalScore": -145,
            "waitTime": 6328.707375481345,
            "responseTime": 1642365422803,
            "catchQuestion": "How many <b class=\"r\">red<\/b> marbles did your opponent report drawing? ",
            "catchKey": 72,
            "catchResponse": 72,
            "catchTime": 1642365422803,
            "trialTime": 0
        },
        {
            "exptPart": "trial",
            "trialNumber": 67,
            "roleCurrent": "sender",
            "marblesSampled": 100,
            "probRed": 0.5,
            "lambda": 5,
            "drawnRed": 36,
            "reportedRed": 36,
            "inferredRed": 41,
            "playerTrialScore": 0,
            "oppTrialScore": -5,
            "playerTotalScore": -178,
            "oppTotalScore": -150,
            "waitTime": 2439.0712510970798,
            "responseTime": 1642365450922,
            "catchQuestion": "How many <b class=\"r\">red<\/b> marbles did your opponent report drawing? ",
            "catchKey": -1,
            "catchResponse": -1,
            "catchTime": 1642365422803,
            "trialTime": 0
        },
        {
            "exptPart": "trial",
            "trialNumber": 68,
            "roleCurrent": "receiver",
            "marblesSampled": 100,
            "probRed": 0.5,
            "lambda": 5,
            "drawnRed": 24,
            "reportedRed": 20,
            "inferredRed": 40,
            "playerTrialScore": -16,
            "oppTrialScore": 0,
            "playerTotalScore": -194,
            "oppTotalScore": -150,
            "waitTime": 5879.526301629277,
            "responseTime": 1642365460609,
            "catchQuestion": "How many <b class=\"r\">red<\/b> marbles did your opponent report drawing? ",
            "catchKey": -1,
            "catchResponse": -1,
            "catchTime": 1642365422803,
            "trialTime": 0
        },
        {
            "exptPart": "trial",
            "trialNumber": 69,
            "roleCurrent": "sender",
            "marblesSampled": 100,
            "probRed": 0.5,
            "lambda": 5,
            "drawnRed": 20,
            "reportedRed": 20,
            "inferredRed": 21,
            "playerTrialScore": 0,
            "oppTrialScore": -1,
            "playerTotalScore": -194,
            "oppTotalScore": -151,
            "waitTime": 2765.2704826213835,
            "responseTime": 1642365482306,
            "catchQuestion": "How many <b class=\"r\">red<\/b> marbles did your opponent report drawing? ",
            "catchKey": -1,
            "catchResponse": -1,
            "catchTime": 1642365422803,
            "trialTime": 0
        },
        {
            "exptPart": "trial",
            "trialNumber": 70,
            "roleCurrent": "receiver",
            "marblesSampled": 100,
            "probRed": 0.5,
            "lambda": 5,
            "drawnRed": 19,
            "reportedRed": 11,
            "inferredRed": 31,
            "playerTrialScore": -12,
            "oppTrialScore": 0,
            "playerTotalScore": -206,
            "oppTotalScore": -151,
            "waitTime": 6191.312073167206,
            "responseTime": 1642365492476,
            "catchQuestion": "How many <b class=\"r\">red<\/b> marbles did your opponent report drawing? ",
            "catchKey": -1,
            "catchResponse": -1,
            "catchTime": 1642365492477,
            "trialTime": 0
        },
        {
            "exptPart": "trial",
            "trialNumber": 71,
            "roleCurrent": "sender",
            "marblesSampled": 100,
            "probRed": 0.5,
            "lambda": 5,
            "drawnRed": 57,
            "reportedRed": 57,
            "inferredRed": 63,
            "playerTrialScore": 0,
            "oppTrialScore": -6,
            "playerTotalScore": -206,
            "oppTotalScore": -157,
            "waitTime": 3152.0930062557964,
            "responseTime": 1642365501645,
            "catchQuestion": "How many <b class=\"r\">red<\/b> marbles did you actually draw (before any changes)? ",
            "catchKey": 57,
            "catchResponse": 57,
            "catchTime": 1642365501645,
            "trialTime": 0
        },
        {
            "exptPart": "trial",
            "trialNumber": 72,
            "roleCurrent": "receiver",
            "marblesSampled": 100,
            "probRed": 0.5,
            "lambda": 5,
            "drawnRed": 45,
            "reportedRed": 43,
            "inferredRed": 43,
            "playerTrialScore": -2,
            "oppTrialScore": 2,
            "playerTotalScore": -208,
            "oppTotalScore": -155,
            "waitTime": 6047.932933405491,
            "responseTime": 1642365518414,
            "catchQuestion": "How many <b class=\"r\">red<\/b> marbles did you actually draw (before any changes)? ",
            "catchKey": -1,
            "catchResponse": -1,
            "catchTime": 1642365501645,
            "trialTime": 0
        },
        {
            "exptPart": "trial",
            "trialNumber": 73,
            "roleCurrent": "sender",
            "marblesSampled": 100,
            "probRed": 0.5,
            "lambda": 5,
            "drawnRed": 39,
            "reportedRed": 39,
            "inferredRed": 48,
            "playerTrialScore": 0,
            "oppTrialScore": -9,
            "playerTotalScore": -208,
            "oppTotalScore": -164,
            "waitTime": 2128.9140552868057,
            "responseTime": 1642365525232,
            "catchQuestion": "How many <b class=\"r\">red<\/b> marbles did you actually draw (before any changes)? ",
            "catchKey": 39,
            "catchResponse": 39,
            "catchTime": 1642365525232,
            "trialTime": 0
        },
        {
            "exptPart": "trial",
            "trialNumber": 74,
            "roleCurrent": "receiver",
            "marblesSampled": 100,
            "probRed": 0.5,
            "lambda": 5,
            "drawnRed": 50,
            "reportedRed": 43,
            "inferredRed": 43,
            "playerTrialScore": -7,
            "oppTrialScore": 7,
            "playerTotalScore": -215,
            "oppTotalScore": -157,
            "waitTime": 6160.545674877536,
            "responseTime": 1642365539169,
            "catchQuestion": "How many <b class=\"r\">red<\/b> marbles did you actually draw (before any changes)? ",
            "catchKey": -1,
            "catchResponse": -1,
            "catchTime": 1642365525232,
            "trialTime": 0
        },
        {
            "exptPart": "trial",
            "trialNumber": 75,
            "roleCurrent": "sender",
            "marblesSampled": 100,
            "probRed": 0.5,
            "lambda": 5,
            "drawnRed": 59,
            "reportedRed": 59,
            "inferredRed": 62,
            "playerTrialScore": 0,
            "oppTrialScore": -3,
            "playerTotalScore": -215,
            "oppTotalScore": -160,
            "waitTime": 2237.9748315208353,
            "responseTime": 1642365552477,
            "catchQuestion": "How many <b class=\"r\">red<\/b> marbles did you actually draw (before any changes)? ",
            "catchKey": -1,
            "catchResponse": -1,
            "catchTime": 1642365552477,
            "trialTime": 0
        },
        {
            "exptPart": "trial",
            "trialNumber": 76,
            "roleCurrent": "receiver",
            "marblesSampled": 100,
            "probRed": 0.5,
            "lambda": 5,
            "drawnRed": 73,
            "reportedRed": 69,
            "inferredRed": 69,
            "playerTrialScore": -4,
            "oppTrialScore": 4,
            "playerTotalScore": -219,
            "oppTotalScore": -156,
            "waitTime": 5546.0904495025015,
            "responseTime": 1642365563627,
            "catchQuestion": "How many <b class=\"r\">red<\/b> marbles did you actually draw (before any changes)? ",
            "catchKey": -1,
            "catchResponse": -1,
            "catchTime": 1642365552477,
            "trialTime": 0
        },
        {
            "exptPart": "trial",
            "trialNumber": 77,
            "roleCurrent": "sender",
            "marblesSampled": 100,
            "probRed": 0.5,
            "lambda": 5,
            "drawnRed": 53,
            "reportedRed": 53,
            "inferredRed": 57,
            "playerTrialScore": 0,
            "oppTrialScore": -4,
            "playerTotalScore": -219,
            "oppTotalScore": -160,
            "waitTime": 2066.5347983980755,
            "responseTime": 1642365570664,
            "catchQuestion": "How many <b class=\"r\">red<\/b> marbles did you actually draw (before any changes)? ",
            "catchKey": -1,
            "catchResponse": -1,
            "catchTime": 1642365552477,
            "trialTime": 0
        },
        {
            "exptPart": "trial",
            "trialNumber": 78,
            "roleCurrent": "receiver",
            "marblesSampled": 100,
            "probRed": 0.5,
            "lambda": 5,
            "drawnRed": 62,
            "reportedRed": 60,
            "inferredRed": 60,
            "playerTrialScore": -2,
            "oppTrialScore": 2,
            "playerTotalScore": -221,
            "oppTotalScore": -158,
            "waitTime": 5482.07481912533,
            "responseTime": 1642365579242,
            "catchQuestion": "How many <b class=\"r\">red<\/b> marbles did you actually draw (before any changes)? ",
            "catchKey": -1,
            "catchResponse": -1,
            "catchTime": 1642365552477,
            "trialTime": 0
        },
        {
            "exptPart": "trial",
            "trialNumber": 79,
            "roleCurrent": "sender",
            "marblesSampled": 100,
            "probRed": 0.5,
            "lambda": 5,
            "drawnRed": 69,
            "reportedRed": 69,
            "inferredRed": 73,
            "playerTrialScore": 0,
            "oppTrialScore": -4,
            "playerTotalScore": -221,
            "oppTotalScore": -162,
            "waitTime": 2346.5831285870267,
            "responseTime": 1642365586650,
            "catchQuestion": "How many <b class=\"r\">red<\/b> marbles did you actually draw (before any changes)? ",
            "catchKey": -1,
            "catchResponse": -1,
            "catchTime": 1642365552477,
            "trialTime": 0
        },
        {
            "exptPart": "trial",
            "trialNumber": 80,
            "roleCurrent": "receiver",
            "marblesSampled": 100,
            "probRed": 0.5,
            "lambda": 5,
            "drawnRed": 49,
            "reportedRed": 41,
            "inferredRed": 41,
            "playerTrialScore": -8,
            "oppTrialScore": 8,
            "playerTotalScore": -229,
            "oppTotalScore": -154,
            "waitTime": 6182.883454596971,
            "responseTime": 1642365596144,
            "catchQuestion": "How many <b class=\"r\">red<\/b> marbles did you actually draw (before any changes)? ",
            "catchKey": -1,
            "catchResponse": -1,
            "catchTime": 1642365596144,
            "trialTime": 0
        },
        {
            "exptPart": "trial",
            "trialNumber": 81,
            "roleCurrent": "sender",
            "marblesSampled": 100,
            "probRed": 0.5,
            "lambda": 5,
            "drawnRed": 73,
            "reportedRed": 73,
            "inferredRed": 79,
            "playerTrialScore": 0,
            "oppTrialScore": -6,
            "playerTotalScore": -229,
            "oppTotalScore": -160,
            "waitTime": 2594.7198532210095,
            "responseTime": 1642365604935,
            "catchQuestion": "How many <b class=\"r\">red<\/b> marbles did you actually draw (before any changes)? ",
            "catchKey": -1,
            "catchResponse": -1,
            "catchTime": 1642365596144,
            "trialTime": 0
        },
        {
            "exptPart": "trial",
            "trialNumber": 82,
            "roleCurrent": "receiver",
            "marblesSampled": 100,
            "probRed": 0.5,
            "lambda": 5,
            "drawnRed": 34,
            "reportedRed": 29,
            "inferredRed": 29,
            "playerTrialScore": -5,
            "oppTrialScore": 5,
            "playerTotalScore": -234,
            "oppTotalScore": -155,
            "waitTime": 5359.743690819042,
            "responseTime": 1642365615138,
            "catchQuestion": "How many <b class=\"r\">red<\/b> marbles did you actually draw (before any changes)? ",
            "catchKey": -1,
            "catchResponse": -1,
            "catchTime": 1642365596144,
            "trialTime": 0
        },
        {
            "exptPart": "trial",
            "trialNumber": 83,
            "roleCurrent": "sender",
            "marblesSampled": 100,
            "probRed": 0.5,
            "lambda": 5,
            "drawnRed": 65,
            "reportedRed": 65,
            "inferredRed": 66,
            "playerTrialScore": 0,
            "oppTrialScore": -1,
            "playerTotalScore": -234,
            "oppTotalScore": -156,
            "waitTime": 2190.1359685186617,
            "responseTime": 1642365626486,
            "catchQuestion": "How many <b class=\"r\">red<\/b> marbles did you actually draw (before any changes)? ",
            "catchKey": -1,
            "catchResponse": -1,
            "catchTime": 1642365596144,
            "trialTime": 0
        },
        {
            "exptPart": "trial",
            "trialNumber": 84,
            "roleCurrent": "receiver",
            "marblesSampled": 100,
            "probRed": 0.5,
            "lambda": 5,
            "drawnRed": 82,
            "reportedRed": 76,
            "inferredRed": 76,
            "playerTrialScore": -6,
            "oppTrialScore": 6,
            "playerTotalScore": -240,
            "oppTotalScore": -150,
            "waitTime": 5314.53916626096,
            "responseTime": 1642365636013,
            "catchQuestion": "How many <b class=\"r\">red<\/b> marbles did you actually draw (before any changes)? ",
            "catchKey": -1,
            "catchResponse": -1,
            "catchTime": 1642365596144,
            "trialTime": 0
        },
        {
            "exptPart": "trial",
            "trialNumber": 85,
            "roleCurrent": "sender",
            "marblesSampled": 100,
            "probRed": 0.5,
            "lambda": 5,
            "drawnRed": 38,
            "reportedRed": 38,
            "inferredRed": 39,
            "playerTrialScore": 0,
            "oppTrialScore": -1,
            "playerTotalScore": -240,
            "oppTotalScore": -151,
            "waitTime": 2088.380428946004,
            "responseTime": 1642365651101,
            "catchQuestion": "How many <b class=\"r\">red<\/b> marbles did you actually draw (before any changes)? ",
            "catchKey": -1,
            "catchResponse": -1,
            "catchTime": 1642365651101,
            "trialTime": 0
        },
        {
            "exptPart": "trial",
            "trialNumber": 86,
            "roleCurrent": "receiver",
            "marblesSampled": 100,
            "probRed": 0.5,
            "lambda": 5,
            "drawnRed": 48,
            "reportedRed": 44,
            "inferredRed": 54,
            "playerTrialScore": -6,
            "oppTrialScore": 0,
            "playerTotalScore": -246,
            "oppTotalScore": -151,
            "waitTime": 5610.860984940407,
            "responseTime": 1642365662078,
            "catchQuestion": "How many <b class=\"r\">red<\/b> marbles did you actually draw (before any changes)? ",
            "catchKey": -1,
            "catchResponse": -1,
            "catchTime": 1642365651101,
            "trialTime": 0
        },
        {
            "exptPart": "trial",
            "trialNumber": 87,
            "roleCurrent": "sender",
            "marblesSampled": 100,
            "probRed": 0.5,
            "lambda": 5,
            "drawnRed": 28,
            "reportedRed": 28,
            "inferredRed": 30,
            "playerTrialScore": 0,
            "oppTrialScore": -2,
            "playerTotalScore": -246,
            "oppTotalScore": -153,
            "waitTime": 2394.906903165881,
            "responseTime": 1642365671689,
            "catchQuestion": "How many <b class=\"r\">red<\/b> marbles did you actually draw (before any changes)? ",
            "catchKey": -1,
            "catchResponse": -1,
            "catchTime": 1642365651101,
            "trialTime": 0
        },
        {
            "exptPart": "trial",
            "trialNumber": 88,
            "roleCurrent": "receiver",
            "marblesSampled": 100,
            "probRed": 0.5,
            "lambda": 5,
            "drawnRed": 22,
            "reportedRed": 18,
            "inferredRed": 28,
            "playerTrialScore": -6,
            "oppTrialScore": 0,
            "playerTotalScore": -252,
            "oppTotalScore": -153,
            "waitTime": 7293.963500333442,
            "responseTime": 1642365683779,
            "catchQuestion": "How many <b class=\"r\">red<\/b> marbles did you actually draw (before any changes)? ",
            "catchKey": -1,
            "catchResponse": -1,
            "catchTime": 1642365651101,
            "trialTime": 0
        },
        {
            "exptPart": "trial",
            "trialNumber": 89,
            "roleCurrent": "sender",
            "marblesSampled": 100,
            "probRed": 0.5,
            "lambda": 5,
            "drawnRed": 24,
            "reportedRed": 24,
            "inferredRed": 25,
            "playerTrialScore": 0,
            "oppTrialScore": -1,
            "playerTotalScore": -252,
            "oppTotalScore": -154,
            "waitTime": 3029.3466311697075,
            "responseTime": 1642365691425,
            "catchQuestion": "How many <b class=\"r\">red<\/b> marbles did you actually draw (before any changes)? ",
            "catchKey": -1,
            "catchResponse": -1,
            "catchTime": 1642365651101,
            "trialTime": 0
        },
        {
            "exptPart": "trial",
            "trialNumber": 90,
            "roleCurrent": "receiver",
            "marblesSampled": 100,
            "probRed": 0.5,
            "lambda": 5,
            "drawnRed": 29,
            "reportedRed": 24,
            "inferredRed": 34,
            "playerTrialScore": -5,
            "oppTrialScore": 0,
            "playerTotalScore": -257,
            "oppTotalScore": -154,
            "waitTime": 5211.63742284965,
            "responseTime": 1642365700275,
            "catchQuestion": "How many <b class=\"r\">red<\/b> marbles did you actually draw (before any changes)? ",
            "catchKey": -1,
            "catchResponse": -1,
            "catchTime": 1642365700275,
            "trialTime": 0
        },
        {
            "exptPart": "trial",
            "trialNumber": 91,
            "roleCurrent": "sender",
            "marblesSampled": 100,
            "probRed": 0.5,
            "lambda": 5,
            "drawnRed": 41,
            "reportedRed": 41,
            "inferredRed": 45,
            "playerTrialScore": 0,
            "oppTrialScore": -4,
            "playerTotalScore": -257,
            "oppTotalScore": -158,
            "waitTime": 2179.150968838814,
            "responseTime": 1642365712601,
            "catchQuestion": "How many <b class=\"r\">red<\/b> marbles did you actually draw (before any changes)? ",
            "catchKey": -1,
            "catchResponse": -1,
            "catchTime": 1642365700275,
            "trialTime": 0
        },
        {
            "exptPart": "trial",
            "trialNumber": 92,
            "roleCurrent": "receiver",
            "marblesSampled": 100,
            "probRed": 0.5,
            "lambda": 5,
            "drawnRed": 54,
            "reportedRed": 44,
            "inferredRed": 44,
            "playerTrialScore": -10,
            "oppTrialScore": 10,
            "playerTotalScore": -267,
            "oppTotalScore": -148,
            "waitTime": 6202.785654817807,
            "responseTime": 1642365723246,
            "catchQuestion": "How many <b class=\"r\">red<\/b> marbles did you actually draw (before any changes)? ",
            "catchKey": -1,
            "catchResponse": -1,
            "catchTime": 1642365700275,
            "trialTime": 0
        },
        {
            "exptPart": "trial",
            "trialNumber": 93,
            "roleCurrent": "sender",
            "marblesSampled": 100,
            "probRed": 0.5,
            "lambda": 5,
            "drawnRed": 66,
            "reportedRed": 66,
            "inferredRed": 68,
            "playerTrialScore": 0,
            "oppTrialScore": -2,
            "playerTotalScore": -267,
            "oppTotalScore": -150,
            "waitTime": 2968.5961245523613,
            "responseTime": 1642365733427,
            "catchQuestion": "How many <b class=\"r\">red<\/b> marbles did you actually draw (before any changes)? ",
            "catchKey": 66,
            "catchResponse": 64,
            "catchTime": 1642365733427,
            "trialTime": 0
        },
        {
            "exptPart": "trial",
            "trialNumber": 94,
            "roleCurrent": "receiver",
            "marblesSampled": 100,
            "probRed": 0.5,
            "lambda": 5,
            "drawnRed": 33,
            "reportedRed": 28,
            "inferredRed": 38,
            "playerTrialScore": -5,
            "oppTrialScore": 0,
            "playerTotalScore": -272,
            "oppTotalScore": -150,
            "waitTime": 5492.615542170223,
            "responseTime": 1642365785810,
            "catchQuestion": "How many <b class=\"r\">red<\/b> marbles did you actually draw (before any changes)? ",
            "catchKey": -1,
            "catchResponse": -1,
            "catchTime": 1642365733427,
            "trialTime": 0
        },
        {
            "exptPart": "trial",
            "trialNumber": 95,
            "roleCurrent": "sender",
            "marblesSampled": 100,
            "probRed": 0.5,
            "lambda": 5,
            "drawnRed": 65,
            "reportedRed": 65,
            "inferredRed": 70,
            "playerTrialScore": 0,
            "oppTrialScore": -5,
            "playerTotalScore": -272,
            "oppTotalScore": -155,
            "waitTime": 3246.3568709339734,
            "responseTime": 1642365801336,
            "catchQuestion": "How many <b class=\"r\">red<\/b> marbles did you actually draw (before any changes)? ",
            "catchKey": -1,
            "catchResponse": -1,
            "catchTime": 1642365801337,
            "trialTime": 0
        },
        {
            "exptPart": "trial",
            "trialNumber": 96,
            "roleCurrent": "receiver",
            "marblesSampled": 100,
            "probRed": 0.5,
            "lambda": 5,
            "drawnRed": 65,
            "reportedRed": 63,
            "inferredRed": 73,
            "playerTrialScore": -8,
            "oppTrialScore": 0,
            "playerTotalScore": -280,
            "oppTotalScore": -155,
            "waitTime": 6819.690726564955,
            "responseTime": 1642365813755,
            "catchQuestion": "How many <b class=\"r\">red<\/b> marbles did you actually draw (before any changes)? ",
            "catchKey": -1,
            "catchResponse": -1,
            "catchTime": 1642365801337,
            "trialTime": 0
        },
        {
            "exptPart": "trial",
            "trialNumber": 97,
            "roleCurrent": "sender",
            "marblesSampled": 100,
            "probRed": 0.5,
            "lambda": 5,
            "drawnRed": 83,
            "reportedRed": 65,
            "inferredRed": 76,
            "playerTrialScore": 7,
            "oppTrialScore": -7,
            "playerTotalScore": -273,
            "oppTotalScore": -162,
            "waitTime": 2566.6234385102184,
            "responseTime": 1642365886023,
            "catchQuestion": "How many <b class=\"r\">red<\/b> marbles did you actually draw (before any changes)? ",
            "catchKey": -1,
            "catchResponse": -1,
            "catchTime": 1642365801337,
            "trialTime": 0
        },
        {
            "exptPart": "trial",
            "trialNumber": 98,
            "roleCurrent": "receiver",
            "marblesSampled": 100,
            "probRed": 0.5,
            "lambda": 5,
            "drawnRed": 22,
            "reportedRed": 12,
            "inferredRed": 20,
            "playerTrialScore": -2,
            "oppTrialScore": 2,
            "playerTotalScore": -275,
            "oppTotalScore": -160,
            "waitTime": 7145.242682955327,
            "responseTime": 1642365898163,
            "catchQuestion": "How many <b class=\"r\">red<\/b> marbles did you actually draw (before any changes)? ",
            "catchKey": -1,
            "catchResponse": -1,
            "catchTime": 1642365801337,
            "trialTime": 0
        },
        {
            "exptPart": "trial",
            "trialNumber": 99,
            "roleCurrent": "sender",
            "marblesSampled": 100,
            "probRed": 0.5,
            "lambda": 5,
            "drawnRed": 53,
            "reportedRed": 53,
            "inferredRed": 58,
            "playerTrialScore": 0,
            "oppTrialScore": -5,
            "playerTotalScore": -275,
            "oppTotalScore": -165,
            "waitTime": 2509.4394033926537,
            "responseTime": 1642365906022,
            "catchQuestion": "How many <b class=\"r\">red<\/b> marbles did you actually draw (before any changes)? ",
            "catchKey": -1,
            "catchResponse": -1,
            "catchTime": 1642365801337,
            "trialTime": 0
        },
        {
            "exptPart": "trial",
            "trialNumber": 100,
            "roleCurrent": "receiver",
            "marblesSampled": 100,
            "probRed": 0.5,
            "lambda": 5,
            "drawnRed": 18,
            "reportedRed": 13,
            "inferredRed": 20,
            "playerTrialScore": -2,
            "oppTrialScore": 0,
            "playerTotalScore": -277,
            "oppTotalScore": -165,
            "waitTime": 5618.311263797681,
            "responseTime": 1642365915102,
            "catchQuestion": "How many <b class=\"r\">red<\/b> marbles did you actually draw (before any changes)? ",
            "catchKey": -1,
            "catchResponse": -1,
            "catchTime": 1642365915102,
            "trialTime": 0
        }
    ]
}