{
    "client": {
        "type": "sona",
        "experiment_id": 2228,
        "credit_token": "b315147ae43241ea9c65086cb510cfb7",
        "survey_code": "32011",
        "sid": "sona-32011",
        "window": {
            "width": 1399,
            "height": 742
        },
        "screen": {
            "width": 1920,
            "height": 1080
        },
        "userAgent": "Mozilla\/5.0 (Macintosh; Intel Mac OS X 10_15_7) AppleWebKit\/537.36 (KHTML, like Gecko) Chrome\/97.0.4692.71 Safari\/537.36",
        "score": 0,
        "bonus": 0
    },
    "expt": {
        "saveURL": "submit.simple.php",
        "trials": 100,
        "practiceTrials": 2,
        "marblesSampled": 100,
        "probRed": 0.5,
        "lambdaAI": 5,
        "roleFirst": "sender",
        "roles": [
            "sender",
            "receiver"
        ],
        "cost": "linear",
        "goal": "under",
        "catchTrials": [
            88,
            63,
            22,
            65,
            28,
            87,
            16,
            59,
            45,
            30
        ],
        "scoreTotal": {
            "player": -2808,
            "opp": 202
        },
        "sona": {
            "experiment_id": 2228,
            "credit_token": "b315147ae43241ea9c65086cb510cfb7"
        },
        "pilot": false,
        "debug": false
    },
    "trials": [
        {
            "exptPart": "practice",
            "trialNumber": 1,
            "roleCurrent": "sender",
            "marblesSampled": 100,
            "probRed": 0.5,
            "lambda": 5,
            "drawnRed": 75,
            "reportedRed": 82,
            "inferredRed": 88,
            "playerTrialScore": 0,
            "oppTrialScore": -13,
            "playerTotalScore": 0,
            "oppTotalScore": -13,
            "waitTime": 3060.626370534833,
            "responseTime": 1642467498082,
            "catchQuestion": "How many <b class=\"r\">red<\/b> marbles did you actually draw (before any changes)? ",
            "catchKey": 75,
            "catchResponse": 10,
            "catchTime": 1642467498083,
            "trialTime": 0
        },
        {
            "exptPart": "practice",
            "trialNumber": 2,
            "roleCurrent": "receiver",
            "marblesSampled": 100,
            "probRed": 0.5,
            "lambda": 5,
            "drawnRed": 49,
            "reportedRed": 47,
            "inferredRed": 63,
            "playerTrialScore": -14,
            "oppTrialScore": 0,
            "playerTotalScore": -14,
            "oppTotalScore": -13,
            "waitTime": 6027.119164821883,
            "responseTime": 1642467578562,
            "catchQuestion": "How many <b class=\"r\">red<\/b> marbles did your opponent report drawing? ",
            "catchKey": 47,
            "catchResponse": 48,
            "catchTime": 1642467578562,
            "trialTime": 0
        },
        {
            "exptPart": "trial",
            "trialNumber": 1,
            "roleCurrent": "sender",
            "marblesSampled": 100,
            "probRed": 0.5,
            "lambda": 5,
            "drawnRed": 61,
            "reportedRed": 54,
            "inferredRed": 60,
            "playerTrialScore": 1,
            "oppTrialScore": -1,
            "playerTotalScore": 1,
            "oppTotalScore": -1,
            "waitTime": 2766.4092900174746,
            "responseTime": 1642467648783,
            "catchQuestion": "How many <b class=\"r\">red<\/b> marbles did your opponent report drawing? ",
            "catchKey": -1,
            "catchResponse": -1,
            "catchTime": 1642467578562,
            "trialTime": 0
        },
        {
            "exptPart": "trial",
            "trialNumber": 2,
            "roleCurrent": "receiver",
            "marblesSampled": 100,
            "probRed": 0.5,
            "lambda": 5,
            "drawnRed": 43,
            "reportedRed": 38,
            "inferredRed": 43,
            "playerTrialScore": 0,
            "oppTrialScore": 0,
            "playerTotalScore": 1,
            "oppTotalScore": -1,
            "waitTime": 5556.6372755732355,
            "responseTime": 1642467669644,
            "catchQuestion": "How many <b class=\"r\">red<\/b> marbles did your opponent report drawing? ",
            "catchKey": -1,
            "catchResponse": -1,
            "catchTime": 1642467578562,
            "trialTime": 0
        },
        {
            "exptPart": "trial",
            "trialNumber": 3,
            "roleCurrent": "sender",
            "marblesSampled": 100,
            "probRed": 0.5,
            "lambda": 5,
            "drawnRed": 87,
            "reportedRed": 100,
            "inferredRed": 100,
            "playerTrialScore": 0,
            "oppTrialScore": -13,
            "playerTotalScore": 1,
            "oppTotalScore": -14,
            "waitTime": 2799.1673247050385,
            "responseTime": 1642467714045,
            "catchQuestion": "How many <b class=\"r\">red<\/b> marbles did your opponent report drawing? ",
            "catchKey": -1,
            "catchResponse": -1,
            "catchTime": 1642467578562,
            "trialTime": 0
        },
        {
            "exptPart": "trial",
            "trialNumber": 4,
            "roleCurrent": "receiver",
            "marblesSampled": 100,
            "probRed": 0.5,
            "lambda": 5,
            "drawnRed": 57,
            "reportedRed": 56,
            "inferredRed": 61,
            "playerTrialScore": -4,
            "oppTrialScore": 0,
            "playerTotalScore": -3,
            "oppTotalScore": -14,
            "waitTime": 6066.503783614075,
            "responseTime": 1642467726444,
            "catchQuestion": "How many <b class=\"r\">red<\/b> marbles did your opponent report drawing? ",
            "catchKey": -1,
            "catchResponse": -1,
            "catchTime": 1642467578562,
            "trialTime": 0
        },
        {
            "exptPart": "trial",
            "trialNumber": 5,
            "roleCurrent": "sender",
            "marblesSampled": 100,
            "probRed": 0.5,
            "lambda": 5,
            "drawnRed": 50,
            "reportedRed": 50,
            "inferredRed": 53,
            "playerTrialScore": 0,
            "oppTrialScore": -3,
            "playerTotalScore": -3,
            "oppTotalScore": -17,
            "waitTime": 2536.673904474552,
            "responseTime": 1642467734037,
            "catchQuestion": "How many <b class=\"r\">red<\/b> marbles did your opponent report drawing? ",
            "catchKey": -1,
            "catchResponse": -1,
            "catchTime": 1642467734037,
            "trialTime": 0
        },
        {
            "exptPart": "trial",
            "trialNumber": 6,
            "roleCurrent": "receiver",
            "marblesSampled": 100,
            "probRed": 0.5,
            "lambda": 5,
            "drawnRed": 24,
            "reportedRed": 20,
            "inferredRed": 90,
            "playerTrialScore": -66,
            "oppTrialScore": 0,
            "playerTotalScore": -69,
            "oppTotalScore": -17,
            "waitTime": 6875.48006110988,
            "responseTime": 1642467757868,
            "catchQuestion": "How many <b class=\"r\">red<\/b> marbles did your opponent report drawing? ",
            "catchKey": -1,
            "catchResponse": -1,
            "catchTime": 1642467734037,
            "trialTime": 0
        },
        {
            "exptPart": "trial",
            "trialNumber": 7,
            "roleCurrent": "sender",
            "marblesSampled": 100,
            "probRed": 0.5,
            "lambda": 5,
            "drawnRed": 43,
            "reportedRed": 51,
            "inferredRed": 53,
            "playerTrialScore": 0,
            "oppTrialScore": -10,
            "playerTotalScore": -69,
            "oppTotalScore": -27,
            "waitTime": 2188.57628512719,
            "responseTime": 1642467801516,
            "catchQuestion": "How many <b class=\"r\">red<\/b> marbles did your opponent report drawing? ",
            "catchKey": -1,
            "catchResponse": -1,
            "catchTime": 1642467734037,
            "trialTime": 0
        },
        {
            "exptPart": "trial",
            "trialNumber": 8,
            "roleCurrent": "receiver",
            "marblesSampled": 100,
            "probRed": 0.5,
            "lambda": 5,
            "drawnRed": 73,
            "reportedRed": 69,
            "inferredRed": 85,
            "playerTrialScore": -12,
            "oppTrialScore": 0,
            "playerTotalScore": -81,
            "oppTotalScore": -27,
            "waitTime": 7139.851441855802,
            "responseTime": 1642467821731,
            "catchQuestion": "How many <b class=\"r\">red<\/b> marbles did your opponent report drawing? ",
            "catchKey": -1,
            "catchResponse": -1,
            "catchTime": 1642467734037,
            "trialTime": 0
        },
        {
            "exptPart": "trial",
            "trialNumber": 9,
            "roleCurrent": "sender",
            "marblesSampled": 100,
            "probRed": 0.5,
            "lambda": 5,
            "drawnRed": 33,
            "reportedRed": 20,
            "inferredRed": 23,
            "playerTrialScore": 10,
            "oppTrialScore": -10,
            "playerTotalScore": -71,
            "oppTotalScore": -37,
            "waitTime": 2936.2718277152053,
            "responseTime": 1642467860223,
            "catchQuestion": "How many <b class=\"r\">red<\/b> marbles did your opponent report drawing? ",
            "catchKey": -1,
            "catchResponse": -1,
            "catchTime": 1642467734037,
            "trialTime": 0
        },
        {
            "exptPart": "trial",
            "trialNumber": 10,
            "roleCurrent": "receiver",
            "marblesSampled": 100,
            "probRed": 0.5,
            "lambda": 5,
            "drawnRed": 13,
            "reportedRed": 7,
            "inferredRed": 15,
            "playerTrialScore": -2,
            "oppTrialScore": 0,
            "playerTotalScore": -73,
            "oppTotalScore": -37,
            "waitTime": 6743.767680612638,
            "responseTime": 1642467875606,
            "catchQuestion": "How many <b class=\"r\">red<\/b> marbles did your opponent report drawing? ",
            "catchKey": -1,
            "catchResponse": -1,
            "catchTime": 1642467875606,
            "trialTime": 0
        },
        {
            "exptPart": "trial",
            "trialNumber": 11,
            "roleCurrent": "sender",
            "marblesSampled": 100,
            "probRed": 0.5,
            "lambda": 5,
            "drawnRed": 47,
            "reportedRed": 32,
            "inferredRed": 39,
            "playerTrialScore": 8,
            "oppTrialScore": -8,
            "playerTotalScore": -65,
            "oppTotalScore": -45,
            "waitTime": 2349.100160871849,
            "responseTime": 1642467925430,
            "catchQuestion": "How many <b class=\"r\">red<\/b> marbles did your opponent report drawing? ",
            "catchKey": -1,
            "catchResponse": -1,
            "catchTime": 1642467875606,
            "trialTime": 0
        },
        {
            "exptPart": "trial",
            "trialNumber": 12,
            "roleCurrent": "receiver",
            "marblesSampled": 100,
            "probRed": 0.5,
            "lambda": 5,
            "drawnRed": 50,
            "reportedRed": 46,
            "inferredRed": 48,
            "playerTrialScore": -2,
            "oppTrialScore": 2,
            "playerTotalScore": -67,
            "oppTotalScore": -43,
            "waitTime": 7360.995445581144,
            "responseTime": 1642467937394,
            "catchQuestion": "How many <b class=\"r\">red<\/b> marbles did your opponent report drawing? ",
            "catchKey": -1,
            "catchResponse": -1,
            "catchTime": 1642467875606,
            "trialTime": 0
        },
        {
            "exptPart": "trial",
            "trialNumber": 13,
            "roleCurrent": "sender",
            "marblesSampled": 100,
            "probRed": 0.5,
            "lambda": 5,
            "drawnRed": 87,
            "reportedRed": 66,
            "inferredRed": 71,
            "playerTrialScore": 16,
            "oppTrialScore": -16,
            "playerTotalScore": -51,
            "oppTotalScore": -59,
            "waitTime": 2731.641660536279,
            "responseTime": 1642468004975,
            "catchQuestion": "How many <b class=\"r\">red<\/b> marbles did your opponent report drawing? ",
            "catchKey": -1,
            "catchResponse": -1,
            "catchTime": 1642467875606,
            "trialTime": 0
        },
        {
            "exptPart": "trial",
            "trialNumber": 14,
            "roleCurrent": "receiver",
            "marblesSampled": 100,
            "probRed": 0.5,
            "lambda": 5,
            "drawnRed": 45,
            "reportedRed": 40,
            "inferredRed": 45,
            "playerTrialScore": 0,
            "oppTrialScore": 0,
            "playerTotalScore": -51,
            "oppTotalScore": -59,
            "waitTime": 5287.826243101035,
            "responseTime": 1642468014319,
            "catchQuestion": "How many <b class=\"r\">red<\/b> marbles did your opponent report drawing? ",
            "catchKey": -1,
            "catchResponse": -1,
            "catchTime": 1642467875606,
            "trialTime": 0
        },
        {
            "exptPart": "trial",
            "trialNumber": 15,
            "roleCurrent": "sender",
            "marblesSampled": 100,
            "probRed": 0.5,
            "lambda": 5,
            "drawnRed": 67,
            "reportedRed": 52,
            "inferredRed": 55,
            "playerTrialScore": 12,
            "oppTrialScore": -12,
            "playerTotalScore": -39,
            "oppTotalScore": -71,
            "waitTime": 2296.8787091583754,
            "responseTime": 1642468053590,
            "catchQuestion": "How many <b class=\"r\">red<\/b> marbles did your opponent report drawing? ",
            "catchKey": -1,
            "catchResponse": -1,
            "catchTime": 1642468053591,
            "trialTime": 0
        },
        {
            "exptPart": "trial",
            "trialNumber": 16,
            "roleCurrent": "receiver",
            "marblesSampled": 100,
            "probRed": 0.5,
            "lambda": 5,
            "drawnRed": 82,
            "reportedRed": 75,
            "inferredRed": 100,
            "playerTrialScore": -18,
            "oppTrialScore": 0,
            "playerTotalScore": -57,
            "oppTotalScore": -71,
            "waitTime": 5886.851689483058,
            "responseTime": 1642468068504,
            "catchQuestion": "How many <b class=\"r\">red<\/b> marbles did your opponent report drawing? ",
            "catchKey": -1,
            "catchResponse": -1,
            "catchTime": 1642468053591,
            "trialTime": 0
        },
        {
            "exptPart": "trial",
            "trialNumber": 17,
            "roleCurrent": "sender",
            "marblesSampled": 100,
            "probRed": 0.5,
            "lambda": 5,
            "drawnRed": 66,
            "reportedRed": 66,
            "inferredRed": 70,
            "playerTrialScore": 0,
            "oppTrialScore": -4,
            "playerTotalScore": -57,
            "oppTotalScore": -75,
            "waitTime": 2112.0110300704428,
            "responseTime": 1642468074127,
            "catchQuestion": "How many <b class=\"r\">red<\/b> marbles did you actually draw (before any changes)? ",
            "catchKey": 66,
            "catchResponse": 100,
            "catchTime": 1642468074127,
            "trialTime": 0
        },
        {
            "exptPart": "trial",
            "trialNumber": 18,
            "roleCurrent": "receiver",
            "marblesSampled": 100,
            "probRed": 0.5,
            "lambda": 5,
            "drawnRed": 31,
            "reportedRed": 28,
            "inferredRed": 100,
            "playerTrialScore": -69,
            "oppTrialScore": 0,
            "playerTotalScore": -126,
            "oppTotalScore": -75,
            "waitTime": 7386.286558467944,
            "responseTime": 1642468093301,
            "catchQuestion": "How many <b class=\"r\">red<\/b> marbles did you actually draw (before any changes)? ",
            "catchKey": -1,
            "catchResponse": -1,
            "catchTime": 1642468074127,
            "trialTime": 0
        },
        {
            "exptPart": "trial",
            "trialNumber": 19,
            "roleCurrent": "sender",
            "marblesSampled": 100,
            "probRed": 0.5,
            "lambda": 5,
            "drawnRed": 67,
            "reportedRed": 67,
            "inferredRed": 75,
            "playerTrialScore": 0,
            "oppTrialScore": -8,
            "playerTotalScore": -126,
            "oppTotalScore": -83,
            "waitTime": 2563.883353832081,
            "responseTime": 1642468103136,
            "catchQuestion": "How many <b class=\"r\">red<\/b> marbles did you actually draw (before any changes)? ",
            "catchKey": -1,
            "catchResponse": -1,
            "catchTime": 1642468074127,
            "trialTime": 0
        },
        {
            "exptPart": "trial",
            "trialNumber": 20,
            "roleCurrent": "receiver",
            "marblesSampled": 100,
            "probRed": 0.5,
            "lambda": 5,
            "drawnRed": 46,
            "reportedRed": 39,
            "inferredRed": 100,
            "playerTrialScore": -54,
            "oppTrialScore": 0,
            "playerTotalScore": -180,
            "oppTotalScore": -83,
            "waitTime": 6229.543261953898,
            "responseTime": 1642468111234,
            "catchQuestion": "How many <b class=\"r\">red<\/b> marbles did you actually draw (before any changes)? ",
            "catchKey": -1,
            "catchResponse": -1,
            "catchTime": 1642468111234,
            "trialTime": 0
        },
        {
            "exptPart": "trial",
            "trialNumber": 21,
            "roleCurrent": "sender",
            "marblesSampled": 100,
            "probRed": 0.5,
            "lambda": 5,
            "drawnRed": 10,
            "reportedRed": 0,
            "inferredRed": 3,
            "playerTrialScore": 7,
            "oppTrialScore": -7,
            "playerTotalScore": -173,
            "oppTotalScore": -90,
            "waitTime": 2077.3027202718695,
            "responseTime": 1642468148416,
            "catchQuestion": "How many <b class=\"r\">red<\/b> marbles did you actually draw (before any changes)? ",
            "catchKey": -1,
            "catchResponse": -1,
            "catchTime": 1642468111234,
            "trialTime": 0
        },
        {
            "exptPart": "trial",
            "trialNumber": 22,
            "roleCurrent": "receiver",
            "marblesSampled": 100,
            "probRed": 0.5,
            "lambda": 5,
            "drawnRed": 55,
            "reportedRed": 48,
            "inferredRed": 100,
            "playerTrialScore": -45,
            "oppTrialScore": 0,
            "playerTotalScore": -218,
            "oppTotalScore": -90,
            "waitTime": 6216.650163031004,
            "responseTime": 1642468156846,
            "catchQuestion": "How many <b class=\"r\">red<\/b> marbles did you actually draw (before any changes)? ",
            "catchKey": -1,
            "catchResponse": -1,
            "catchTime": 1642468111234,
            "trialTime": 0
        },
        {
            "exptPart": "trial",
            "trialNumber": 23,
            "roleCurrent": "sender",
            "marblesSampled": 100,
            "probRed": 0.5,
            "lambda": 5,
            "drawnRed": 57,
            "reportedRed": 55,
            "inferredRed": 64,
            "playerTrialScore": 0,
            "oppTrialScore": -7,
            "playerTotalScore": -218,
            "oppTotalScore": -97,
            "waitTime": 3131.9178459281384,
            "responseTime": 1642468167655,
            "catchQuestion": "How many <b class=\"r\">red<\/b> marbles did you actually draw (before any changes)? ",
            "catchKey": 57,
            "catchResponse": 2,
            "catchTime": 1642468167655,
            "trialTime": 0
        },
        {
            "exptPart": "trial",
            "trialNumber": 24,
            "roleCurrent": "receiver",
            "marblesSampled": 100,
            "probRed": 0.5,
            "lambda": 5,
            "drawnRed": 67,
            "reportedRed": 62,
            "inferredRed": 100,
            "playerTrialScore": -33,
            "oppTrialScore": 0,
            "playerTotalScore": -251,
            "oppTotalScore": -97,
            "waitTime": 5212.703627247397,
            "responseTime": 1642468185176,
            "catchQuestion": "How many <b class=\"r\">red<\/b> marbles did you actually draw (before any changes)? ",
            "catchKey": -1,
            "catchResponse": -1,
            "catchTime": 1642468167655,
            "trialTime": 0
        },
        {
            "exptPart": "trial",
            "trialNumber": 25,
            "roleCurrent": "sender",
            "marblesSampled": 100,
            "probRed": 0.5,
            "lambda": 5,
            "drawnRed": 50,
            "reportedRed": 46,
            "inferredRed": 49,
            "playerTrialScore": 1,
            "oppTrialScore": -1,
            "playerTotalScore": -250,
            "oppTotalScore": -98,
            "waitTime": 2852.8051956472746,
            "responseTime": 1642468197808,
            "catchQuestion": "How many <b class=\"r\">red<\/b> marbles did you actually draw (before any changes)? ",
            "catchKey": -1,
            "catchResponse": -1,
            "catchTime": 1642468197808,
            "trialTime": 0
        },
        {
            "exptPart": "trial",
            "trialNumber": 26,
            "roleCurrent": "receiver",
            "marblesSampled": 100,
            "probRed": 0.5,
            "lambda": 5,
            "drawnRed": 17,
            "reportedRed": 13,
            "inferredRed": 100,
            "playerTrialScore": -83,
            "oppTrialScore": 0,
            "playerTotalScore": -333,
            "oppTotalScore": -98,
            "waitTime": 5875.6634417948335,
            "responseTime": 1642468211209,
            "catchQuestion": "How many <b class=\"r\">red<\/b> marbles did you actually draw (before any changes)? ",
            "catchKey": -1,
            "catchResponse": -1,
            "catchTime": 1642468197808,
            "trialTime": 0
        },
        {
            "exptPart": "trial",
            "trialNumber": 27,
            "roleCurrent": "sender",
            "marblesSampled": 100,
            "probRed": 0.5,
            "lambda": 5,
            "drawnRed": 50,
            "reportedRed": 50,
            "inferredRed": 58,
            "playerTrialScore": 0,
            "oppTrialScore": -8,
            "playerTotalScore": -333,
            "oppTotalScore": -106,
            "waitTime": 2721.2627479875164,
            "responseTime": 1642468220408,
            "catchQuestion": "How many <b class=\"r\">red<\/b> marbles did you actually draw (before any changes)? ",
            "catchKey": -1,
            "catchResponse": -1,
            "catchTime": 1642468197808,
            "trialTime": 0
        },
        {
            "exptPart": "trial",
            "trialNumber": 28,
            "roleCurrent": "receiver",
            "marblesSampled": 100,
            "probRed": 0.5,
            "lambda": 5,
            "drawnRed": 44,
            "reportedRed": 38,
            "inferredRed": 100,
            "playerTrialScore": -56,
            "oppTrialScore": 0,
            "playerTotalScore": -389,
            "oppTotalScore": -106,
            "waitTime": 5346.179558307898,
            "responseTime": 1642468227412,
            "catchQuestion": "How many <b class=\"r\">red<\/b> marbles did you actually draw (before any changes)? ",
            "catchKey": -1,
            "catchResponse": -1,
            "catchTime": 1642468197808,
            "trialTime": 0
        },
        {
            "exptPart": "trial",
            "trialNumber": 29,
            "roleCurrent": "sender",
            "marblesSampled": 100,
            "probRed": 0.5,
            "lambda": 5,
            "drawnRed": 30,
            "reportedRed": 30,
            "inferredRed": 36,
            "playerTrialScore": 0,
            "oppTrialScore": -6,
            "playerTotalScore": -389,
            "oppTotalScore": -112,
            "waitTime": 2106.642250934306,
            "responseTime": 1642468234208,
            "catchQuestion": "How many <b class=\"r\">red<\/b> marbles did you actually draw (before any changes)? ",
            "catchKey": 30,
            "catchResponse": 30,
            "catchTime": 1642468234208,
            "trialTime": 0
        },
        {
            "exptPart": "trial",
            "trialNumber": 30,
            "roleCurrent": "receiver",
            "marblesSampled": 100,
            "probRed": 0.5,
            "lambda": 5,
            "drawnRed": 64,
            "reportedRed": 59,
            "inferredRed": 69,
            "playerTrialScore": -5,
            "oppTrialScore": 0,
            "playerTotalScore": -394,
            "oppTotalScore": -112,
            "waitTime": 5744.748497632104,
            "responseTime": 1642468248888,
            "catchQuestion": "How many <b class=\"r\">red<\/b> marbles did you actually draw (before any changes)? ",
            "catchKey": -1,
            "catchResponse": -1,
            "catchTime": 1642468248888,
            "trialTime": 0
        },
        {
            "exptPart": "trial",
            "trialNumber": 31,
            "roleCurrent": "sender",
            "marblesSampled": 100,
            "probRed": 0.5,
            "lambda": 5,
            "drawnRed": 38,
            "reportedRed": 38,
            "inferredRed": 44,
            "playerTrialScore": 0,
            "oppTrialScore": -6,
            "playerTotalScore": -394,
            "oppTotalScore": -118,
            "waitTime": 2183.758752159612,
            "responseTime": 1642468263192,
            "catchQuestion": "How many <b class=\"r\">red<\/b> marbles did you actually draw (before any changes)? ",
            "catchKey": 38,
            "catchResponse": 38,
            "catchTime": 1642468263192,
            "trialTime": 0
        },
        {
            "exptPart": "trial",
            "trialNumber": 32,
            "roleCurrent": "receiver",
            "marblesSampled": 100,
            "probRed": 0.5,
            "lambda": 5,
            "drawnRed": 54,
            "reportedRed": 48,
            "inferredRed": 52,
            "playerTrialScore": -2,
            "oppTrialScore": 2,
            "playerTotalScore": -396,
            "oppTotalScore": -116,
            "waitTime": 5378.519562156917,
            "responseTime": 1642468278499,
            "catchQuestion": "How many <b class=\"r\">red<\/b> marbles did you actually draw (before any changes)? ",
            "catchKey": -1,
            "catchResponse": -1,
            "catchTime": 1642468263192,
            "trialTime": 0
        },
        {
            "exptPart": "trial",
            "trialNumber": 33,
            "roleCurrent": "sender",
            "marblesSampled": 100,
            "probRed": 0.5,
            "lambda": 5,
            "drawnRed": 40,
            "reportedRed": 40,
            "inferredRed": 46,
            "playerTrialScore": 0,
            "oppTrialScore": -6,
            "playerTotalScore": -396,
            "oppTotalScore": -122,
            "waitTime": 2544.5311535031483,
            "responseTime": 1642468285392,
            "catchQuestion": "How many <b class=\"r\">red<\/b> marbles did you actually draw (before any changes)? ",
            "catchKey": -1,
            "catchResponse": -1,
            "catchTime": 1642468263192,
            "trialTime": 0
        },
        {
            "exptPart": "trial",
            "trialNumber": 34,
            "roleCurrent": "receiver",
            "marblesSampled": 100,
            "probRed": 0.5,
            "lambda": 5,
            "drawnRed": 67,
            "reportedRed": 62,
            "inferredRed": 66,
            "playerTrialScore": -1,
            "oppTrialScore": 1,
            "playerTotalScore": -397,
            "oppTotalScore": -121,
            "waitTime": 6689.003066732102,
            "responseTime": 1642468294969,
            "catchQuestion": "How many <b class=\"r\">red<\/b> marbles did you actually draw (before any changes)? ",
            "catchKey": -1,
            "catchResponse": -1,
            "catchTime": 1642468263192,
            "trialTime": 0
        },
        {
            "exptPart": "trial",
            "trialNumber": 35,
            "roleCurrent": "sender",
            "marblesSampled": 100,
            "probRed": 0.5,
            "lambda": 5,
            "drawnRed": 62,
            "reportedRed": 62,
            "inferredRed": 64,
            "playerTrialScore": 0,
            "oppTrialScore": -2,
            "playerTotalScore": -397,
            "oppTotalScore": -123,
            "waitTime": 2085.7244126576725,
            "responseTime": 1642468301976,
            "catchQuestion": "How many <b class=\"r\">red<\/b> marbles did you actually draw (before any changes)? ",
            "catchKey": -1,
            "catchResponse": -1,
            "catchTime": 1642468301976,
            "trialTime": 0
        },
        {
            "exptPart": "trial",
            "trialNumber": 36,
            "roleCurrent": "receiver",
            "marblesSampled": 100,
            "probRed": 0.5,
            "lambda": 5,
            "drawnRed": 31,
            "reportedRed": 24,
            "inferredRed": 20,
            "playerTrialScore": -11,
            "oppTrialScore": 11,
            "playerTotalScore": -408,
            "oppTotalScore": -112,
            "waitTime": 7233.679023575443,
            "responseTime": 1642468320095,
            "catchQuestion": "How many <b class=\"r\">red<\/b> marbles did you actually draw (before any changes)? ",
            "catchKey": -1,
            "catchResponse": -1,
            "catchTime": 1642468301976,
            "trialTime": 0
        },
        {
            "exptPart": "trial",
            "trialNumber": 37,
            "roleCurrent": "sender",
            "marblesSampled": 100,
            "probRed": 0.5,
            "lambda": 5,
            "drawnRed": 54,
            "reportedRed": 54,
            "inferredRed": 59,
            "playerTrialScore": 0,
            "oppTrialScore": -5,
            "playerTotalScore": -408,
            "oppTotalScore": -117,
            "waitTime": 2889.768767478493,
            "responseTime": 1642468327728,
            "catchQuestion": "How many <b class=\"r\">red<\/b> marbles did you actually draw (before any changes)? ",
            "catchKey": -1,
            "catchResponse": -1,
            "catchTime": 1642468301976,
            "trialTime": 0
        },
        {
            "exptPart": "trial",
            "trialNumber": 38,
            "roleCurrent": "receiver",
            "marblesSampled": 100,
            "probRed": 0.5,
            "lambda": 5,
            "drawnRed": 9,
            "reportedRed": 3,
            "inferredRed": 5,
            "playerTrialScore": -4,
            "oppTrialScore": 4,
            "playerTotalScore": -412,
            "oppTotalScore": -113,
            "waitTime": 6200.130503145319,
            "responseTime": 1642468346175,
            "catchQuestion": "How many <b class=\"r\">red<\/b> marbles did you actually draw (before any changes)? ",
            "catchKey": -1,
            "catchResponse": -1,
            "catchTime": 1642468301976,
            "trialTime": 0
        },
        {
            "exptPart": "trial",
            "trialNumber": 39,
            "roleCurrent": "sender",
            "marblesSampled": 100,
            "probRed": 0.5,
            "lambda": 5,
            "drawnRed": 67,
            "reportedRed": 67,
            "inferredRed": 70,
            "playerTrialScore": 0,
            "oppTrialScore": -3,
            "playerTotalScore": -412,
            "oppTotalScore": -116,
            "waitTime": 2297.504044155253,
            "responseTime": 1642468353657,
            "catchQuestion": "How many <b class=\"r\">red<\/b> marbles did you actually draw (before any changes)? ",
            "catchKey": -1,
            "catchResponse": -1,
            "catchTime": 1642468301976,
            "trialTime": 0
        },
        {
            "exptPart": "trial",
            "trialNumber": 40,
            "roleCurrent": "receiver",
            "marblesSampled": 100,
            "probRed": 0.5,
            "lambda": 5,
            "drawnRed": 73,
            "reportedRed": 69,
            "inferredRed": 72,
            "playerTrialScore": -1,
            "oppTrialScore": 1,
            "playerTotalScore": -413,
            "oppTotalScore": -115,
            "waitTime": 6372.554284037515,
            "responseTime": 1642468363618,
            "catchQuestion": "How many <b class=\"r\">red<\/b> marbles did you actually draw (before any changes)? ",
            "catchKey": -1,
            "catchResponse": -1,
            "catchTime": 1642468363618,
            "trialTime": 0
        },
        {
            "exptPart": "trial",
            "trialNumber": 41,
            "roleCurrent": "sender",
            "marblesSampled": 100,
            "probRed": 0.5,
            "lambda": 5,
            "drawnRed": 35,
            "reportedRed": 35,
            "inferredRed": 43,
            "playerTrialScore": 0,
            "oppTrialScore": -8,
            "playerTotalScore": -413,
            "oppTotalScore": -123,
            "waitTime": 2095.39582026099,
            "responseTime": 1642468388417,
            "catchQuestion": "How many <b class=\"r\">red<\/b> marbles did you actually draw (before any changes)? ",
            "catchKey": -1,
            "catchResponse": -1,
            "catchTime": 1642468363618,
            "trialTime": 0
        },
        {
            "exptPart": "trial",
            "trialNumber": 42,
            "roleCurrent": "receiver",
            "marblesSampled": 100,
            "probRed": 0.5,
            "lambda": 5,
            "drawnRed": 31,
            "reportedRed": 29,
            "inferredRed": 1,
            "playerTrialScore": -30,
            "oppTrialScore": 30,
            "playerTotalScore": -443,
            "oppTotalScore": -93,
            "waitTime": 6093.816096896843,
            "responseTime": 1642468397708,
            "catchQuestion": "How many <b class=\"r\">red<\/b> marbles did you actually draw (before any changes)? ",
            "catchKey": -1,
            "catchResponse": -1,
            "catchTime": 1642468363618,
            "trialTime": 0
        },
        {
            "exptPart": "trial",
            "trialNumber": 43,
            "roleCurrent": "sender",
            "marblesSampled": 100,
            "probRed": 0.5,
            "lambda": 5,
            "drawnRed": 49,
            "reportedRed": 49,
            "inferredRed": 53,
            "playerTrialScore": 0,
            "oppTrialScore": -4,
            "playerTotalScore": -443,
            "oppTotalScore": -97,
            "waitTime": 3225.6613207318405,
            "responseTime": 1642468405545,
            "catchQuestion": "How many <b class=\"r\">red<\/b> marbles did you actually draw (before any changes)? ",
            "catchKey": -1,
            "catchResponse": -1,
            "catchTime": 1642468363618,
            "trialTime": 0
        },
        {
            "exptPart": "trial",
            "trialNumber": 44,
            "roleCurrent": "receiver",
            "marblesSampled": 100,
            "probRed": 0.5,
            "lambda": 5,
            "drawnRed": 52,
            "reportedRed": 47,
            "inferredRed": 1,
            "playerTrialScore": -51,
            "oppTrialScore": 51,
            "playerTotalScore": -494,
            "oppTotalScore": -46,
            "waitTime": 6261.608925361285,
            "responseTime": 1642468415031,
            "catchQuestion": "How many <b class=\"r\">red<\/b> marbles did you actually draw (before any changes)? ",
            "catchKey": -1,
            "catchResponse": -1,
            "catchTime": 1642468363618,
            "trialTime": 0
        },
        {
            "exptPart": "trial",
            "trialNumber": 45,
            "roleCurrent": "sender",
            "marblesSampled": 100,
            "probRed": 0.5,
            "lambda": 5,
            "drawnRed": 24,
            "reportedRed": 24,
            "inferredRed": 26,
            "playerTrialScore": 0,
            "oppTrialScore": -2,
            "playerTotalScore": -494,
            "oppTotalScore": -48,
            "waitTime": 3018.746754726886,
            "responseTime": 1642468422673,
            "catchQuestion": "How many <b class=\"r\">red<\/b> marbles did you actually draw (before any changes)? ",
            "catchKey": -1,
            "catchResponse": -1,
            "catchTime": 1642468422673,
            "trialTime": 0
        },
        {
            "exptPart": "trial",
            "trialNumber": 46,
            "roleCurrent": "receiver",
            "marblesSampled": 100,
            "probRed": 0.5,
            "lambda": 5,
            "drawnRed": 85,
            "reportedRed": 81,
            "inferredRed": 89,
            "playerTrialScore": -4,
            "oppTrialScore": 0,
            "playerTotalScore": -498,
            "oppTotalScore": -48,
            "waitTime": 5452.799493875333,
            "responseTime": 1642468446881,
            "catchQuestion": "How many <b class=\"r\">red<\/b> marbles did your opponent report drawing? ",
            "catchKey": 81,
            "catchResponse": 81,
            "catchTime": 1642468446881,
            "trialTime": 0
        },
        {
            "exptPart": "trial",
            "trialNumber": 47,
            "roleCurrent": "sender",
            "marblesSampled": 100,
            "probRed": 0.5,
            "lambda": 5,
            "drawnRed": 80,
            "reportedRed": 80,
            "inferredRed": 86,
            "playerTrialScore": 0,
            "oppTrialScore": -6,
            "playerTotalScore": -498,
            "oppTotalScore": -54,
            "waitTime": 2170.4848021410044,
            "responseTime": 1642468463201,
            "catchQuestion": "How many <b class=\"r\">red<\/b> marbles did your opponent report drawing? ",
            "catchKey": -1,
            "catchResponse": -1,
            "catchTime": 1642468446881,
            "trialTime": 0
        },
        {
            "exptPart": "trial",
            "trialNumber": 48,
            "roleCurrent": "receiver",
            "marblesSampled": 100,
            "probRed": 0.5,
            "lambda": 5,
            "drawnRed": 91,
            "reportedRed": 83,
            "inferredRed": 87,
            "playerTrialScore": -4,
            "oppTrialScore": 4,
            "playerTotalScore": -502,
            "oppTotalScore": -50,
            "waitTime": 5886.605484936922,
            "responseTime": 1642468473815,
            "catchQuestion": "How many <b class=\"r\">red<\/b> marbles did your opponent report drawing? ",
            "catchKey": -1,
            "catchResponse": -1,
            "catchTime": 1642468446881,
            "trialTime": 0
        },
        {
            "exptPart": "trial",
            "trialNumber": 49,
            "roleCurrent": "sender",
            "marblesSampled": 100,
            "probRed": 0.5,
            "lambda": 5,
            "drawnRed": 70,
            "reportedRed": 70,
            "inferredRed": 72,
            "playerTrialScore": 0,
            "oppTrialScore": -2,
            "playerTotalScore": -502,
            "oppTotalScore": -52,
            "waitTime": 2301.4904535994388,
            "responseTime": 1642468480752,
            "catchQuestion": "How many <b class=\"r\">red<\/b> marbles did your opponent report drawing? ",
            "catchKey": -1,
            "catchResponse": -1,
            "catchTime": 1642468446881,
            "trialTime": 0
        },
        {
            "exptPart": "trial",
            "trialNumber": 50,
            "roleCurrent": "receiver",
            "marblesSampled": 100,
            "probRed": 0.5,
            "lambda": 5,
            "drawnRed": 54,
            "reportedRed": 53,
            "inferredRed": 58,
            "playerTrialScore": -4,
            "oppTrialScore": 0,
            "playerTotalScore": -506,
            "oppTotalScore": -52,
            "waitTime": 7498.248717136108,
            "responseTime": 1642468491453,
            "catchQuestion": "How many <b class=\"r\">red<\/b> marbles did your opponent report drawing? ",
            "catchKey": -1,
            "catchResponse": -1,
            "catchTime": 1642468491453,
            "trialTime": 0
        },
        {
            "exptPart": "trial",
            "trialNumber": 51,
            "roleCurrent": "sender",
            "marblesSampled": 100,
            "probRed": 0.5,
            "lambda": 5,
            "drawnRed": 49,
            "reportedRed": 49,
            "inferredRed": 54,
            "playerTrialScore": 0,
            "oppTrialScore": -5,
            "playerTotalScore": -506,
            "oppTotalScore": -57,
            "waitTime": 2608.73117952359,
            "responseTime": 1642468501777,
            "catchQuestion": "How many <b class=\"r\">red<\/b> marbles did your opponent report drawing? ",
            "catchKey": -1,
            "catchResponse": -1,
            "catchTime": 1642468491453,
            "trialTime": 0
        },
        {
            "exptPart": "trial",
            "trialNumber": 52,
            "roleCurrent": "receiver",
            "marblesSampled": 100,
            "probRed": 0.5,
            "lambda": 5,
            "drawnRed": 38,
            "reportedRed": 30,
            "inferredRed": 33,
            "playerTrialScore": -5,
            "oppTrialScore": 5,
            "playerTotalScore": -511,
            "oppTotalScore": -52,
            "waitTime": 7403.067028998831,
            "responseTime": 1642468513329,
            "catchQuestion": "How many <b class=\"r\">red<\/b> marbles did your opponent report drawing? ",
            "catchKey": -1,
            "catchResponse": -1,
            "catchTime": 1642468491453,
            "trialTime": 0
        },
        {
            "exptPart": "trial",
            "trialNumber": 53,
            "roleCurrent": "sender",
            "marblesSampled": 100,
            "probRed": 0.5,
            "lambda": 5,
            "drawnRed": 39,
            "reportedRed": 39,
            "inferredRed": 43,
            "playerTrialScore": 0,
            "oppTrialScore": -4,
            "playerTotalScore": -511,
            "oppTotalScore": -56,
            "waitTime": 2216.060978598734,
            "responseTime": 1642468520537,
            "catchQuestion": "How many <b class=\"r\">red<\/b> marbles did your opponent report drawing? ",
            "catchKey": -1,
            "catchResponse": -1,
            "catchTime": 1642468491453,
            "trialTime": 0
        },
        {
            "exptPart": "trial",
            "trialNumber": 54,
            "roleCurrent": "receiver",
            "marblesSampled": 100,
            "probRed": 0.5,
            "lambda": 5,
            "drawnRed": 38,
            "reportedRed": 30,
            "inferredRed": 31,
            "playerTrialScore": -7,
            "oppTrialScore": 7,
            "playerTotalScore": -518,
            "oppTotalScore": -49,
            "waitTime": 5200.264602561163,
            "responseTime": 1642468529776,
            "catchQuestion": "How many <b class=\"r\">red<\/b> marbles did your opponent report drawing? ",
            "catchKey": -1,
            "catchResponse": -1,
            "catchTime": 1642468491453,
            "trialTime": 0
        },
        {
            "exptPart": "trial",
            "trialNumber": 55,
            "roleCurrent": "sender",
            "marblesSampled": 100,
            "probRed": 0.5,
            "lambda": 5,
            "drawnRed": 39,
            "reportedRed": 39,
            "inferredRed": 45,
            "playerTrialScore": 0,
            "oppTrialScore": -6,
            "playerTotalScore": -518,
            "oppTotalScore": -55,
            "waitTime": 2396.1177257269965,
            "responseTime": 1642468536153,
            "catchQuestion": "How many <b class=\"r\">red<\/b> marbles did your opponent report drawing? ",
            "catchKey": -1,
            "catchResponse": -1,
            "catchTime": 1642468536153,
            "trialTime": 0
        },
        {
            "exptPart": "trial",
            "trialNumber": 56,
            "roleCurrent": "receiver",
            "marblesSampled": 100,
            "probRed": 0.5,
            "lambda": 5,
            "drawnRed": 52,
            "reportedRed": 46,
            "inferredRed": 46,
            "playerTrialScore": -6,
            "oppTrialScore": 6,
            "playerTotalScore": -524,
            "oppTotalScore": -49,
            "waitTime": 5309.802640412778,
            "responseTime": 1642468546452,
            "catchQuestion": "How many <b class=\"r\">red<\/b> marbles did your opponent report drawing? ",
            "catchKey": -1,
            "catchResponse": -1,
            "catchTime": 1642468536153,
            "trialTime": 0
        },
        {
            "exptPart": "trial",
            "trialNumber": 57,
            "roleCurrent": "sender",
            "marblesSampled": 100,
            "probRed": 0.5,
            "lambda": 5,
            "drawnRed": 33,
            "reportedRed": 33,
            "inferredRed": 39,
            "playerTrialScore": 0,
            "oppTrialScore": -6,
            "playerTotalScore": -524,
            "oppTotalScore": -55,
            "waitTime": 3154.3523350161477,
            "responseTime": 1642468554088,
            "catchQuestion": "How many <b class=\"r\">red<\/b> marbles did your opponent report drawing? ",
            "catchKey": -1,
            "catchResponse": -1,
            "catchTime": 1642468536153,
            "trialTime": 0
        },
        {
            "exptPart": "trial",
            "trialNumber": 58,
            "roleCurrent": "receiver",
            "marblesSampled": 100,
            "probRed": 0.5,
            "lambda": 5,
            "drawnRed": 78,
            "reportedRed": 75,
            "inferredRed": 75,
            "playerTrialScore": -3,
            "oppTrialScore": 3,
            "playerTotalScore": -527,
            "oppTotalScore": -52,
            "waitTime": 6143.378469647242,
            "responseTime": 1642468563345,
            "catchQuestion": "How many <b class=\"r\">red<\/b> marbles did your opponent report drawing? ",
            "catchKey": -1,
            "catchResponse": -1,
            "catchTime": 1642468536153,
            "trialTime": 0
        },
        {
            "exptPart": "trial",
            "trialNumber": 59,
            "roleCurrent": "sender",
            "marblesSampled": 100,
            "probRed": 0.5,
            "lambda": 5,
            "drawnRed": 63,
            "reportedRed": 63,
            "inferredRed": 67,
            "playerTrialScore": 0,
            "oppTrialScore": -4,
            "playerTotalScore": -527,
            "oppTotalScore": -56,
            "waitTime": 2477.533964198745,
            "responseTime": 1642468570073,
            "catchQuestion": "How many <b class=\"r\">red<\/b> marbles did your opponent report drawing? ",
            "catchKey": -1,
            "catchResponse": -1,
            "catchTime": 1642468536153,
            "trialTime": 0
        },
        {
            "exptPart": "trial",
            "trialNumber": 60,
            "roleCurrent": "receiver",
            "marblesSampled": 100,
            "probRed": 0.5,
            "lambda": 5,
            "drawnRed": 60,
            "reportedRed": 55,
            "inferredRed": 55,
            "playerTrialScore": -5,
            "oppTrialScore": 5,
            "playerTotalScore": -532,
            "oppTotalScore": -51,
            "waitTime": 5530.825898756555,
            "responseTime": 1642468578008,
            "catchQuestion": "How many <b class=\"r\">red<\/b> marbles did your opponent report drawing? ",
            "catchKey": 55,
            "catchResponse": 55,
            "catchTime": 1642468578008,
            "trialTime": 0
        },
        {
            "exptPart": "trial",
            "trialNumber": 61,
            "roleCurrent": "sender",
            "marblesSampled": 100,
            "probRed": 0.5,
            "lambda": 5,
            "drawnRed": 48,
            "reportedRed": 48,
            "inferredRed": 54,
            "playerTrialScore": 0,
            "oppTrialScore": -6,
            "playerTotalScore": -532,
            "oppTotalScore": -57,
            "waitTime": 2095.6201343227476,
            "responseTime": 1642468590065,
            "catchQuestion": "How many <b class=\"r\">red<\/b> marbles did your opponent report drawing? ",
            "catchKey": -1,
            "catchResponse": -1,
            "catchTime": 1642468578008,
            "trialTime": 0
        },
        {
            "exptPart": "trial",
            "trialNumber": 62,
            "roleCurrent": "receiver",
            "marblesSampled": 100,
            "probRed": 0.5,
            "lambda": 5,
            "drawnRed": 70,
            "reportedRed": 67,
            "inferredRed": 67,
            "playerTrialScore": -3,
            "oppTrialScore": 3,
            "playerTotalScore": -535,
            "oppTotalScore": -54,
            "waitTime": 5521.407541317694,
            "responseTime": 1642468598671,
            "catchQuestion": "How many <b class=\"r\">red<\/b> marbles did your opponent report drawing? ",
            "catchKey": -1,
            "catchResponse": -1,
            "catchTime": 1642468578008,
            "trialTime": 0
        },
        {
            "exptPart": "trial",
            "trialNumber": 63,
            "roleCurrent": "sender",
            "marblesSampled": 100,
            "probRed": 0.5,
            "lambda": 5,
            "drawnRed": 30,
            "reportedRed": 30,
            "inferredRed": 34,
            "playerTrialScore": 0,
            "oppTrialScore": -4,
            "playerTotalScore": -535,
            "oppTotalScore": -58,
            "waitTime": 3022.504439827566,
            "responseTime": 1642468606025,
            "catchQuestion": "How many <b class=\"r\">red<\/b> marbles did your opponent report drawing? ",
            "catchKey": -1,
            "catchResponse": -1,
            "catchTime": 1642468578008,
            "trialTime": 0
        },
        {
            "exptPart": "trial",
            "trialNumber": 64,
            "roleCurrent": "receiver",
            "marblesSampled": 100,
            "probRed": 0.5,
            "lambda": 5,
            "drawnRed": 74,
            "reportedRed": 67,
            "inferredRed": 67,
            "playerTrialScore": -7,
            "oppTrialScore": 7,
            "playerTotalScore": -542,
            "oppTotalScore": -51,
            "waitTime": 5502.875177229166,
            "responseTime": 1642468617824,
            "catchQuestion": "How many <b class=\"r\">red<\/b> marbles did your opponent report drawing? ",
            "catchKey": 67,
            "catchResponse": 67,
            "catchTime": 1642468617824,
            "trialTime": 0
        },
        {
            "exptPart": "trial",
            "trialNumber": 65,
            "roleCurrent": "sender",
            "marblesSampled": 100,
            "probRed": 0.5,
            "lambda": 5,
            "drawnRed": 54,
            "reportedRed": 54,
            "inferredRed": 58,
            "playerTrialScore": 0,
            "oppTrialScore": -4,
            "playerTotalScore": -542,
            "oppTotalScore": -55,
            "waitTime": 2116.3713997036584,
            "responseTime": 1642468627329,
            "catchQuestion": "How many <b class=\"r\">red<\/b> marbles did your opponent report drawing? ",
            "catchKey": -1,
            "catchResponse": -1,
            "catchTime": 1642468627329,
            "trialTime": 0
        },
        {
            "exptPart": "trial",
            "trialNumber": 66,
            "roleCurrent": "receiver",
            "marblesSampled": 100,
            "probRed": 0.5,
            "lambda": 5,
            "drawnRed": 24,
            "reportedRed": 19,
            "inferredRed": 0,
            "playerTrialScore": -24,
            "oppTrialScore": 24,
            "playerTotalScore": -566,
            "oppTotalScore": -31,
            "waitTime": 6435.561901685558,
            "responseTime": 1642468641919,
            "catchQuestion": "How many <b class=\"r\">red<\/b> marbles did your opponent report drawing? ",
            "catchKey": 19,
            "catchResponse": 19,
            "catchTime": 1642468641919,
            "trialTime": 0
        },
        {
            "exptPart": "trial",
            "trialNumber": 67,
            "roleCurrent": "sender",
            "marblesSampled": 100,
            "probRed": 0.5,
            "lambda": 5,
            "drawnRed": 21,
            "reportedRed": 21,
            "inferredRed": 22,
            "playerTrialScore": 0,
            "oppTrialScore": -1,
            "playerTotalScore": -566,
            "oppTotalScore": -32,
            "waitTime": 3190.2126441996734,
            "responseTime": 1642468652610,
            "catchQuestion": "How many <b class=\"r\">red<\/b> marbles did your opponent report drawing? ",
            "catchKey": -1,
            "catchResponse": -1,
            "catchTime": 1642468641919,
            "trialTime": 0
        },
        {
            "exptPart": "trial",
            "trialNumber": 68,
            "roleCurrent": "receiver",
            "marblesSampled": 100,
            "probRed": 0.5,
            "lambda": 5,
            "drawnRed": 53,
            "reportedRed": 51,
            "inferredRed": 0,
            "playerTrialScore": -53,
            "oppTrialScore": 53,
            "playerTotalScore": -619,
            "oppTotalScore": 21,
            "waitTime": 5368.023908573685,
            "responseTime": 1642468660809,
            "catchQuestion": "How many <b class=\"r\">red<\/b> marbles did your opponent report drawing? ",
            "catchKey": -1,
            "catchResponse": -1,
            "catchTime": 1642468641919,
            "trialTime": 0
        },
        {
            "exptPart": "trial",
            "trialNumber": 69,
            "roleCurrent": "sender",
            "marblesSampled": 100,
            "probRed": 0.5,
            "lambda": 5,
            "drawnRed": 60,
            "reportedRed": 60,
            "inferredRed": 67,
            "playerTrialScore": 0,
            "oppTrialScore": -7,
            "playerTotalScore": -619,
            "oppTotalScore": 14,
            "waitTime": 2490.3651428667563,
            "responseTime": 1642468667545,
            "catchQuestion": "How many <b class=\"r\">red<\/b> marbles did your opponent report drawing? ",
            "catchKey": -1,
            "catchResponse": -1,
            "catchTime": 1642468641919,
            "trialTime": 0
        },
        {
            "exptPart": "trial",
            "trialNumber": 70,
            "roleCurrent": "receiver",
            "marblesSampled": 100,
            "probRed": 0.5,
            "lambda": 5,
            "drawnRed": 46,
            "reportedRed": 42,
            "inferredRed": 0,
            "playerTrialScore": -46,
            "oppTrialScore": 46,
            "playerTotalScore": -665,
            "oppTotalScore": 60,
            "waitTime": 6071.205449010475,
            "responseTime": 1642468676690,
            "catchQuestion": "How many <b class=\"r\">red<\/b> marbles did your opponent report drawing? ",
            "catchKey": -1,
            "catchResponse": -1,
            "catchTime": 1642468676690,
            "trialTime": 0
        },
        {
            "exptPart": "trial",
            "trialNumber": 71,
            "roleCurrent": "sender",
            "marblesSampled": 100,
            "probRed": 0.5,
            "lambda": 5,
            "drawnRed": 31,
            "reportedRed": 31,
            "inferredRed": 40,
            "playerTrialScore": 0,
            "oppTrialScore": -9,
            "playerTotalScore": -665,
            "oppTotalScore": 51,
            "waitTime": 2317.3009292500847,
            "responseTime": 1642468690634,
            "catchQuestion": "How many <b class=\"r\">red<\/b> marbles did your opponent report drawing? ",
            "catchKey": -1,
            "catchResponse": -1,
            "catchTime": 1642468676690,
            "trialTime": 0
        },
        {
            "exptPart": "trial",
            "trialNumber": 72,
            "roleCurrent": "receiver",
            "marblesSampled": 100,
            "probRed": 0.5,
            "lambda": 5,
            "drawnRed": 24,
            "reportedRed": 16,
            "inferredRed": 200,
            "playerTrialScore": -176,
            "oppTrialScore": 0,
            "playerTotalScore": -841,
            "oppTotalScore": 51,
            "waitTime": 5297.436207460418,
            "responseTime": 1642468717616,
            "catchQuestion": "How many <b class=\"r\">red<\/b> marbles did your opponent report drawing? ",
            "catchKey": -1,
            "catchResponse": -1,
            "catchTime": 1642468676690,
            "trialTime": 0
        },
        {
            "exptPart": "trial",
            "trialNumber": 73,
            "roleCurrent": "sender",
            "marblesSampled": 100,
            "probRed": 0.5,
            "lambda": 5,
            "drawnRed": 62,
            "reportedRed": 62,
            "inferredRed": 66,
            "playerTrialScore": 0,
            "oppTrialScore": -4,
            "playerTotalScore": -841,
            "oppTotalScore": 47,
            "waitTime": 2680.074651945988,
            "responseTime": 1642468724674,
            "catchQuestion": "How many <b class=\"r\">red<\/b> marbles did your opponent report drawing? ",
            "catchKey": -1,
            "catchResponse": -1,
            "catchTime": 1642468676690,
            "trialTime": 0
        },
        {
            "exptPart": "trial",
            "trialNumber": 74,
            "roleCurrent": "receiver",
            "marblesSampled": 100,
            "probRed": 0.5,
            "lambda": 5,
            "drawnRed": 7,
            "reportedRed": 2,
            "inferredRed": 800,
            "playerTrialScore": -793,
            "oppTrialScore": 0,
            "playerTotalScore": -1634,
            "oppTotalScore": 47,
            "waitTime": 7167.317358236273,
            "responseTime": 1642468747896,
            "catchQuestion": "How many <b class=\"r\">red<\/b> marbles did your opponent report drawing? ",
            "catchKey": -1,
            "catchResponse": -1,
            "catchTime": 1642468676690,
            "trialTime": 0
        },
        {
            "exptPart": "trial",
            "trialNumber": 75,
            "roleCurrent": "sender",
            "marblesSampled": 100,
            "probRed": 0.5,
            "lambda": 5,
            "drawnRed": 70,
            "reportedRed": 70,
            "inferredRed": 75,
            "playerTrialScore": 0,
            "oppTrialScore": -5,
            "playerTotalScore": -1634,
            "oppTotalScore": 42,
            "waitTime": 2579.546289563449,
            "responseTime": 1642468754538,
            "catchQuestion": "How many <b class=\"r\">red<\/b> marbles did your opponent report drawing? ",
            "catchKey": -1,
            "catchResponse": -1,
            "catchTime": 1642468754538,
            "trialTime": 0
        },
        {
            "exptPart": "trial",
            "trialNumber": 76,
            "roleCurrent": "receiver",
            "marblesSampled": 100,
            "probRed": 0.5,
            "lambda": 5,
            "drawnRed": 60,
            "reportedRed": 56,
            "inferredRed": 55,
            "playerTrialScore": -5,
            "oppTrialScore": 5,
            "playerTotalScore": -1639,
            "oppTotalScore": 47,
            "waitTime": 6588.905936287521,
            "responseTime": 1642468773068,
            "catchQuestion": "How many <b class=\"r\">red<\/b> marbles did your opponent report drawing? ",
            "catchKey": -1,
            "catchResponse": -1,
            "catchTime": 1642468754538,
            "trialTime": 0
        },
        {
            "exptPart": "trial",
            "trialNumber": 77,
            "roleCurrent": "sender",
            "marblesSampled": 100,
            "probRed": 0.5,
            "lambda": 5,
            "drawnRed": 18,
            "reportedRed": 16,
            "inferredRed": 16,
            "playerTrialScore": 2,
            "oppTrialScore": -2,
            "playerTotalScore": -1637,
            "oppTotalScore": 45,
            "waitTime": 3050.407689357243,
            "responseTime": 1642468781922,
            "catchQuestion": "How many <b class=\"r\">red<\/b> marbles did your opponent report drawing? ",
            "catchKey": -1,
            "catchResponse": -1,
            "catchTime": 1642468754538,
            "trialTime": 0
        },
        {
            "exptPart": "trial",
            "trialNumber": 78,
            "roleCurrent": "receiver",
            "marblesSampled": 100,
            "probRed": 0.5,
            "lambda": 5,
            "drawnRed": 64,
            "reportedRed": 60,
            "inferredRed": 65,
            "playerTrialScore": -1,
            "oppTrialScore": 0,
            "playerTotalScore": -1638,
            "oppTotalScore": 45,
            "waitTime": 6984.222879772915,
            "responseTime": 1642468792833,
            "catchQuestion": "How many <b class=\"r\">red<\/b> marbles did your opponent report drawing? ",
            "catchKey": -1,
            "catchResponse": -1,
            "catchTime": 1642468754538,
            "trialTime": 0
        },
        {
            "exptPart": "trial",
            "trialNumber": 79,
            "roleCurrent": "sender",
            "marblesSampled": 100,
            "probRed": 0.5,
            "lambda": 5,
            "drawnRed": 29,
            "reportedRed": 29,
            "inferredRed": 38,
            "playerTrialScore": 0,
            "oppTrialScore": -9,
            "playerTotalScore": -1638,
            "oppTotalScore": 36,
            "waitTime": 2992.934376938655,
            "responseTime": 1642468805322,
            "catchQuestion": "How many <b class=\"r\">red<\/b> marbles did your opponent report drawing? ",
            "catchKey": -1,
            "catchResponse": -1,
            "catchTime": 1642468754538,
            "trialTime": 0
        },
        {
            "exptPart": "trial",
            "trialNumber": 80,
            "roleCurrent": "receiver",
            "marblesSampled": 100,
            "probRed": 0.5,
            "lambda": 5,
            "drawnRed": 23,
            "reportedRed": 15,
            "inferredRed": 15,
            "playerTrialScore": -8,
            "oppTrialScore": 8,
            "playerTotalScore": -1646,
            "oppTotalScore": 44,
            "waitTime": 6090.299071302685,
            "responseTime": 1642468814709,
            "catchQuestion": "How many <b class=\"r\">red<\/b> marbles did your opponent report drawing? ",
            "catchKey": -1,
            "catchResponse": -1,
            "catchTime": 1642468814709,
            "trialTime": 0
        },
        {
            "exptPart": "trial",
            "trialNumber": 81,
            "roleCurrent": "sender",
            "marblesSampled": 100,
            "probRed": 0.5,
            "lambda": 5,
            "drawnRed": 79,
            "reportedRed": 79,
            "inferredRed": 81,
            "playerTrialScore": 0,
            "oppTrialScore": -2,
            "playerTotalScore": -1646,
            "oppTotalScore": 42,
            "waitTime": 2876.564104916525,
            "responseTime": 1642468833746,
            "catchQuestion": "How many <b class=\"r\">red<\/b> marbles did your opponent report drawing? ",
            "catchKey": -1,
            "catchResponse": -1,
            "catchTime": 1642468814709,
            "trialTime": 0
        },
        {
            "exptPart": "trial",
            "trialNumber": 82,
            "roleCurrent": "receiver",
            "marblesSampled": 100,
            "probRed": 0.5,
            "lambda": 5,
            "drawnRed": 25,
            "reportedRed": 19,
            "inferredRed": -99,
            "playerTrialScore": -124,
            "oppTrialScore": 124,
            "playerTotalScore": -1770,
            "oppTotalScore": 166,
            "waitTime": 6002.572759470236,
            "responseTime": 1642468856161,
            "catchQuestion": "How many <b class=\"r\">red<\/b> marbles did your opponent report drawing? ",
            "catchKey": -1,
            "catchResponse": -1,
            "catchTime": 1642468814709,
            "trialTime": 0
        },
        {
            "exptPart": "trial",
            "trialNumber": 83,
            "roleCurrent": "sender",
            "marblesSampled": 100,
            "probRed": 0.5,
            "lambda": 5,
            "drawnRed": 33,
            "reportedRed": 33,
            "inferredRed": 36,
            "playerTrialScore": 0,
            "oppTrialScore": -3,
            "playerTotalScore": -1770,
            "oppTotalScore": 163,
            "waitTime": 2066.3939647693282,
            "responseTime": 1642468862961,
            "catchQuestion": "How many <b class=\"r\">red<\/b> marbles did your opponent report drawing? ",
            "catchKey": -1,
            "catchResponse": -1,
            "catchTime": 1642468814709,
            "trialTime": 0
        },
        {
            "exptPart": "trial",
            "trialNumber": 84,
            "roleCurrent": "receiver",
            "marblesSampled": 100,
            "probRed": 0.5,
            "lambda": 5,
            "drawnRed": 44,
            "reportedRed": 35,
            "inferredRed": 35,
            "playerTrialScore": -9,
            "oppTrialScore": 9,
            "playerTotalScore": -1779,
            "oppTotalScore": 172,
            "waitTime": 6892.094522725345,
            "responseTime": 1642468876168,
            "catchQuestion": "How many <b class=\"r\">red<\/b> marbles did your opponent report drawing? ",
            "catchKey": -1,
            "catchResponse": -1,
            "catchTime": 1642468814709,
            "trialTime": 0
        },
        {
            "exptPart": "trial",
            "trialNumber": 85,
            "roleCurrent": "sender",
            "marblesSampled": 100,
            "probRed": 0.5,
            "lambda": 5,
            "drawnRed": 42,
            "reportedRed": 42,
            "inferredRed": 46,
            "playerTrialScore": 0,
            "oppTrialScore": -4,
            "playerTotalScore": -1779,
            "oppTotalScore": 168,
            "waitTime": 2126.130713664556,
            "responseTime": 1642468882785,
            "catchQuestion": "How many <b class=\"r\">red<\/b> marbles did your opponent report drawing? ",
            "catchKey": -1,
            "catchResponse": -1,
            "catchTime": 1642468882785,
            "trialTime": 0
        },
        {
            "exptPart": "trial",
            "trialNumber": 86,
            "roleCurrent": "receiver",
            "marblesSampled": 100,
            "probRed": 0.5,
            "lambda": 5,
            "drawnRed": 41,
            "reportedRed": 37,
            "inferredRed": 999,
            "playerTrialScore": -958,
            "oppTrialScore": 0,
            "playerTotalScore": -2737,
            "oppTotalScore": 168,
            "waitTime": 5348.864182793146,
            "responseTime": 1642468904183,
            "catchQuestion": "How many <b class=\"r\">red<\/b> marbles did your opponent report drawing? ",
            "catchKey": -1,
            "catchResponse": -1,
            "catchTime": 1642468882785,
            "trialTime": 0
        },
        {
            "exptPart": "trial",
            "trialNumber": 87,
            "roleCurrent": "sender",
            "marblesSampled": 100,
            "probRed": 0.5,
            "lambda": 5,
            "drawnRed": 78,
            "reportedRed": 78,
            "inferredRed": 85,
            "playerTrialScore": 0,
            "oppTrialScore": -7,
            "playerTotalScore": -2737,
            "oppTotalScore": 161,
            "waitTime": 2509.523171579928,
            "responseTime": 1642468911513,
            "catchQuestion": "How many <b class=\"r\">red<\/b> marbles did your opponent report drawing? ",
            "catchKey": -1,
            "catchResponse": -1,
            "catchTime": 1642468882785,
            "trialTime": 0
        },
        {
            "exptPart": "trial",
            "trialNumber": 88,
            "roleCurrent": "receiver",
            "marblesSampled": 100,
            "probRed": 0.5,
            "lambda": 5,
            "drawnRed": 68,
            "reportedRed": 61,
            "inferredRed": 23,
            "playerTrialScore": -45,
            "oppTrialScore": 45,
            "playerTotalScore": -2782,
            "oppTotalScore": 206,
            "waitTime": 5386.855589290404,
            "responseTime": 1642468919680,
            "catchQuestion": "How many <b class=\"r\">red<\/b> marbles did your opponent report drawing? ",
            "catchKey": 61,
            "catchResponse": 61,
            "catchTime": 1642468919680,
            "trialTime": 0
        },
        {
            "exptPart": "trial",
            "trialNumber": 89,
            "roleCurrent": "sender",
            "marblesSampled": 100,
            "probRed": 0.5,
            "lambda": 5,
            "drawnRed": 93,
            "reportedRed": 93,
            "inferredRed": 96,
            "playerTrialScore": 0,
            "oppTrialScore": -3,
            "playerTotalScore": -2782,
            "oppTotalScore": 203,
            "waitTime": 2300.5196514252084,
            "responseTime": 1642468930377,
            "catchQuestion": "How many <b class=\"r\">red<\/b> marbles did you actually draw (before any changes)? ",
            "catchKey": 93,
            "catchResponse": 93,
            "catchTime": 1642468930377,
            "trialTime": 0
        },
        {
            "exptPart": "trial",
            "trialNumber": 90,
            "roleCurrent": "receiver",
            "marblesSampled": 100,
            "probRed": 0.5,
            "lambda": 5,
            "drawnRed": 76,
            "reportedRed": 74,
            "inferredRed": 74,
            "playerTrialScore": -2,
            "oppTrialScore": 2,
            "playerTotalScore": -2784,
            "oppTotalScore": 205,
            "waitTime": 5661.915459209229,
            "responseTime": 1642468942710,
            "catchQuestion": "How many <b class=\"r\">red<\/b> marbles did you actually draw (before any changes)? ",
            "catchKey": -1,
            "catchResponse": -1,
            "catchTime": 1642468942710,
            "trialTime": 0
        },
        {
            "exptPart": "trial",
            "trialNumber": 91,
            "roleCurrent": "sender",
            "marblesSampled": 100,
            "probRed": 0.5,
            "lambda": 5,
            "drawnRed": 8,
            "reportedRed": 8,
            "inferredRed": 12,
            "playerTrialScore": 0,
            "oppTrialScore": -4,
            "playerTotalScore": -2784,
            "oppTotalScore": 201,
            "waitTime": 3001.615304849118,
            "responseTime": 1642468951691,
            "catchQuestion": "How many <b class=\"r\">red<\/b> marbles did you actually draw (before any changes)? ",
            "catchKey": -1,
            "catchResponse": -1,
            "catchTime": 1642468942710,
            "trialTime": 0
        },
        {
            "exptPart": "trial",
            "trialNumber": 92,
            "roleCurrent": "receiver",
            "marblesSampled": 100,
            "probRed": 0.5,
            "lambda": 5,
            "drawnRed": 33,
            "reportedRed": 27,
            "inferredRed": 27,
            "playerTrialScore": -6,
            "oppTrialScore": 6,
            "playerTotalScore": -2790,
            "oppTotalScore": 207,
            "waitTime": 6973.093454417873,
            "responseTime": 1642468961899,
            "catchQuestion": "How many <b class=\"r\">red<\/b> marbles did you actually draw (before any changes)? ",
            "catchKey": -1,
            "catchResponse": -1,
            "catchTime": 1642468942710,
            "trialTime": 0
        },
        {
            "exptPart": "trial",
            "trialNumber": 93,
            "roleCurrent": "sender",
            "marblesSampled": 100,
            "probRed": 0.5,
            "lambda": 5,
            "drawnRed": 76,
            "reportedRed": 76,
            "inferredRed": 81,
            "playerTrialScore": 0,
            "oppTrialScore": -5,
            "playerTotalScore": -2790,
            "oppTotalScore": 202,
            "waitTime": 2382.2105965637743,
            "responseTime": 1642468969131,
            "catchQuestion": "How many <b class=\"r\">red<\/b> marbles did you actually draw (before any changes)? ",
            "catchKey": -1,
            "catchResponse": -1,
            "catchTime": 1642468942710,
            "trialTime": 0
        },
        {
            "exptPart": "trial",
            "trialNumber": 94,
            "roleCurrent": "receiver",
            "marblesSampled": 100,
            "probRed": 0.5,
            "lambda": 5,
            "drawnRed": 29,
            "reportedRed": 24,
            "inferredRed": 24,
            "playerTrialScore": -5,
            "oppTrialScore": 5,
            "playerTotalScore": -2795,
            "oppTotalScore": 207,
            "waitTime": 5509.041600099073,
            "responseTime": 1642468977537,
            "catchQuestion": "How many <b class=\"r\">red<\/b> marbles did you actually draw (before any changes)? ",
            "catchKey": -1,
            "catchResponse": -1,
            "catchTime": 1642468942710,
            "trialTime": 0
        },
        {
            "exptPart": "trial",
            "trialNumber": 95,
            "roleCurrent": "sender",
            "marblesSampled": 100,
            "probRed": 0.5,
            "lambda": 5,
            "drawnRed": 47,
            "reportedRed": 47,
            "inferredRed": 55,
            "playerTrialScore": 0,
            "oppTrialScore": -8,
            "playerTotalScore": -2795,
            "oppTotalScore": 199,
            "waitTime": 2915.804091912444,
            "responseTime": 1642468984995,
            "catchQuestion": "How many <b class=\"r\">red<\/b> marbles did you actually draw (before any changes)? ",
            "catchKey": -1,
            "catchResponse": -1,
            "catchTime": 1642468984995,
            "trialTime": 0
        },
        {
            "exptPart": "trial",
            "trialNumber": 96,
            "roleCurrent": "receiver",
            "marblesSampled": 100,
            "probRed": 0.5,
            "lambda": 5,
            "drawnRed": 71,
            "reportedRed": 69,
            "inferredRed": 69,
            "playerTrialScore": -2,
            "oppTrialScore": 2,
            "playerTotalScore": -2797,
            "oppTotalScore": 201,
            "waitTime": 5628.645301213662,
            "responseTime": 1642468994561,
            "catchQuestion": "How many <b class=\"r\">red<\/b> marbles did you actually draw (before any changes)? ",
            "catchKey": -1,
            "catchResponse": -1,
            "catchTime": 1642468984995,
            "trialTime": 0
        },
        {
            "exptPart": "trial",
            "trialNumber": 97,
            "roleCurrent": "sender",
            "marblesSampled": 100,
            "probRed": 0.5,
            "lambda": 5,
            "drawnRed": 29,
            "reportedRed": 29,
            "inferredRed": 33,
            "playerTrialScore": 0,
            "oppTrialScore": -4,
            "playerTotalScore": -2797,
            "oppTotalScore": 197,
            "waitTime": 2177.3667830966524,
            "responseTime": 1642469002138,
            "catchQuestion": "How many <b class=\"r\">red<\/b> marbles did you actually draw (before any changes)? ",
            "catchKey": -1,
            "catchResponse": -1,
            "catchTime": 1642468984995,
            "trialTime": 0
        },
        {
            "exptPart": "trial",
            "trialNumber": 98,
            "roleCurrent": "receiver",
            "marblesSampled": 100,
            "probRed": 0.5,
            "lambda": 5,
            "drawnRed": 9,
            "reportedRed": 5,
            "inferredRed": 5,
            "playerTrialScore": -4,
            "oppTrialScore": 4,
            "playerTotalScore": -2801,
            "oppTotalScore": 201,
            "waitTime": 7474.292088670813,
            "responseTime": 1642469012643,
            "catchQuestion": "How many <b class=\"r\">red<\/b> marbles did you actually draw (before any changes)? ",
            "catchKey": -1,
            "catchResponse": -1,
            "catchTime": 1642468984995,
            "trialTime": 0
        },
        {
            "exptPart": "trial",
            "trialNumber": 99,
            "roleCurrent": "sender",
            "marblesSampled": 100,
            "probRed": 0.5,
            "lambda": 5,
            "drawnRed": 59,
            "reportedRed": 59,
            "inferredRed": 65,
            "playerTrialScore": 0,
            "oppTrialScore": -6,
            "playerTotalScore": -2801,
            "oppTotalScore": 195,
            "waitTime": 2708.993452570343,
            "responseTime": 1642469019603,
            "catchQuestion": "How many <b class=\"r\">red<\/b> marbles did you actually draw (before any changes)? ",
            "catchKey": -1,
            "catchResponse": -1,
            "catchTime": 1642468984995,
            "trialTime": 0
        },
        {
            "exptPart": "trial",
            "trialNumber": 100,
            "roleCurrent": "receiver",
            "marblesSampled": 100,
            "probRed": 0.5,
            "lambda": 5,
            "drawnRed": 98,
            "reportedRed": 91,
            "inferredRed": 91,
            "playerTrialScore": -7,
            "oppTrialScore": 7,
            "playerTotalScore": -2808,
            "oppTotalScore": 202,
            "waitTime": 5950.325735303133,
            "responseTime": 1642469028179,
            "catchQuestion": "How many <b class=\"r\">red<\/b> marbles did you actually draw (before any changes)? ",
            "catchKey": -1,
            "catchResponse": -1,
            "catchTime": 1642469028179,
            "trialTime": 0
        }
    ]
}