{
    "client": {
        "type": "sona",
        "experiment_id": 2228,
        "credit_token": "b315147ae43241ea9c65086cb510cfb7",
        "survey_code": "31867",
        "sid": "sona-31867",
        "window": {
            "width": 1368,
            "height": 912
        },
        "screen": {
            "width": 1368,
            "height": 912
        },
        "userAgent": "Mozilla\/5.0 (Windows NT 10.0; Win64; x64) AppleWebKit\/537.36 (KHTML, like Gecko) Chrome\/97.0.4692.71 Safari\/537.36",
        "score": 0,
        "bonus": 0
    },
    "expt": {
        "saveURL": "submit.simple.php",
        "trials": 100,
        "practiceTrials": 2,
        "marblesSampled": 100,
        "probRed": 0.5,
        "lambdaAI": 5,
        "roleFirst": "sender",
        "roles": [
            "sender",
            "receiver"
        ],
        "cost": "linear",
        "goal": "over",
        "catchTrials": [
            70,
            95,
            60,
            56,
            7,
            57,
            53,
            29,
            3,
            71
        ],
        "scoreTotal": {
            "player": 173,
            "opp": -253
        },
        "sona": {
            "experiment_id": 2228,
            "credit_token": "b315147ae43241ea9c65086cb510cfb7"
        },
        "pilot": false,
        "debug": false
    },
    "trials": [
        {
            "exptPart": "practice",
            "trialNumber": 1,
            "roleCurrent": "sender",
            "marblesSampled": 100,
            "probRed": 0.5,
            "lambda": 5,
            "drawnRed": 11,
            "reportedRed": 8,
            "inferredRed": 4,
            "playerTrialScore": 0,
            "oppTrialScore": -7,
            "playerTotalScore": 0,
            "oppTotalScore": -7,
            "waitTime": 2202.26626064436,
            "responseTime": 1642310064075,
            "catchQuestion": "How many <b class=\"r\">red<\/b> marbles did you actually draw (before any changes)? ",
            "catchKey": 11,
            "catchResponse": 11,
            "catchTime": 1642310064075,
            "trialTime": 0
        },
        {
            "exptPart": "practice",
            "trialNumber": 2,
            "roleCurrent": "receiver",
            "marblesSampled": 100,
            "probRed": 0.5,
            "lambda": 5,
            "drawnRed": 53,
            "reportedRed": 57,
            "inferredRed": 50,
            "playerTrialScore": -3,
            "oppTrialScore": 0,
            "playerTotalScore": -3,
            "oppTotalScore": -7,
            "waitTime": 5626.726875172157,
            "responseTime": 1642310166519,
            "catchQuestion": "How many <b class=\"r\">red<\/b> marbles did your opponent report drawing? ",
            "catchKey": 57,
            "catchResponse": 57,
            "catchTime": 1642310166519,
            "trialTime": 0
        },
        {
            "exptPart": "trial",
            "trialNumber": 1,
            "roleCurrent": "sender",
            "marblesSampled": 100,
            "probRed": 0.5,
            "lambda": 5,
            "drawnRed": 95,
            "reportedRed": 98,
            "inferredRed": 93,
            "playerTrialScore": 0,
            "oppTrialScore": -2,
            "playerTotalScore": 0,
            "oppTotalScore": -2,
            "waitTime": 2426.697116720803,
            "responseTime": 1642310225702,
            "catchQuestion": "How many <b class=\"r\">red<\/b> marbles did your opponent report drawing? ",
            "catchKey": -1,
            "catchResponse": -1,
            "catchTime": 1642310166519,
            "trialTime": 0
        },
        {
            "exptPart": "trial",
            "trialNumber": 2,
            "roleCurrent": "receiver",
            "marblesSampled": 100,
            "probRed": 0.5,
            "lambda": 5,
            "drawnRed": 68,
            "reportedRed": 71,
            "inferredRed": 68,
            "playerTrialScore": 0,
            "oppTrialScore": 0,
            "playerTotalScore": 0,
            "oppTotalScore": -2,
            "waitTime": 6094.8737236457055,
            "responseTime": 1642310240953,
            "catchQuestion": "How many <b class=\"r\">red<\/b> marbles did your opponent report drawing? ",
            "catchKey": -1,
            "catchResponse": -1,
            "catchTime": 1642310166519,
            "trialTime": 0
        },
        {
            "exptPart": "trial",
            "trialNumber": 3,
            "roleCurrent": "sender",
            "marblesSampled": 100,
            "probRed": 0.5,
            "lambda": 5,
            "drawnRed": 42,
            "reportedRed": 52,
            "inferredRed": 47,
            "playerTrialScore": 5,
            "oppTrialScore": -5,
            "playerTotalScore": 5,
            "oppTotalScore": -7,
            "waitTime": 2239.183647166127,
            "responseTime": 1642310295434,
            "catchQuestion": "How many <b class=\"r\">red<\/b> marbles did your opponent report drawing? ",
            "catchKey": -1,
            "catchResponse": -1,
            "catchTime": 1642310166519,
            "trialTime": 0
        },
        {
            "exptPart": "trial",
            "trialNumber": 4,
            "roleCurrent": "receiver",
            "marblesSampled": 100,
            "probRed": 0.5,
            "lambda": 5,
            "drawnRed": 24,
            "reportedRed": 28,
            "inferredRed": 23,
            "playerTrialScore": -1,
            "oppTrialScore": 0,
            "playerTotalScore": 4,
            "oppTotalScore": -7,
            "waitTime": 5203.237104248278,
            "responseTime": 1642310310533,
            "catchQuestion": "How many <b class=\"r\">red<\/b> marbles did your opponent report drawing? ",
            "catchKey": 28,
            "catchResponse": 28,
            "catchTime": 1642310310533,
            "trialTime": 0
        },
        {
            "exptPart": "trial",
            "trialNumber": 5,
            "roleCurrent": "sender",
            "marblesSampled": 100,
            "probRed": 0.5,
            "lambda": 5,
            "drawnRed": 60,
            "reportedRed": 70,
            "inferredRed": 66,
            "playerTrialScore": 6,
            "oppTrialScore": -6,
            "playerTotalScore": 10,
            "oppTotalScore": -13,
            "waitTime": 2421.4097526703326,
            "responseTime": 1642310355270,
            "catchQuestion": "How many <b class=\"r\">red<\/b> marbles did your opponent report drawing? ",
            "catchKey": -1,
            "catchResponse": -1,
            "catchTime": 1642310355270,
            "trialTime": 0
        },
        {
            "exptPart": "trial",
            "trialNumber": 6,
            "roleCurrent": "receiver",
            "marblesSampled": 100,
            "probRed": 0.5,
            "lambda": 5,
            "drawnRed": 88,
            "reportedRed": 93,
            "inferredRed": 87,
            "playerTrialScore": -1,
            "oppTrialScore": 0,
            "playerTotalScore": 9,
            "oppTotalScore": -13,
            "waitTime": 5299.832377945388,
            "responseTime": 1642310392490,
            "catchQuestion": "How many <b class=\"r\">red<\/b> marbles did your opponent report drawing? ",
            "catchKey": -1,
            "catchResponse": -1,
            "catchTime": 1642310355270,
            "trialTime": 0
        },
        {
            "exptPart": "trial",
            "trialNumber": 7,
            "roleCurrent": "sender",
            "marblesSampled": 100,
            "probRed": 0.5,
            "lambda": 5,
            "drawnRed": 31,
            "reportedRed": 42,
            "inferredRed": 37,
            "playerTrialScore": 6,
            "oppTrialScore": -6,
            "playerTotalScore": 15,
            "oppTotalScore": -19,
            "waitTime": 2784.1305225708456,
            "responseTime": 1642310440447,
            "catchQuestion": "How many <b class=\"r\">red<\/b> marbles did your opponent report drawing? ",
            "catchKey": -1,
            "catchResponse": -1,
            "catchTime": 1642310355270,
            "trialTime": 0
        },
        {
            "exptPart": "trial",
            "trialNumber": 8,
            "roleCurrent": "receiver",
            "marblesSampled": 100,
            "probRed": 0.5,
            "lambda": 5,
            "drawnRed": 54,
            "reportedRed": 56,
            "inferredRed": 51,
            "playerTrialScore": -3,
            "oppTrialScore": 0,
            "playerTotalScore": 12,
            "oppTotalScore": -19,
            "waitTime": 6489.546680216996,
            "responseTime": 1642310457870,
            "catchQuestion": "How many <b class=\"r\">red<\/b> marbles did your opponent report drawing? ",
            "catchKey": 56,
            "catchResponse": 56,
            "catchTime": 1642310457871,
            "trialTime": 0
        },
        {
            "exptPart": "trial",
            "trialNumber": 9,
            "roleCurrent": "sender",
            "marblesSampled": 100,
            "probRed": 0.5,
            "lambda": 5,
            "drawnRed": 33,
            "reportedRed": 38,
            "inferredRed": 34,
            "playerTrialScore": 1,
            "oppTrialScore": -1,
            "playerTotalScore": 13,
            "oppTotalScore": -20,
            "waitTime": 3228.759892312243,
            "responseTime": 1642310495024,
            "catchQuestion": "How many <b class=\"r\">red<\/b> marbles did your opponent report drawing? ",
            "catchKey": -1,
            "catchResponse": -1,
            "catchTime": 1642310457871,
            "trialTime": 0
        },
        {
            "exptPart": "trial",
            "trialNumber": 10,
            "roleCurrent": "receiver",
            "marblesSampled": 100,
            "probRed": 0.5,
            "lambda": 5,
            "drawnRed": 58,
            "reportedRed": 63,
            "inferredRed": 56,
            "playerTrialScore": -2,
            "oppTrialScore": 0,
            "playerTotalScore": 11,
            "oppTotalScore": -20,
            "waitTime": 5978.623029306198,
            "responseTime": 1642310661595,
            "catchQuestion": "How many <b class=\"r\">red<\/b> marbles did your opponent report drawing? ",
            "catchKey": -1,
            "catchResponse": -1,
            "catchTime": 1642310661595,
            "trialTime": 0
        },
        {
            "exptPart": "trial",
            "trialNumber": 11,
            "roleCurrent": "sender",
            "marblesSampled": 100,
            "probRed": 0.5,
            "lambda": 5,
            "drawnRed": 35,
            "reportedRed": 35,
            "inferredRed": 29,
            "playerTrialScore": 0,
            "oppTrialScore": -6,
            "playerTotalScore": 11,
            "oppTotalScore": -26,
            "waitTime": 3190.6498148490496,
            "responseTime": 1642310675638,
            "catchQuestion": "How many <b class=\"r\">red<\/b> marbles did your opponent report drawing? ",
            "catchKey": -1,
            "catchResponse": -1,
            "catchTime": 1642310661595,
            "trialTime": 0
        },
        {
            "exptPart": "trial",
            "trialNumber": 12,
            "roleCurrent": "receiver",
            "marblesSampled": 100,
            "probRed": 0.5,
            "lambda": 5,
            "drawnRed": 60,
            "reportedRed": 65,
            "inferredRed": 65,
            "playerTrialScore": -5,
            "oppTrialScore": 5,
            "playerTotalScore": 6,
            "oppTotalScore": -21,
            "waitTime": 5679.266799925952,
            "responseTime": 1642310690692,
            "catchQuestion": "How many <b class=\"r\">red<\/b> marbles did your opponent report drawing? ",
            "catchKey": -1,
            "catchResponse": -1,
            "catchTime": 1642310661595,
            "trialTime": 0
        },
        {
            "exptPart": "trial",
            "trialNumber": 13,
            "roleCurrent": "sender",
            "marblesSampled": 100,
            "probRed": 0.5,
            "lambda": 5,
            "drawnRed": 40,
            "reportedRed": 47,
            "inferredRed": 44,
            "playerTrialScore": 4,
            "oppTrialScore": -4,
            "playerTotalScore": 10,
            "oppTotalScore": -25,
            "waitTime": 2960.3275727564424,
            "responseTime": 1642310726286,
            "catchQuestion": "How many <b class=\"r\">red<\/b> marbles did your opponent report drawing? ",
            "catchKey": -1,
            "catchResponse": -1,
            "catchTime": 1642310661595,
            "trialTime": 0
        },
        {
            "exptPart": "trial",
            "trialNumber": 14,
            "roleCurrent": "receiver",
            "marblesSampled": 100,
            "probRed": 0.5,
            "lambda": 5,
            "drawnRed": 55,
            "reportedRed": 59,
            "inferredRed": 50,
            "playerTrialScore": -5,
            "oppTrialScore": 0,
            "playerTotalScore": 5,
            "oppTotalScore": -25,
            "waitTime": 6854.221321423005,
            "responseTime": 1642310739315,
            "catchQuestion": "How many <b class=\"r\">red<\/b> marbles did your opponent report drawing? ",
            "catchKey": -1,
            "catchResponse": -1,
            "catchTime": 1642310661595,
            "trialTime": 0
        },
        {
            "exptPart": "trial",
            "trialNumber": 15,
            "roleCurrent": "sender",
            "marblesSampled": 100,
            "probRed": 0.5,
            "lambda": 5,
            "drawnRed": 54,
            "reportedRed": 66,
            "inferredRed": 60,
            "playerTrialScore": 6,
            "oppTrialScore": -6,
            "playerTotalScore": 11,
            "oppTotalScore": -31,
            "waitTime": 2971.9024974582835,
            "responseTime": 1642310782123,
            "catchQuestion": "How many <b class=\"r\">red<\/b> marbles did your opponent report drawing? ",
            "catchKey": -1,
            "catchResponse": -1,
            "catchTime": 1642310782124,
            "trialTime": 0
        },
        {
            "exptPart": "trial",
            "trialNumber": 16,
            "roleCurrent": "receiver",
            "marblesSampled": 100,
            "probRed": 0.5,
            "lambda": 5,
            "drawnRed": 50,
            "reportedRed": 55,
            "inferredRed": 50,
            "playerTrialScore": 0,
            "oppTrialScore": 0,
            "playerTotalScore": 11,
            "oppTotalScore": -31,
            "waitTime": 6922.600578653461,
            "responseTime": 1642310821685,
            "catchQuestion": "How many <b class=\"r\">red<\/b> marbles did your opponent report drawing? ",
            "catchKey": -1,
            "catchResponse": -1,
            "catchTime": 1642310782124,
            "trialTime": 0
        },
        {
            "exptPart": "trial",
            "trialNumber": 17,
            "roleCurrent": "sender",
            "marblesSampled": 100,
            "probRed": 0.5,
            "lambda": 5,
            "drawnRed": 66,
            "reportedRed": 78,
            "inferredRed": 71,
            "playerTrialScore": 5,
            "oppTrialScore": -5,
            "playerTotalScore": 16,
            "oppTotalScore": -36,
            "waitTime": 2171.3878378903414,
            "responseTime": 1642310953390,
            "catchQuestion": "How many <b class=\"r\">red<\/b> marbles did your opponent report drawing? ",
            "catchKey": -1,
            "catchResponse": -1,
            "catchTime": 1642310782124,
            "trialTime": 0
        },
        {
            "exptPart": "trial",
            "trialNumber": 18,
            "roleCurrent": "receiver",
            "marblesSampled": 100,
            "probRed": 0.5,
            "lambda": 5,
            "drawnRed": 52,
            "reportedRed": 55,
            "inferredRed": 51,
            "playerTrialScore": -1,
            "oppTrialScore": 0,
            "playerTotalScore": 15,
            "oppTotalScore": -36,
            "waitTime": 6483.399440919757,
            "responseTime": 1642310988316,
            "catchQuestion": "How many <b class=\"r\">red<\/b> marbles did your opponent report drawing? ",
            "catchKey": -1,
            "catchResponse": -1,
            "catchTime": 1642310782124,
            "trialTime": 0
        },
        {
            "exptPart": "trial",
            "trialNumber": 19,
            "roleCurrent": "sender",
            "marblesSampled": 100,
            "probRed": 0.5,
            "lambda": 5,
            "drawnRed": 50,
            "reportedRed": 54,
            "inferredRed": 48,
            "playerTrialScore": 0,
            "oppTrialScore": -2,
            "playerTotalScore": 15,
            "oppTotalScore": -38,
            "waitTime": 3068.496559233285,
            "responseTime": 1642311013550,
            "catchQuestion": "How many <b class=\"r\">red<\/b> marbles did your opponent report drawing? ",
            "catchKey": -1,
            "catchResponse": -1,
            "catchTime": 1642310782124,
            "trialTime": 0
        },
        {
            "exptPart": "trial",
            "trialNumber": 20,
            "roleCurrent": "receiver",
            "marblesSampled": 100,
            "probRed": 0.5,
            "lambda": 5,
            "drawnRed": 61,
            "reportedRed": 67,
            "inferredRed": 60,
            "playerTrialScore": -1,
            "oppTrialScore": 0,
            "playerTotalScore": 14,
            "oppTotalScore": -38,
            "waitTime": 5670.780009912381,
            "responseTime": 1642311054469,
            "catchQuestion": "How many <b class=\"r\">red<\/b> marbles did your opponent report drawing? ",
            "catchKey": -1,
            "catchResponse": -1,
            "catchTime": 1642311054469,
            "trialTime": 0
        },
        {
            "exptPart": "trial",
            "trialNumber": 21,
            "roleCurrent": "sender",
            "marblesSampled": 100,
            "probRed": 0.5,
            "lambda": 5,
            "drawnRed": 32,
            "reportedRed": 37,
            "inferredRed": 30,
            "playerTrialScore": 0,
            "oppTrialScore": -2,
            "playerTotalScore": 14,
            "oppTotalScore": -40,
            "waitTime": 2814.470450880417,
            "responseTime": 1642311093431,
            "catchQuestion": "How many <b class=\"r\">red<\/b> marbles did your opponent report drawing? ",
            "catchKey": -1,
            "catchResponse": -1,
            "catchTime": 1642311054469,
            "trialTime": 0
        },
        {
            "exptPart": "trial",
            "trialNumber": 22,
            "roleCurrent": "receiver",
            "marblesSampled": 100,
            "probRed": 0.5,
            "lambda": 5,
            "drawnRed": 80,
            "reportedRed": 87,
            "inferredRed": 81,
            "playerTrialScore": -1,
            "oppTrialScore": 1,
            "playerTotalScore": 13,
            "oppTotalScore": -39,
            "waitTime": 5352.279062616843,
            "responseTime": 1642311143684,
            "catchQuestion": "How many <b class=\"r\">red<\/b> marbles did your opponent report drawing? ",
            "catchKey": -1,
            "catchResponse": -1,
            "catchTime": 1642311054469,
            "trialTime": 0
        },
        {
            "exptPart": "trial",
            "trialNumber": 23,
            "roleCurrent": "sender",
            "marblesSampled": 100,
            "probRed": 0.5,
            "lambda": 5,
            "drawnRed": 17,
            "reportedRed": 25,
            "inferredRed": 21,
            "playerTrialScore": 4,
            "oppTrialScore": -4,
            "playerTotalScore": 17,
            "oppTotalScore": -43,
            "waitTime": 2110.161110376249,
            "responseTime": 1642311304312,
            "catchQuestion": "How many <b class=\"r\">red<\/b> marbles did your opponent report drawing? ",
            "catchKey": -1,
            "catchResponse": -1,
            "catchTime": 1642311054469,
            "trialTime": 0
        },
        {
            "exptPart": "trial",
            "trialNumber": 24,
            "roleCurrent": "receiver",
            "marblesSampled": 100,
            "probRed": 0.5,
            "lambda": 5,
            "drawnRed": 46,
            "reportedRed": 51,
            "inferredRed": 46,
            "playerTrialScore": 0,
            "oppTrialScore": 0,
            "playerTotalScore": 17,
            "oppTotalScore": -43,
            "waitTime": 5725.170096634776,
            "responseTime": 1642311317904,
            "catchQuestion": "How many <b class=\"r\">red<\/b> marbles did your opponent report drawing? ",
            "catchKey": -1,
            "catchResponse": -1,
            "catchTime": 1642311054469,
            "trialTime": 0
        },
        {
            "exptPart": "trial",
            "trialNumber": 25,
            "roleCurrent": "sender",
            "marblesSampled": 100,
            "probRed": 0.5,
            "lambda": 5,
            "drawnRed": 59,
            "reportedRed": 72,
            "inferredRed": 66,
            "playerTrialScore": 7,
            "oppTrialScore": -7,
            "playerTotalScore": 24,
            "oppTotalScore": -50,
            "waitTime": 2815.003998343156,
            "responseTime": 1642311384627,
            "catchQuestion": "How many <b class=\"r\">red<\/b> marbles did your opponent report drawing? ",
            "catchKey": -1,
            "catchResponse": -1,
            "catchTime": 1642311384627,
            "trialTime": 0
        },
        {
            "exptPart": "trial",
            "trialNumber": 26,
            "roleCurrent": "receiver",
            "marblesSampled": 100,
            "probRed": 0.5,
            "lambda": 5,
            "drawnRed": 57,
            "reportedRed": 63,
            "inferredRed": 56,
            "playerTrialScore": -1,
            "oppTrialScore": 0,
            "playerTotalScore": 23,
            "oppTotalScore": -50,
            "waitTime": 6244.704955437617,
            "responseTime": 1642311402952,
            "catchQuestion": "How many <b class=\"r\">red<\/b> marbles did your opponent report drawing? ",
            "catchKey": -1,
            "catchResponse": -1,
            "catchTime": 1642311384627,
            "trialTime": 0
        },
        {
            "exptPart": "trial",
            "trialNumber": 27,
            "roleCurrent": "sender",
            "marblesSampled": 100,
            "probRed": 0.5,
            "lambda": 5,
            "drawnRed": 29,
            "reportedRed": 37,
            "inferredRed": 31,
            "playerTrialScore": 2,
            "oppTrialScore": -2,
            "playerTotalScore": 25,
            "oppTotalScore": -52,
            "waitTime": 2472.638279291262,
            "responseTime": 1642311449304,
            "catchQuestion": "How many <b class=\"r\">red<\/b> marbles did your opponent report drawing? ",
            "catchKey": -1,
            "catchResponse": -1,
            "catchTime": 1642311384627,
            "trialTime": 0
        },
        {
            "exptPart": "trial",
            "trialNumber": 28,
            "roleCurrent": "receiver",
            "marblesSampled": 100,
            "probRed": 0.5,
            "lambda": 5,
            "drawnRed": 72,
            "reportedRed": 77,
            "inferredRed": 69,
            "playerTrialScore": -3,
            "oppTrialScore": 0,
            "playerTotalScore": 22,
            "oppTotalScore": -52,
            "waitTime": 5846.921935908735,
            "responseTime": 1642311461911,
            "catchQuestion": "How many <b class=\"r\">red<\/b> marbles did your opponent report drawing? ",
            "catchKey": -1,
            "catchResponse": -1,
            "catchTime": 1642311384627,
            "trialTime": 0
        },
        {
            "exptPart": "trial",
            "trialNumber": 29,
            "roleCurrent": "sender",
            "marblesSampled": 100,
            "probRed": 0.5,
            "lambda": 5,
            "drawnRed": 34,
            "reportedRed": 47,
            "inferredRed": 40,
            "playerTrialScore": 6,
            "oppTrialScore": -6,
            "playerTotalScore": 28,
            "oppTotalScore": -58,
            "waitTime": 2253.372678056189,
            "responseTime": 1642311518867,
            "catchQuestion": "How many <b class=\"r\">red<\/b> marbles did your opponent report drawing? ",
            "catchKey": -1,
            "catchResponse": -1,
            "catchTime": 1642311384627,
            "trialTime": 0
        },
        {
            "exptPart": "trial",
            "trialNumber": 30,
            "roleCurrent": "receiver",
            "marblesSampled": 100,
            "probRed": 0.5,
            "lambda": 5,
            "drawnRed": 45,
            "reportedRed": 49,
            "inferredRed": 37,
            "playerTrialScore": -8,
            "oppTrialScore": 0,
            "playerTotalScore": 20,
            "oppTotalScore": -58,
            "waitTime": 7235.7337363541865,
            "responseTime": 1642311534116,
            "catchQuestion": "How many <b class=\"r\">red<\/b> marbles did your opponent report drawing? ",
            "catchKey": 49,
            "catchResponse": 49,
            "catchTime": 1642311534116,
            "trialTime": 0
        },
        {
            "exptPart": "trial",
            "trialNumber": 31,
            "roleCurrent": "sender",
            "marblesSampled": 100,
            "probRed": 0.5,
            "lambda": 5,
            "drawnRed": 53,
            "reportedRed": 56,
            "inferredRed": 51,
            "playerTrialScore": 0,
            "oppTrialScore": -2,
            "playerTotalScore": 20,
            "oppTotalScore": -60,
            "waitTime": 2619.3105326767054,
            "responseTime": 1642311569019,
            "catchQuestion": "How many <b class=\"r\">red<\/b> marbles did your opponent report drawing? ",
            "catchKey": -1,
            "catchResponse": -1,
            "catchTime": 1642311534116,
            "trialTime": 0
        },
        {
            "exptPart": "trial",
            "trialNumber": 32,
            "roleCurrent": "receiver",
            "marblesSampled": 100,
            "probRed": 0.5,
            "lambda": 5,
            "drawnRed": 31,
            "reportedRed": 36,
            "inferredRed": 33,
            "playerTrialScore": -2,
            "oppTrialScore": 2,
            "playerTotalScore": 18,
            "oppTotalScore": -58,
            "waitTime": 6693.243958224195,
            "responseTime": 1642311581988,
            "catchQuestion": "How many <b class=\"r\">red<\/b> marbles did your opponent report drawing? ",
            "catchKey": -1,
            "catchResponse": -1,
            "catchTime": 1642311534116,
            "trialTime": 0
        },
        {
            "exptPart": "trial",
            "trialNumber": 33,
            "roleCurrent": "sender",
            "marblesSampled": 100,
            "probRed": 0.5,
            "lambda": 5,
            "drawnRed": 38,
            "reportedRed": 44,
            "inferredRed": 39,
            "playerTrialScore": 1,
            "oppTrialScore": -1,
            "playerTotalScore": 19,
            "oppTotalScore": -59,
            "waitTime": 2244.225623333121,
            "responseTime": 1642311609331,
            "catchQuestion": "How many <b class=\"r\">red<\/b> marbles did your opponent report drawing? ",
            "catchKey": -1,
            "catchResponse": -1,
            "catchTime": 1642311534116,
            "trialTime": 0
        },
        {
            "exptPart": "trial",
            "trialNumber": 34,
            "roleCurrent": "receiver",
            "marblesSampled": 100,
            "probRed": 0.5,
            "lambda": 5,
            "drawnRed": 45,
            "reportedRed": 47,
            "inferredRed": 41,
            "playerTrialScore": -4,
            "oppTrialScore": 0,
            "playerTotalScore": 15,
            "oppTotalScore": -59,
            "waitTime": 7391.357565280731,
            "responseTime": 1642311630565,
            "catchQuestion": "How many <b class=\"r\">red<\/b> marbles did your opponent report drawing? ",
            "catchKey": -1,
            "catchResponse": -1,
            "catchTime": 1642311534116,
            "trialTime": 0
        },
        {
            "exptPart": "trial",
            "trialNumber": 35,
            "roleCurrent": "sender",
            "marblesSampled": 100,
            "probRed": 0.5,
            "lambda": 5,
            "drawnRed": 60,
            "reportedRed": 65,
            "inferredRed": 59,
            "playerTrialScore": 0,
            "oppTrialScore": -1,
            "playerTotalScore": 15,
            "oppTotalScore": -60,
            "waitTime": 3162.3585423961604,
            "responseTime": 1642311655259,
            "catchQuestion": "How many <b class=\"r\">red<\/b> marbles did your opponent report drawing? ",
            "catchKey": -1,
            "catchResponse": -1,
            "catchTime": 1642311655259,
            "trialTime": 0
        },
        {
            "exptPart": "trial",
            "trialNumber": 36,
            "roleCurrent": "receiver",
            "marblesSampled": 100,
            "probRed": 0.5,
            "lambda": 5,
            "drawnRed": 70,
            "reportedRed": 76,
            "inferredRed": 70,
            "playerTrialScore": 0,
            "oppTrialScore": 0,
            "playerTotalScore": 15,
            "oppTotalScore": -60,
            "waitTime": 5221.736944143134,
            "responseTime": 1642311676134,
            "catchQuestion": "How many <b class=\"r\">red<\/b> marbles did your opponent report drawing? ",
            "catchKey": -1,
            "catchResponse": -1,
            "catchTime": 1642311655259,
            "trialTime": 0
        },
        {
            "exptPart": "trial",
            "trialNumber": 37,
            "roleCurrent": "sender",
            "marblesSampled": 100,
            "probRed": 0.5,
            "lambda": 5,
            "drawnRed": 9,
            "reportedRed": 12,
            "inferredRed": 7,
            "playerTrialScore": 0,
            "oppTrialScore": -2,
            "playerTotalScore": 15,
            "oppTotalScore": -62,
            "waitTime": 2277.7273608913274,
            "responseTime": 1642311694946,
            "catchQuestion": "How many <b class=\"r\">red<\/b> marbles did your opponent report drawing? ",
            "catchKey": -1,
            "catchResponse": -1,
            "catchTime": 1642311655259,
            "trialTime": 0
        },
        {
            "exptPart": "trial",
            "trialNumber": 38,
            "roleCurrent": "receiver",
            "marblesSampled": 100,
            "probRed": 0.5,
            "lambda": 5,
            "drawnRed": 73,
            "reportedRed": 77,
            "inferredRed": 74,
            "playerTrialScore": -1,
            "oppTrialScore": 1,
            "playerTotalScore": 14,
            "oppTotalScore": -61,
            "waitTime": 5547.8720422554115,
            "responseTime": 1642311709383,
            "catchQuestion": "How many <b class=\"r\">red<\/b> marbles did your opponent report drawing? ",
            "catchKey": -1,
            "catchResponse": -1,
            "catchTime": 1642311655259,
            "trialTime": 0
        },
        {
            "exptPart": "trial",
            "trialNumber": 39,
            "roleCurrent": "sender",
            "marblesSampled": 100,
            "probRed": 0.5,
            "lambda": 5,
            "drawnRed": 14,
            "reportedRed": 28,
            "inferredRed": 26,
            "playerTrialScore": 12,
            "oppTrialScore": -12,
            "playerTotalScore": 26,
            "oppTotalScore": -73,
            "waitTime": 2496.5692562936147,
            "responseTime": 1642311917927,
            "catchQuestion": "How many <b class=\"r\">red<\/b> marbles did your opponent report drawing? ",
            "catchKey": -1,
            "catchResponse": -1,
            "catchTime": 1642311655259,
            "trialTime": 0
        },
        {
            "exptPart": "trial",
            "trialNumber": 40,
            "roleCurrent": "receiver",
            "marblesSampled": 100,
            "probRed": 0.5,
            "lambda": 5,
            "drawnRed": 70,
            "reportedRed": 77,
            "inferredRed": 71,
            "playerTrialScore": -1,
            "oppTrialScore": 1,
            "playerTotalScore": 25,
            "oppTotalScore": -72,
            "waitTime": 5215.467205523174,
            "responseTime": 1642311956877,
            "catchQuestion": "How many <b class=\"r\">red<\/b> marbles did your opponent report drawing? ",
            "catchKey": -1,
            "catchResponse": -1,
            "catchTime": 1642311956877,
            "trialTime": 0
        },
        {
            "exptPart": "trial",
            "trialNumber": 41,
            "roleCurrent": "sender",
            "marblesSampled": 100,
            "probRed": 0.5,
            "lambda": 5,
            "drawnRed": 74,
            "reportedRed": 78,
            "inferredRed": 71,
            "playerTrialScore": 0,
            "oppTrialScore": -3,
            "playerTotalScore": 25,
            "oppTotalScore": -75,
            "waitTime": 2712.8688230724515,
            "responseTime": 1642311992426,
            "catchQuestion": "How many <b class=\"r\">red<\/b> marbles did your opponent report drawing? ",
            "catchKey": -1,
            "catchResponse": -1,
            "catchTime": 1642311956877,
            "trialTime": 0
        },
        {
            "exptPart": "trial",
            "trialNumber": 42,
            "roleCurrent": "receiver",
            "marblesSampled": 100,
            "probRed": 0.5,
            "lambda": 5,
            "drawnRed": 53,
            "reportedRed": 61,
            "inferredRed": 58,
            "playerTrialScore": -5,
            "oppTrialScore": 5,
            "playerTotalScore": 20,
            "oppTotalScore": -70,
            "waitTime": 5820.228978844341,
            "responseTime": 1642312002552,
            "catchQuestion": "How many <b class=\"r\">red<\/b> marbles did your opponent report drawing? ",
            "catchKey": -1,
            "catchResponse": -1,
            "catchTime": 1642311956877,
            "trialTime": 0
        },
        {
            "exptPart": "trial",
            "trialNumber": 43,
            "roleCurrent": "sender",
            "marblesSampled": 100,
            "probRed": 0.5,
            "lambda": 5,
            "drawnRed": 47,
            "reportedRed": 60,
            "inferredRed": 55,
            "playerTrialScore": 8,
            "oppTrialScore": -8,
            "playerTotalScore": 28,
            "oppTotalScore": -78,
            "waitTime": 2082.725369800113,
            "responseTime": 1642312063040,
            "catchQuestion": "How many <b class=\"r\">red<\/b> marbles did your opponent report drawing? ",
            "catchKey": -1,
            "catchResponse": -1,
            "catchTime": 1642311956877,
            "trialTime": 0
        },
        {
            "exptPart": "trial",
            "trialNumber": 44,
            "roleCurrent": "receiver",
            "marblesSampled": 100,
            "probRed": 0.5,
            "lambda": 5,
            "drawnRed": 88,
            "reportedRed": 95,
            "inferredRed": 92,
            "playerTrialScore": -4,
            "oppTrialScore": 4,
            "playerTotalScore": 24,
            "oppTotalScore": -74,
            "waitTime": 5985.472077025164,
            "responseTime": 1642312078231,
            "catchQuestion": "How many <b class=\"r\">red<\/b> marbles did your opponent report drawing? ",
            "catchKey": -1,
            "catchResponse": -1,
            "catchTime": 1642311956877,
            "trialTime": 0
        },
        {
            "exptPart": "trial",
            "trialNumber": 45,
            "roleCurrent": "sender",
            "marblesSampled": 100,
            "probRed": 0.5,
            "lambda": 5,
            "drawnRed": 24,
            "reportedRed": 35,
            "inferredRed": 29,
            "playerTrialScore": 5,
            "oppTrialScore": -5,
            "playerTotalScore": 29,
            "oppTotalScore": -79,
            "waitTime": 2903.954312363253,
            "responseTime": 1642312174725,
            "catchQuestion": "How many <b class=\"r\">red<\/b> marbles did your opponent report drawing? ",
            "catchKey": -1,
            "catchResponse": -1,
            "catchTime": 1642312174725,
            "trialTime": 0
        },
        {
            "exptPart": "trial",
            "trialNumber": 46,
            "roleCurrent": "receiver",
            "marblesSampled": 100,
            "probRed": 0.5,
            "lambda": 5,
            "drawnRed": 60,
            "reportedRed": 72,
            "inferredRed": 68,
            "playerTrialScore": -8,
            "oppTrialScore": 8,
            "playerTotalScore": 21,
            "oppTotalScore": -71,
            "waitTime": 6053.94275060038,
            "responseTime": 1642312192234,
            "catchQuestion": "How many <b class=\"r\">red<\/b> marbles did your opponent report drawing? ",
            "catchKey": -1,
            "catchResponse": -1,
            "catchTime": 1642312174725,
            "trialTime": 0
        },
        {
            "exptPart": "trial",
            "trialNumber": 47,
            "roleCurrent": "sender",
            "marblesSampled": 100,
            "probRed": 0.5,
            "lambda": 5,
            "drawnRed": 7,
            "reportedRed": 20,
            "inferredRed": 12,
            "playerTrialScore": 5,
            "oppTrialScore": -5,
            "playerTotalScore": 26,
            "oppTotalScore": -76,
            "waitTime": 3193.1634965624153,
            "responseTime": 1642312255249,
            "catchQuestion": "How many <b class=\"r\">red<\/b> marbles did your opponent report drawing? ",
            "catchKey": -1,
            "catchResponse": -1,
            "catchTime": 1642312174725,
            "trialTime": 0
        },
        {
            "exptPart": "trial",
            "trialNumber": 48,
            "roleCurrent": "receiver",
            "marblesSampled": 100,
            "probRed": 0.5,
            "lambda": 5,
            "drawnRed": 78,
            "reportedRed": 82,
            "inferredRed": 78,
            "playerTrialScore": 0,
            "oppTrialScore": 0,
            "playerTotalScore": 26,
            "oppTotalScore": -76,
            "waitTime": 6614.916351809846,
            "responseTime": 1642312267821,
            "catchQuestion": "How many <b class=\"r\">red<\/b> marbles did your opponent report drawing? ",
            "catchKey": -1,
            "catchResponse": -1,
            "catchTime": 1642312174725,
            "trialTime": 0
        },
        {
            "exptPart": "trial",
            "trialNumber": 49,
            "roleCurrent": "sender",
            "marblesSampled": 100,
            "probRed": 0.5,
            "lambda": 5,
            "drawnRed": 80,
            "reportedRed": 87,
            "inferredRed": 86,
            "playerTrialScore": 6,
            "oppTrialScore": -6,
            "playerTotalScore": 32,
            "oppTotalScore": -82,
            "waitTime": 2541.162519684106,
            "responseTime": 1642312299822,
            "catchQuestion": "How many <b class=\"r\">red<\/b> marbles did your opponent report drawing? ",
            "catchKey": -1,
            "catchResponse": -1,
            "catchTime": 1642312174725,
            "trialTime": 0
        },
        {
            "exptPart": "trial",
            "trialNumber": 50,
            "roleCurrent": "receiver",
            "marblesSampled": 100,
            "probRed": 0.5,
            "lambda": 5,
            "drawnRed": 34,
            "reportedRed": 40,
            "inferredRed": 36,
            "playerTrialScore": -2,
            "oppTrialScore": 2,
            "playerTotalScore": 30,
            "oppTotalScore": -80,
            "waitTime": 6261.698258689183,
            "responseTime": 1642312337762,
            "catchQuestion": "How many <b class=\"r\">red<\/b> marbles did your opponent report drawing? ",
            "catchKey": -1,
            "catchResponse": -1,
            "catchTime": 1642312337762,
            "trialTime": 0
        },
        {
            "exptPart": "trial",
            "trialNumber": 51,
            "roleCurrent": "sender",
            "marblesSampled": 100,
            "probRed": 0.5,
            "lambda": 5,
            "drawnRed": 47,
            "reportedRed": 56,
            "inferredRed": 52,
            "playerTrialScore": 5,
            "oppTrialScore": -5,
            "playerTotalScore": 35,
            "oppTotalScore": -85,
            "waitTime": 2227.531517962643,
            "responseTime": 1642312374871,
            "catchQuestion": "How many <b class=\"r\">red<\/b> marbles did your opponent report drawing? ",
            "catchKey": -1,
            "catchResponse": -1,
            "catchTime": 1642312337762,
            "trialTime": 0
        },
        {
            "exptPart": "trial",
            "trialNumber": 52,
            "roleCurrent": "receiver",
            "marblesSampled": 100,
            "probRed": 0.5,
            "lambda": 5,
            "drawnRed": 29,
            "reportedRed": 36,
            "inferredRed": 30,
            "playerTrialScore": -1,
            "oppTrialScore": 1,
            "playerTotalScore": 34,
            "oppTotalScore": -84,
            "waitTime": 5898.8352084839225,
            "responseTime": 1642312385582,
            "catchQuestion": "How many <b class=\"r\">red<\/b> marbles did your opponent report drawing? ",
            "catchKey": -1,
            "catchResponse": -1,
            "catchTime": 1642312337762,
            "trialTime": 0
        },
        {
            "exptPart": "trial",
            "trialNumber": 53,
            "roleCurrent": "sender",
            "marblesSampled": 100,
            "probRed": 0.5,
            "lambda": 5,
            "drawnRed": 79,
            "reportedRed": 86,
            "inferredRed": 81,
            "playerTrialScore": 2,
            "oppTrialScore": -2,
            "playerTotalScore": 36,
            "oppTotalScore": -86,
            "waitTime": 3230.4633447125534,
            "responseTime": 1642312418017,
            "catchQuestion": "How many <b class=\"r\">red<\/b> marbles did your opponent report drawing? ",
            "catchKey": -1,
            "catchResponse": -1,
            "catchTime": 1642312337762,
            "trialTime": 0
        },
        {
            "exptPart": "trial",
            "trialNumber": 54,
            "roleCurrent": "receiver",
            "marblesSampled": 100,
            "probRed": 0.5,
            "lambda": 5,
            "drawnRed": 65,
            "reportedRed": 67,
            "inferredRed": 62,
            "playerTrialScore": -3,
            "oppTrialScore": 0,
            "playerTotalScore": 33,
            "oppTotalScore": -86,
            "waitTime": 5951.422996685712,
            "responseTime": 1642312429575,
            "catchQuestion": "How many <b class=\"r\">red<\/b> marbles did your opponent report drawing? ",
            "catchKey": 67,
            "catchResponse": 67,
            "catchTime": 1642312429575,
            "trialTime": 0
        },
        {
            "exptPart": "trial",
            "trialNumber": 55,
            "roleCurrent": "sender",
            "marblesSampled": 100,
            "probRed": 0.5,
            "lambda": 5,
            "drawnRed": 70,
            "reportedRed": 84,
            "inferredRed": 81,
            "playerTrialScore": 11,
            "oppTrialScore": -11,
            "playerTotalScore": 44,
            "oppTotalScore": -97,
            "waitTime": 2555.650989826333,
            "responseTime": 1642312481402,
            "catchQuestion": "How many <b class=\"r\">red<\/b> marbles did your opponent report drawing? ",
            "catchKey": -1,
            "catchResponse": -1,
            "catchTime": 1642312481402,
            "trialTime": 0
        },
        {
            "exptPart": "trial",
            "trialNumber": 56,
            "roleCurrent": "receiver",
            "marblesSampled": 100,
            "probRed": 0.5,
            "lambda": 5,
            "drawnRed": 71,
            "reportedRed": 72,
            "inferredRed": 68,
            "playerTrialScore": -3,
            "oppTrialScore": 0,
            "playerTotalScore": 41,
            "oppTotalScore": -97,
            "waitTime": 5392.189316831257,
            "responseTime": 1642312491822,
            "catchQuestion": "How many <b class=\"r\">red<\/b> marbles did your opponent report drawing? ",
            "catchKey": -1,
            "catchResponse": -1,
            "catchTime": 1642312481402,
            "trialTime": 0
        },
        {
            "exptPart": "trial",
            "trialNumber": 57,
            "roleCurrent": "sender",
            "marblesSampled": 100,
            "probRed": 0.5,
            "lambda": 5,
            "drawnRed": 41,
            "reportedRed": 54,
            "inferredRed": 47,
            "playerTrialScore": 6,
            "oppTrialScore": -6,
            "playerTotalScore": 47,
            "oppTotalScore": -103,
            "waitTime": 2176.4732528826416,
            "responseTime": 1642312539391,
            "catchQuestion": "How many <b class=\"r\">red<\/b> marbles did you actually draw (before any changes)? ",
            "catchKey": 41,
            "catchResponse": 41,
            "catchTime": 1642312539391,
            "trialTime": 0
        },
        {
            "exptPart": "trial",
            "trialNumber": 58,
            "roleCurrent": "receiver",
            "marblesSampled": 100,
            "probRed": 0.5,
            "lambda": 5,
            "drawnRed": 69,
            "reportedRed": 73,
            "inferredRed": 67,
            "playerTrialScore": -2,
            "oppTrialScore": 0,
            "playerTotalScore": 45,
            "oppTotalScore": -103,
            "waitTime": 5515.616723821015,
            "responseTime": 1642312567462,
            "catchQuestion": "How many <b class=\"r\">red<\/b> marbles did your opponent report drawing? ",
            "catchKey": 73,
            "catchResponse": 73,
            "catchTime": 1642312567462,
            "trialTime": 0
        },
        {
            "exptPart": "trial",
            "trialNumber": 59,
            "roleCurrent": "sender",
            "marblesSampled": 100,
            "probRed": 0.5,
            "lambda": 5,
            "drawnRed": 38,
            "reportedRed": 50,
            "inferredRed": 44,
            "playerTrialScore": 6,
            "oppTrialScore": -6,
            "playerTotalScore": 51,
            "oppTotalScore": -109,
            "waitTime": 2860.897196367808,
            "responseTime": 1642312615565,
            "catchQuestion": "How many <b class=\"r\">red<\/b> marbles did your opponent report drawing? ",
            "catchKey": -1,
            "catchResponse": -1,
            "catchTime": 1642312567462,
            "trialTime": 0
        },
        {
            "exptPart": "trial",
            "trialNumber": 60,
            "roleCurrent": "receiver",
            "marblesSampled": 100,
            "probRed": 0.5,
            "lambda": 5,
            "drawnRed": 76,
            "reportedRed": 81,
            "inferredRed": 77,
            "playerTrialScore": -1,
            "oppTrialScore": 1,
            "playerTotalScore": 50,
            "oppTotalScore": -108,
            "waitTime": 6421.455606845955,
            "responseTime": 1642312629382,
            "catchQuestion": "How many <b class=\"r\">red<\/b> marbles did your opponent report drawing? ",
            "catchKey": -1,
            "catchResponse": -1,
            "catchTime": 1642312629382,
            "trialTime": 0
        },
        {
            "exptPart": "trial",
            "trialNumber": 61,
            "roleCurrent": "sender",
            "marblesSampled": 100,
            "probRed": 0.5,
            "lambda": 5,
            "drawnRed": 51,
            "reportedRed": 66,
            "inferredRed": 61,
            "playerTrialScore": 10,
            "oppTrialScore": -10,
            "playerTotalScore": 60,
            "oppTotalScore": -118,
            "waitTime": 3039.8332857352934,
            "responseTime": 1642312679616,
            "catchQuestion": "How many <b class=\"r\">red<\/b> marbles did you actually draw (before any changes)? ",
            "catchKey": 51,
            "catchResponse": 55,
            "catchTime": 1642312679616,
            "trialTime": 0
        },
        {
            "exptPart": "trial",
            "trialNumber": 62,
            "roleCurrent": "receiver",
            "marblesSampled": 100,
            "probRed": 0.5,
            "lambda": 5,
            "drawnRed": 62,
            "reportedRed": 68,
            "inferredRed": 60,
            "playerTrialScore": -2,
            "oppTrialScore": 0,
            "playerTotalScore": 58,
            "oppTotalScore": -118,
            "waitTime": 5562.15931800764,
            "responseTime": 1642312698602,
            "catchQuestion": "How many <b class=\"r\">red<\/b> marbles did you actually draw (before any changes)? ",
            "catchKey": -1,
            "catchResponse": -1,
            "catchTime": 1642312679616,
            "trialTime": 0
        },
        {
            "exptPart": "trial",
            "trialNumber": 63,
            "roleCurrent": "sender",
            "marblesSampled": 100,
            "probRed": 0.5,
            "lambda": 5,
            "drawnRed": 54,
            "reportedRed": 66,
            "inferredRed": 61,
            "playerTrialScore": 7,
            "oppTrialScore": -7,
            "playerTotalScore": 65,
            "oppTotalScore": -125,
            "waitTime": 2184.4002138622104,
            "responseTime": 1642312739853,
            "catchQuestion": "How many <b class=\"r\">red<\/b> marbles did you actually draw (before any changes)? ",
            "catchKey": -1,
            "catchResponse": -1,
            "catchTime": 1642312679616,
            "trialTime": 0
        },
        {
            "exptPart": "trial",
            "trialNumber": 64,
            "roleCurrent": "receiver",
            "marblesSampled": 100,
            "probRed": 0.5,
            "lambda": 5,
            "drawnRed": 21,
            "reportedRed": 26,
            "inferredRed": 20,
            "playerTrialScore": -1,
            "oppTrialScore": 0,
            "playerTotalScore": 64,
            "oppTotalScore": -125,
            "waitTime": 6044.150005163319,
            "responseTime": 1642312757898,
            "catchQuestion": "How many <b class=\"r\">red<\/b> marbles did you actually draw (before any changes)? ",
            "catchKey": -1,
            "catchResponse": -1,
            "catchTime": 1642312679616,
            "trialTime": 0
        },
        {
            "exptPart": "trial",
            "trialNumber": 65,
            "roleCurrent": "sender",
            "marblesSampled": 100,
            "probRed": 0.5,
            "lambda": 5,
            "drawnRed": 20,
            "reportedRed": 37,
            "inferredRed": 31,
            "playerTrialScore": 11,
            "oppTrialScore": -11,
            "playerTotalScore": 75,
            "oppTotalScore": -136,
            "waitTime": 2314.31287627724,
            "responseTime": 1642312830201,
            "catchQuestion": "How many <b class=\"r\">red<\/b> marbles did you actually draw (before any changes)? ",
            "catchKey": -1,
            "catchResponse": -1,
            "catchTime": 1642312830201,
            "trialTime": 0
        },
        {
            "exptPart": "trial",
            "trialNumber": 66,
            "roleCurrent": "receiver",
            "marblesSampled": 100,
            "probRed": 0.5,
            "lambda": 5,
            "drawnRed": 50,
            "reportedRed": 57,
            "inferredRed": 50,
            "playerTrialScore": 0,
            "oppTrialScore": 0,
            "playerTotalScore": 75,
            "oppTotalScore": -136,
            "waitTime": 5235.5012451449775,
            "responseTime": 1642312839654,
            "catchQuestion": "How many <b class=\"r\">red<\/b> marbles did you actually draw (before any changes)? ",
            "catchKey": -1,
            "catchResponse": -1,
            "catchTime": 1642312830201,
            "trialTime": 0
        },
        {
            "exptPart": "trial",
            "trialNumber": 67,
            "roleCurrent": "sender",
            "marblesSampled": 100,
            "probRed": 0.5,
            "lambda": 5,
            "drawnRed": 16,
            "reportedRed": 31,
            "inferredRed": 29,
            "playerTrialScore": 13,
            "oppTrialScore": -13,
            "playerTotalScore": 88,
            "oppTotalScore": -149,
            "waitTime": 2301.54925421969,
            "responseTime": 1642312893937,
            "catchQuestion": "How many <b class=\"r\">red<\/b> marbles did you actually draw (before any changes)? ",
            "catchKey": -1,
            "catchResponse": -1,
            "catchTime": 1642312830201,
            "trialTime": 0
        },
        {
            "exptPart": "trial",
            "trialNumber": 68,
            "roleCurrent": "receiver",
            "marblesSampled": 100,
            "probRed": 0.5,
            "lambda": 5,
            "drawnRed": 45,
            "reportedRed": 49,
            "inferredRed": 43,
            "playerTrialScore": -2,
            "oppTrialScore": 0,
            "playerTotalScore": 86,
            "oppTotalScore": -149,
            "waitTime": 5154.100349227452,
            "responseTime": 1642312903636,
            "catchQuestion": "How many <b class=\"r\">red<\/b> marbles did you actually draw (before any changes)? ",
            "catchKey": -1,
            "catchResponse": -1,
            "catchTime": 1642312830201,
            "trialTime": 0
        },
        {
            "exptPart": "trial",
            "trialNumber": 69,
            "roleCurrent": "sender",
            "marblesSampled": 100,
            "probRed": 0.5,
            "lambda": 5,
            "drawnRed": 48,
            "reportedRed": 58,
            "inferredRed": 51,
            "playerTrialScore": 3,
            "oppTrialScore": -3,
            "playerTotalScore": 89,
            "oppTotalScore": -152,
            "waitTime": 2502.6197211230474,
            "responseTime": 1642313075002,
            "catchQuestion": "How many <b class=\"r\">red<\/b> marbles did you actually draw (before any changes)? ",
            "catchKey": -1,
            "catchResponse": -1,
            "catchTime": 1642312830201,
            "trialTime": 0
        },
        {
            "exptPart": "trial",
            "trialNumber": 70,
            "roleCurrent": "receiver",
            "marblesSampled": 100,
            "probRed": 0.5,
            "lambda": 5,
            "drawnRed": 43,
            "reportedRed": 45,
            "inferredRed": 41,
            "playerTrialScore": -2,
            "oppTrialScore": 0,
            "playerTotalScore": 87,
            "oppTotalScore": -152,
            "waitTime": 5577.611817497558,
            "responseTime": 1642313088069,
            "catchQuestion": "How many <b class=\"r\">red<\/b> marbles did you actually draw (before any changes)? ",
            "catchKey": -1,
            "catchResponse": -1,
            "catchTime": 1642313088069,
            "trialTime": 0
        },
        {
            "exptPart": "trial",
            "trialNumber": 71,
            "roleCurrent": "sender",
            "marblesSampled": 100,
            "probRed": 0.5,
            "lambda": 5,
            "drawnRed": 27,
            "reportedRed": 39,
            "inferredRed": 37,
            "playerTrialScore": 10,
            "oppTrialScore": -10,
            "playerTotalScore": 97,
            "oppTotalScore": -162,
            "waitTime": 2151.1149105929658,
            "responseTime": 1642313152451,
            "catchQuestion": "How many <b class=\"r\">red<\/b> marbles did you actually draw (before any changes)? ",
            "catchKey": 27,
            "catchResponse": 34,
            "catchTime": 1642313152451,
            "trialTime": 0
        },
        {
            "exptPart": "trial",
            "trialNumber": 72,
            "roleCurrent": "receiver",
            "marblesSampled": 100,
            "probRed": 0.5,
            "lambda": 5,
            "drawnRed": 52,
            "reportedRed": 60,
            "inferredRed": 55,
            "playerTrialScore": -3,
            "oppTrialScore": 3,
            "playerTotalScore": 94,
            "oppTotalScore": -159,
            "waitTime": 5136.600206995038,
            "responseTime": 1642313201079,
            "catchQuestion": "How many <b class=\"r\">red<\/b> marbles did your opponent report drawing? ",
            "catchKey": 60,
            "catchResponse": 60,
            "catchTime": 1642313201079,
            "trialTime": 0
        },
        {
            "exptPart": "trial",
            "trialNumber": 73,
            "roleCurrent": "sender",
            "marblesSampled": 100,
            "probRed": 0.5,
            "lambda": 5,
            "drawnRed": 53,
            "reportedRed": 68,
            "inferredRed": 62,
            "playerTrialScore": 9,
            "oppTrialScore": -9,
            "playerTotalScore": 103,
            "oppTotalScore": -168,
            "waitTime": 2977.992600517132,
            "responseTime": 1642313267040,
            "catchQuestion": "How many <b class=\"r\">red<\/b> marbles did your opponent report drawing? ",
            "catchKey": -1,
            "catchResponse": -1,
            "catchTime": 1642313201079,
            "trialTime": 0
        },
        {
            "exptPart": "trial",
            "trialNumber": 74,
            "roleCurrent": "receiver",
            "marblesSampled": 100,
            "probRed": 0.5,
            "lambda": 5,
            "drawnRed": 40,
            "reportedRed": 45,
            "inferredRed": 39,
            "playerTrialScore": -1,
            "oppTrialScore": 0,
            "playerTotalScore": 102,
            "oppTotalScore": -168,
            "waitTime": 5470.657676775469,
            "responseTime": 1642313277302,
            "catchQuestion": "How many <b class=\"r\">red<\/b> marbles did your opponent report drawing? ",
            "catchKey": -1,
            "catchResponse": -1,
            "catchTime": 1642313201079,
            "trialTime": 0
        },
        {
            "exptPart": "trial",
            "trialNumber": 75,
            "roleCurrent": "sender",
            "marblesSampled": 100,
            "probRed": 0.5,
            "lambda": 5,
            "drawnRed": 40,
            "reportedRed": 52,
            "inferredRed": 48,
            "playerTrialScore": 8,
            "oppTrialScore": -8,
            "playerTotalScore": 110,
            "oppTotalScore": -176,
            "waitTime": 2254.4544191796535,
            "responseTime": 1642313314499,
            "catchQuestion": "How many <b class=\"r\">red<\/b> marbles did your opponent report drawing? ",
            "catchKey": -1,
            "catchResponse": -1,
            "catchTime": 1642313314499,
            "trialTime": 0
        },
        {
            "exptPart": "trial",
            "trialNumber": 76,
            "roleCurrent": "receiver",
            "marblesSampled": 100,
            "probRed": 0.5,
            "lambda": 5,
            "drawnRed": 46,
            "reportedRed": 49,
            "inferredRed": 45,
            "playerTrialScore": -1,
            "oppTrialScore": 0,
            "playerTotalScore": 109,
            "oppTotalScore": -176,
            "waitTime": 5761.315988207943,
            "responseTime": 1642313328250,
            "catchQuestion": "How many <b class=\"r\">red<\/b> marbles did your opponent report drawing? ",
            "catchKey": -1,
            "catchResponse": -1,
            "catchTime": 1642313314499,
            "trialTime": 0
        },
        {
            "exptPart": "trial",
            "trialNumber": 77,
            "roleCurrent": "sender",
            "marblesSampled": 100,
            "probRed": 0.5,
            "lambda": 5,
            "drawnRed": 23,
            "reportedRed": 35,
            "inferredRed": 28,
            "playerTrialScore": 5,
            "oppTrialScore": -5,
            "playerTotalScore": 114,
            "oppTotalScore": -181,
            "waitTime": 3023.3365185328994,
            "responseTime": 1642313367566,
            "catchQuestion": "How many <b class=\"r\">red<\/b> marbles did your opponent report drawing? ",
            "catchKey": -1,
            "catchResponse": -1,
            "catchTime": 1642313314499,
            "trialTime": 0
        },
        {
            "exptPart": "trial",
            "trialNumber": 78,
            "roleCurrent": "receiver",
            "marblesSampled": 100,
            "probRed": 0.5,
            "lambda": 5,
            "drawnRed": 27,
            "reportedRed": 32,
            "inferredRed": 28,
            "playerTrialScore": -1,
            "oppTrialScore": 1,
            "playerTotalScore": 113,
            "oppTotalScore": -180,
            "waitTime": 6224.50323195123,
            "responseTime": 1642313377261,
            "catchQuestion": "How many <b class=\"r\">red<\/b> marbles did your opponent report drawing? ",
            "catchKey": -1,
            "catchResponse": -1,
            "catchTime": 1642313314499,
            "trialTime": 0
        },
        {
            "exptPart": "trial",
            "trialNumber": 79,
            "roleCurrent": "sender",
            "marblesSampled": 100,
            "probRed": 0.5,
            "lambda": 5,
            "drawnRed": 68,
            "reportedRed": 80,
            "inferredRed": 74,
            "playerTrialScore": 6,
            "oppTrialScore": -6,
            "playerTotalScore": 119,
            "oppTotalScore": -186,
            "waitTime": 2972.3711113428158,
            "responseTime": 1642313412279,
            "catchQuestion": "How many <b class=\"r\">red<\/b> marbles did your opponent report drawing? ",
            "catchKey": -1,
            "catchResponse": -1,
            "catchTime": 1642313314499,
            "trialTime": 0
        },
        {
            "exptPart": "trial",
            "trialNumber": 80,
            "roleCurrent": "receiver",
            "marblesSampled": 100,
            "probRed": 0.5,
            "lambda": 5,
            "drawnRed": 84,
            "reportedRed": 90,
            "inferredRed": 86,
            "playerTrialScore": -2,
            "oppTrialScore": 2,
            "playerTotalScore": 117,
            "oppTotalScore": -184,
            "waitTime": 6012.879746696246,
            "responseTime": 1642313422786,
            "catchQuestion": "How many <b class=\"r\">red<\/b> marbles did your opponent report drawing? ",
            "catchKey": -1,
            "catchResponse": -1,
            "catchTime": 1642313422786,
            "trialTime": 0
        },
        {
            "exptPart": "trial",
            "trialNumber": 81,
            "roleCurrent": "sender",
            "marblesSampled": 100,
            "probRed": 0.5,
            "lambda": 5,
            "drawnRed": 49,
            "reportedRed": 58,
            "inferredRed": 51,
            "playerTrialScore": 2,
            "oppTrialScore": -2,
            "playerTotalScore": 119,
            "oppTotalScore": -186,
            "waitTime": 2871.2193708886925,
            "responseTime": 1642313471955,
            "catchQuestion": "How many <b class=\"r\">red<\/b> marbles did your opponent report drawing? ",
            "catchKey": -1,
            "catchResponse": -1,
            "catchTime": 1642313422786,
            "trialTime": 0
        },
        {
            "exptPart": "trial",
            "trialNumber": 82,
            "roleCurrent": "receiver",
            "marblesSampled": 100,
            "probRed": 0.5,
            "lambda": 5,
            "drawnRed": 45,
            "reportedRed": 48,
            "inferredRed": 43,
            "playerTrialScore": -2,
            "oppTrialScore": 0,
            "playerTotalScore": 117,
            "oppTotalScore": -186,
            "waitTime": 6826.64651996344,
            "responseTime": 1642313484534,
            "catchQuestion": "How many <b class=\"r\">red<\/b> marbles did your opponent report drawing? ",
            "catchKey": -1,
            "catchResponse": -1,
            "catchTime": 1642313422786,
            "trialTime": 0
        },
        {
            "exptPart": "trial",
            "trialNumber": 83,
            "roleCurrent": "sender",
            "marblesSampled": 100,
            "probRed": 0.5,
            "lambda": 5,
            "drawnRed": 17,
            "reportedRed": 37,
            "inferredRed": 35,
            "playerTrialScore": 18,
            "oppTrialScore": -18,
            "playerTotalScore": 135,
            "oppTotalScore": -204,
            "waitTime": 2148.081106746996,
            "responseTime": 1642313550806,
            "catchQuestion": "How many <b class=\"r\">red<\/b> marbles did your opponent report drawing? ",
            "catchKey": -1,
            "catchResponse": -1,
            "catchTime": 1642313422786,
            "trialTime": 0
        },
        {
            "exptPart": "trial",
            "trialNumber": 84,
            "roleCurrent": "receiver",
            "marblesSampled": 100,
            "probRed": 0.5,
            "lambda": 5,
            "drawnRed": 36,
            "reportedRed": 43,
            "inferredRed": 39,
            "playerTrialScore": -3,
            "oppTrialScore": 3,
            "playerTotalScore": 132,
            "oppTotalScore": -201,
            "waitTime": 6342.749077336488,
            "responseTime": 1642313561946,
            "catchQuestion": "How many <b class=\"r\">red<\/b> marbles did your opponent report drawing? ",
            "catchKey": -1,
            "catchResponse": -1,
            "catchTime": 1642313422786,
            "trialTime": 0
        },
        {
            "exptPart": "trial",
            "trialNumber": 85,
            "roleCurrent": "sender",
            "marblesSampled": 100,
            "probRed": 0.5,
            "lambda": 5,
            "drawnRed": 28,
            "reportedRed": 40,
            "inferredRed": 33,
            "playerTrialScore": 5,
            "oppTrialScore": -5,
            "playerTotalScore": 137,
            "oppTotalScore": -206,
            "waitTime": 2249.4669598350088,
            "responseTime": 1642313607312,
            "catchQuestion": "How many <b class=\"r\">red<\/b> marbles did your opponent report drawing? ",
            "catchKey": -1,
            "catchResponse": -1,
            "catchTime": 1642313607312,
            "trialTime": 0
        },
        {
            "exptPart": "trial",
            "trialNumber": 86,
            "roleCurrent": "receiver",
            "marblesSampled": 100,
            "probRed": 0.5,
            "lambda": 5,
            "drawnRed": 70,
            "reportedRed": 77,
            "inferredRed": 73,
            "playerTrialScore": -3,
            "oppTrialScore": 3,
            "playerTotalScore": 134,
            "oppTotalScore": -203,
            "waitTime": 7387.027667694763,
            "responseTime": 1642313626083,
            "catchQuestion": "How many <b class=\"r\">red<\/b> marbles did your opponent report drawing? ",
            "catchKey": -1,
            "catchResponse": -1,
            "catchTime": 1642313607312,
            "trialTime": 0
        },
        {
            "exptPart": "trial",
            "trialNumber": 87,
            "roleCurrent": "sender",
            "marblesSampled": 100,
            "probRed": 0.5,
            "lambda": 5,
            "drawnRed": 31,
            "reportedRed": 45,
            "inferredRed": 38,
            "playerTrialScore": 7,
            "oppTrialScore": -7,
            "playerTotalScore": 141,
            "oppTotalScore": -210,
            "waitTime": 3144.834312065708,
            "responseTime": 1642313674754,
            "catchQuestion": "How many <b class=\"r\">red<\/b> marbles did your opponent report drawing? ",
            "catchKey": -1,
            "catchResponse": -1,
            "catchTime": 1642313607312,
            "trialTime": 0
        },
        {
            "exptPart": "trial",
            "trialNumber": 88,
            "roleCurrent": "receiver",
            "marblesSampled": 100,
            "probRed": 0.5,
            "lambda": 5,
            "drawnRed": 22,
            "reportedRed": 25,
            "inferredRed": 20,
            "playerTrialScore": -2,
            "oppTrialScore": 0,
            "playerTotalScore": 139,
            "oppTotalScore": -210,
            "waitTime": 6827.226088848196,
            "responseTime": 1642313684543,
            "catchQuestion": "How many <b class=\"r\">red<\/b> marbles did your opponent report drawing? ",
            "catchKey": -1,
            "catchResponse": -1,
            "catchTime": 1642313607312,
            "trialTime": 0
        },
        {
            "exptPart": "trial",
            "trialNumber": 89,
            "roleCurrent": "sender",
            "marblesSampled": 100,
            "probRed": 0.5,
            "lambda": 5,
            "drawnRed": 17,
            "reportedRed": 30,
            "inferredRed": 24,
            "playerTrialScore": 7,
            "oppTrialScore": -7,
            "playerTotalScore": 146,
            "oppTotalScore": -217,
            "waitTime": 2872.59193163182,
            "responseTime": 1642313717722,
            "catchQuestion": "How many <b class=\"r\">red<\/b> marbles did your opponent report drawing? ",
            "catchKey": -1,
            "catchResponse": -1,
            "catchTime": 1642313607312,
            "trialTime": 0
        },
        {
            "exptPart": "trial",
            "trialNumber": 90,
            "roleCurrent": "receiver",
            "marblesSampled": 100,
            "probRed": 0.5,
            "lambda": 5,
            "drawnRed": 38,
            "reportedRed": 41,
            "inferredRed": 36,
            "playerTrialScore": -2,
            "oppTrialScore": 0,
            "playerTotalScore": 144,
            "oppTotalScore": -217,
            "waitTime": 6110.42396058971,
            "responseTime": 1642313729283,
            "catchQuestion": "How many <b class=\"r\">red<\/b> marbles did your opponent report drawing? ",
            "catchKey": -1,
            "catchResponse": -1,
            "catchTime": 1642313729283,
            "trialTime": 0
        },
        {
            "exptPart": "trial",
            "trialNumber": 91,
            "roleCurrent": "sender",
            "marblesSampled": 100,
            "probRed": 0.5,
            "lambda": 5,
            "drawnRed": 32,
            "reportedRed": 44,
            "inferredRed": 41,
            "playerTrialScore": 9,
            "oppTrialScore": -9,
            "playerTotalScore": 153,
            "oppTotalScore": -226,
            "waitTime": 2225.0340494334414,
            "responseTime": 1642313764858,
            "catchQuestion": "How many <b class=\"r\">red<\/b> marbles did your opponent report drawing? ",
            "catchKey": -1,
            "catchResponse": -1,
            "catchTime": 1642313729283,
            "trialTime": 0
        },
        {
            "exptPart": "trial",
            "trialNumber": 92,
            "roleCurrent": "receiver",
            "marblesSampled": 100,
            "probRed": 0.5,
            "lambda": 5,
            "drawnRed": 28,
            "reportedRed": 30,
            "inferredRed": 24,
            "playerTrialScore": -4,
            "oppTrialScore": 0,
            "playerTotalScore": 149,
            "oppTotalScore": -226,
            "waitTime": 5875.36663367506,
            "responseTime": 1642313775210,
            "catchQuestion": "How many <b class=\"r\">red<\/b> marbles did your opponent report drawing? ",
            "catchKey": -1,
            "catchResponse": -1,
            "catchTime": 1642313729283,
            "trialTime": 0
        },
        {
            "exptPart": "trial",
            "trialNumber": 93,
            "roleCurrent": "sender",
            "marblesSampled": 100,
            "probRed": 0.5,
            "lambda": 5,
            "drawnRed": 70,
            "reportedRed": 83,
            "inferredRed": 79,
            "playerTrialScore": 9,
            "oppTrialScore": -9,
            "playerTotalScore": 158,
            "oppTotalScore": -235,
            "waitTime": 2162.620486057269,
            "responseTime": 1642313816821,
            "catchQuestion": "How many <b class=\"r\">red<\/b> marbles did your opponent report drawing? ",
            "catchKey": -1,
            "catchResponse": -1,
            "catchTime": 1642313729283,
            "trialTime": 0
        },
        {
            "exptPart": "trial",
            "trialNumber": 94,
            "roleCurrent": "receiver",
            "marblesSampled": 100,
            "probRed": 0.5,
            "lambda": 5,
            "drawnRed": 41,
            "reportedRed": 44,
            "inferredRed": 39,
            "playerTrialScore": -2,
            "oppTrialScore": 0,
            "playerTotalScore": 156,
            "oppTotalScore": -235,
            "waitTime": 7337.849205787973,
            "responseTime": 1642313827011,
            "catchQuestion": "How many <b class=\"r\">red<\/b> marbles did your opponent report drawing? ",
            "catchKey": -1,
            "catchResponse": -1,
            "catchTime": 1642313729283,
            "trialTime": 0
        },
        {
            "exptPart": "trial",
            "trialNumber": 95,
            "roleCurrent": "sender",
            "marblesSampled": 100,
            "probRed": 0.5,
            "lambda": 5,
            "drawnRed": 46,
            "reportedRed": 57,
            "inferredRed": 52,
            "playerTrialScore": 6,
            "oppTrialScore": -6,
            "playerTotalScore": 162,
            "oppTotalScore": -241,
            "waitTime": 2516.0354346320364,
            "responseTime": 1642313853979,
            "catchQuestion": "How many <b class=\"r\">red<\/b> marbles did your opponent report drawing? ",
            "catchKey": -1,
            "catchResponse": -1,
            "catchTime": 1642313853979,
            "trialTime": 0
        },
        {
            "exptPart": "trial",
            "trialNumber": 96,
            "roleCurrent": "receiver",
            "marblesSampled": 100,
            "probRed": 0.5,
            "lambda": 5,
            "drawnRed": 46,
            "reportedRed": 50,
            "inferredRed": 45,
            "playerTrialScore": -1,
            "oppTrialScore": 0,
            "playerTotalScore": 161,
            "oppTotalScore": -241,
            "waitTime": 5519.338890602599,
            "responseTime": 1642313862792,
            "catchQuestion": "How many <b class=\"r\">red<\/b> marbles did your opponent report drawing? ",
            "catchKey": 50,
            "catchResponse": 50,
            "catchTime": 1642313862793,
            "trialTime": 0
        },
        {
            "exptPart": "trial",
            "trialNumber": 97,
            "roleCurrent": "sender",
            "marblesSampled": 100,
            "probRed": 0.5,
            "lambda": 5,
            "drawnRed": 25,
            "reportedRed": 38,
            "inferredRed": 29,
            "playerTrialScore": 4,
            "oppTrialScore": -4,
            "playerTotalScore": 165,
            "oppTotalScore": -245,
            "waitTime": 3123.15084731811,
            "responseTime": 1642313906586,
            "catchQuestion": "How many <b class=\"r\">red<\/b> marbles did your opponent report drawing? ",
            "catchKey": -1,
            "catchResponse": -1,
            "catchTime": 1642313862793,
            "trialTime": 0
        },
        {
            "exptPart": "trial",
            "trialNumber": 98,
            "roleCurrent": "receiver",
            "marblesSampled": 100,
            "probRed": 0.5,
            "lambda": 5,
            "drawnRed": 57,
            "reportedRed": 62,
            "inferredRed": 57,
            "playerTrialScore": 0,
            "oppTrialScore": 0,
            "playerTotalScore": 165,
            "oppTotalScore": -245,
            "waitTime": 6139.758553101455,
            "responseTime": 1642313916853,
            "catchQuestion": "How many <b class=\"r\">red<\/b> marbles did your opponent report drawing? ",
            "catchKey": -1,
            "catchResponse": -1,
            "catchTime": 1642313862793,
            "trialTime": 0
        },
        {
            "exptPart": "trial",
            "trialNumber": 99,
            "roleCurrent": "sender",
            "marblesSampled": 100,
            "probRed": 0.5,
            "lambda": 5,
            "drawnRed": 50,
            "reportedRed": 66,
            "inferredRed": 62,
            "playerTrialScore": 12,
            "oppTrialScore": -12,
            "playerTotalScore": 177,
            "oppTotalScore": -257,
            "waitTime": 2456.865924861322,
            "responseTime": 1642313962332,
            "catchQuestion": "How many <b class=\"r\">red<\/b> marbles did your opponent report drawing? ",
            "catchKey": -1,
            "catchResponse": -1,
            "catchTime": 1642313862793,
            "trialTime": 0
        },
        {
            "exptPart": "trial",
            "trialNumber": 100,
            "roleCurrent": "receiver",
            "marblesSampled": 100,
            "probRed": 0.5,
            "lambda": 5,
            "drawnRed": 79,
            "reportedRed": 88,
            "inferredRed": 83,
            "playerTrialScore": -4,
            "oppTrialScore": 4,
            "playerTotalScore": 173,
            "oppTotalScore": -253,
            "waitTime": 6166.517792134227,
            "responseTime": 1642313973223,
            "catchQuestion": "How many <b class=\"r\">red<\/b> marbles did your opponent report drawing? ",
            "catchKey": -1,
            "catchResponse": -1,
            "catchTime": 1642313973223,
            "trialTime": 0
        }
    ]
}