{
    "client": {
        "type": "sona",
        "experiment_id": 2228,
        "credit_token": "b315147ae43241ea9c65086cb510cfb7",
        "survey_code": "37488",
        "sid": "sona-37488",
        "window": {
            "width": 979,
            "height": 649
        },
        "screen": {
            "width": 1440,
            "height": 900
        },
        "userAgent": "Mozilla\/5.0 (Macintosh; Intel Mac OS X 10_15_7) AppleWebKit\/537.36 (KHTML, like Gecko) Chrome\/96.0.4664.55 Safari\/537.36",
        "score": 0,
        "bonus": 0
    },
    "expt": {
        "saveURL": "submit.simple.php",
        "trials": 100,
        "practiceTrials": 2,
        "marblesSampled": 100,
        "probRed": 0.5,
        "lambdaAI": 5,
        "roleFirst": "receiver",
        "roles": [
            "sender",
            "receiver"
        ],
        "cost": "unif",
        "goal": "over",
        "catchTrials": [
            20,
            71,
            55,
            51,
            27,
            2,
            6,
            13,
            15,
            86
        ],
        "scoreTotal": {
            "player": 315,
            "opp": -1746
        },
        "sona": {
            "experiment_id": 2228,
            "credit_token": "b315147ae43241ea9c65086cb510cfb7"
        },
        "pilot": false,
        "debug": false
    },
    "trials": [
        {
            "exptPart": "practice",
            "trialNumber": 1,
            "roleCurrent": "sender",
            "marblesSampled": 100,
            "probRed": 0.5,
            "lambda": 5,
            "drawnRed": 64,
            "reportedRed": 70,
            "inferredRed": 65,
            "playerTrialScore": 1,
            "oppTrialScore": -1,
            "playerTotalScore": 1,
            "oppTotalScore": -1,
            "waitTime": 2715.1128462509496,
            "responseTime": 1642836369070,
            "catchQuestion": "How many <b class=\"r\">red<\/b> marbles did you actually draw (before any changes)? ",
            "catchKey": 64,
            "catchResponse": 64,
            "catchTime": 1642836369071,
            "trialTime": 0
        },
        {
            "exptPart": "practice",
            "trialNumber": 2,
            "roleCurrent": "receiver",
            "marblesSampled": 100,
            "probRed": 0.5,
            "lambda": 5,
            "drawnRed": 73,
            "reportedRed": 76,
            "inferredRed": 68,
            "playerTrialScore": -5,
            "oppTrialScore": 0,
            "playerTotalScore": -4,
            "oppTotalScore": -1,
            "waitTime": 7373.716714060299,
            "responseTime": 1642836454824,
            "catchQuestion": "How many <b class=\"r\">red<\/b> marbles did your opponent report drawing? ",
            "catchKey": 76,
            "catchResponse": 76,
            "catchTime": 1642836454824,
            "trialTime": 0
        },
        {
            "exptPart": "trial",
            "trialNumber": 1,
            "roleCurrent": "receiver",
            "marblesSampled": 100,
            "probRed": 0.5,
            "lambda": 5,
            "drawnRed": 60,
            "reportedRed": 68,
            "inferredRed": 64,
            "playerTrialScore": -4,
            "oppTrialScore": 4,
            "playerTotalScore": -4,
            "oppTotalScore": 4,
            "waitTime": 7213.685920383175,
            "responseTime": 1642836501879,
            "catchQuestion": "How many <b class=\"r\">red<\/b> marbles did your opponent report drawing? ",
            "catchKey": -1,
            "catchResponse": -1,
            "catchTime": 1642836454824,
            "trialTime": 0
        },
        {
            "exptPart": "trial",
            "trialNumber": 2,
            "roleCurrent": "sender",
            "marblesSampled": 100,
            "probRed": 0.5,
            "lambda": 5,
            "drawnRed": 15,
            "reportedRed": 65,
            "inferredRed": 59,
            "playerTrialScore": 44,
            "oppTrialScore": -44,
            "playerTotalScore": 40,
            "oppTotalScore": -40,
            "waitTime": 2454.240029595462,
            "responseTime": 1642836566690,
            "catchQuestion": "How many <b class=\"r\">red<\/b> marbles did your opponent report drawing? ",
            "catchKey": -1,
            "catchResponse": -1,
            "catchTime": 1642836454824,
            "trialTime": 0
        },
        {
            "exptPart": "trial",
            "trialNumber": 3,
            "roleCurrent": "receiver",
            "marblesSampled": 100,
            "probRed": 0.5,
            "lambda": 5,
            "drawnRed": 68,
            "reportedRed": 73,
            "inferredRed": 30,
            "playerTrialScore": -38,
            "oppTrialScore": 0,
            "playerTotalScore": 2,
            "oppTotalScore": -40,
            "waitTime": 5240.875216211267,
            "responseTime": 1642836614497,
            "catchQuestion": "How many <b class=\"r\">red<\/b> marbles did your opponent report drawing? ",
            "catchKey": 73,
            "catchResponse": 73,
            "catchTime": 1642836614497,
            "trialTime": 0
        },
        {
            "exptPart": "trial",
            "trialNumber": 4,
            "roleCurrent": "sender",
            "marblesSampled": 100,
            "probRed": 0.5,
            "lambda": 5,
            "drawnRed": 17,
            "reportedRed": 55,
            "inferredRed": 50,
            "playerTrialScore": 33,
            "oppTrialScore": -33,
            "playerTotalScore": 35,
            "oppTotalScore": -73,
            "waitTime": 2657.199840882653,
            "responseTime": 1642836678791,
            "catchQuestion": "How many <b class=\"r\">red<\/b> marbles did your opponent report drawing? ",
            "catchKey": -1,
            "catchResponse": -1,
            "catchTime": 1642836614497,
            "trialTime": 0
        },
        {
            "exptPart": "trial",
            "trialNumber": 5,
            "roleCurrent": "receiver",
            "marblesSampled": 100,
            "probRed": 0.5,
            "lambda": 5,
            "drawnRed": 22,
            "reportedRed": 27,
            "inferredRed": 23,
            "playerTrialScore": -1,
            "oppTrialScore": 1,
            "playerTotalScore": 34,
            "oppTotalScore": -72,
            "waitTime": 5665.917683409261,
            "responseTime": 1642836726672,
            "catchQuestion": "How many <b class=\"r\">red<\/b> marbles did your opponent report drawing? ",
            "catchKey": -1,
            "catchResponse": -1,
            "catchTime": 1642836726672,
            "trialTime": 0
        },
        {
            "exptPart": "trial",
            "trialNumber": 6,
            "roleCurrent": "sender",
            "marblesSampled": 100,
            "probRed": 0.5,
            "lambda": 5,
            "drawnRed": 28,
            "reportedRed": 63,
            "inferredRed": 61,
            "playerTrialScore": 33,
            "oppTrialScore": -33,
            "playerTotalScore": 67,
            "oppTotalScore": -105,
            "waitTime": 2843.102480263138,
            "responseTime": 1642836804926,
            "catchQuestion": "How many <b class=\"r\">red<\/b> marbles did your opponent report drawing? ",
            "catchKey": -1,
            "catchResponse": -1,
            "catchTime": 1642836726672,
            "trialTime": 0
        },
        {
            "exptPart": "trial",
            "trialNumber": 7,
            "roleCurrent": "receiver",
            "marblesSampled": 100,
            "probRed": 0.5,
            "lambda": 5,
            "drawnRed": 49,
            "reportedRed": 54,
            "inferredRed": 25,
            "playerTrialScore": -24,
            "oppTrialScore": 0,
            "playerTotalScore": 43,
            "oppTotalScore": -105,
            "waitTime": 6424.945793854193,
            "responseTime": 1642836827386,
            "catchQuestion": "How many <b class=\"r\">red<\/b> marbles did your opponent report drawing? ",
            "catchKey": 54,
            "catchResponse": 54,
            "catchTime": 1642836827386,
            "trialTime": 0
        },
        {
            "exptPart": "trial",
            "trialNumber": 8,
            "roleCurrent": "sender",
            "marblesSampled": 100,
            "probRed": 0.5,
            "lambda": 5,
            "drawnRed": 62,
            "reportedRed": 100,
            "inferredRed": 97,
            "playerTrialScore": 35,
            "oppTrialScore": -35,
            "playerTotalScore": 78,
            "oppTotalScore": -140,
            "waitTime": 2679.3836141425954,
            "responseTime": 1642836872362,
            "catchQuestion": "How many <b class=\"r\">red<\/b> marbles did your opponent report drawing? ",
            "catchKey": -1,
            "catchResponse": -1,
            "catchTime": 1642836827386,
            "trialTime": 0
        },
        {
            "exptPart": "trial",
            "trialNumber": 9,
            "roleCurrent": "receiver",
            "marblesSampled": 100,
            "probRed": 0.5,
            "lambda": 5,
            "drawnRed": 54,
            "reportedRed": 57,
            "inferredRed": 37,
            "playerTrialScore": -17,
            "oppTrialScore": 0,
            "playerTotalScore": 61,
            "oppTotalScore": -140,
            "waitTime": 5515.350490180303,
            "responseTime": 1642836889738,
            "catchQuestion": "How many <b class=\"r\">red<\/b> marbles did your opponent report drawing? ",
            "catchKey": -1,
            "catchResponse": -1,
            "catchTime": 1642836827386,
            "trialTime": 0
        },
        {
            "exptPart": "trial",
            "trialNumber": 10,
            "roleCurrent": "sender",
            "marblesSampled": 100,
            "probRed": 0.5,
            "lambda": 5,
            "drawnRed": 17,
            "reportedRed": 0,
            "inferredRed": 0,
            "playerTrialScore": 0,
            "oppTrialScore": -17,
            "playerTotalScore": 61,
            "oppTotalScore": -157,
            "waitTime": 2932.470173403765,
            "responseTime": 1642836917925,
            "catchQuestion": "How many <b class=\"r\">red<\/b> marbles did your opponent report drawing? ",
            "catchKey": -1,
            "catchResponse": -1,
            "catchTime": 1642836917925,
            "trialTime": 0
        },
        {
            "exptPart": "trial",
            "trialNumber": 11,
            "roleCurrent": "receiver",
            "marblesSampled": 100,
            "probRed": 0.5,
            "lambda": 5,
            "drawnRed": 84,
            "reportedRed": 91,
            "inferredRed": 67,
            "playerTrialScore": -17,
            "oppTrialScore": 0,
            "playerTotalScore": 44,
            "oppTotalScore": -157,
            "waitTime": 5704.606576626793,
            "responseTime": 1642836947219,
            "catchQuestion": "How many <b class=\"r\">red<\/b> marbles did your opponent report drawing? ",
            "catchKey": -1,
            "catchResponse": -1,
            "catchTime": 1642836917925,
            "trialTime": 0
        },
        {
            "exptPart": "trial",
            "trialNumber": 12,
            "roleCurrent": "sender",
            "marblesSampled": 100,
            "probRed": 0.5,
            "lambda": 5,
            "drawnRed": 65,
            "reportedRed": 98,
            "inferredRed": 94,
            "playerTrialScore": 29,
            "oppTrialScore": -29,
            "playerTotalScore": 73,
            "oppTotalScore": -186,
            "waitTime": 2971.413389439912,
            "responseTime": 1642837088057,
            "catchQuestion": "How many <b class=\"r\">red<\/b> marbles did your opponent report drawing? ",
            "catchKey": -1,
            "catchResponse": -1,
            "catchTime": 1642836917925,
            "trialTime": 0
        },
        {
            "exptPart": "trial",
            "trialNumber": 13,
            "roleCurrent": "receiver",
            "marblesSampled": 100,
            "probRed": 0.5,
            "lambda": 5,
            "drawnRed": 95,
            "reportedRed": 100,
            "inferredRed": 68,
            "playerTrialScore": -27,
            "oppTrialScore": 0,
            "playerTotalScore": 46,
            "oppTotalScore": -186,
            "waitTime": 6028.527717756128,
            "responseTime": 1642837098934,
            "catchQuestion": "How many <b class=\"r\">red<\/b> marbles did your opponent report drawing? ",
            "catchKey": -1,
            "catchResponse": -1,
            "catchTime": 1642836917925,
            "trialTime": 0
        },
        {
            "exptPart": "trial",
            "trialNumber": 14,
            "roleCurrent": "sender",
            "marblesSampled": 100,
            "probRed": 0.5,
            "lambda": 5,
            "drawnRed": 51,
            "reportedRed": 101,
            "inferredRed": 96,
            "playerTrialScore": 45,
            "oppTrialScore": -45,
            "playerTotalScore": 91,
            "oppTotalScore": -231,
            "waitTime": 2354.4073871064093,
            "responseTime": 1642837142346,
            "catchQuestion": "How many <b class=\"r\">red<\/b> marbles did you actually draw (before any changes)? ",
            "catchKey": 51,
            "catchResponse": 51,
            "catchTime": 1642837142347,
            "trialTime": 0
        },
        {
            "exptPart": "trial",
            "trialNumber": 15,
            "roleCurrent": "receiver",
            "marblesSampled": 100,
            "probRed": 0.5,
            "lambda": 5,
            "drawnRed": 32,
            "reportedRed": 34,
            "inferredRed": 45,
            "playerTrialScore": -13,
            "oppTrialScore": 13,
            "playerTotalScore": 78,
            "oppTotalScore": -218,
            "waitTime": 5250.332103191467,
            "responseTime": 1642837178275,
            "catchQuestion": "How many <b class=\"r\">red<\/b> marbles did you actually draw (before any changes)? ",
            "catchKey": -1,
            "catchResponse": -1,
            "catchTime": 1642837178275,
            "trialTime": 0
        },
        {
            "exptPart": "trial",
            "trialNumber": 16,
            "roleCurrent": "sender",
            "marblesSampled": 100,
            "probRed": 0.5,
            "lambda": 5,
            "drawnRed": 69,
            "reportedRed": 99,
            "inferredRed": 91,
            "playerTrialScore": 22,
            "oppTrialScore": -22,
            "playerTotalScore": 100,
            "oppTotalScore": -240,
            "waitTime": 3086.207618673563,
            "responseTime": 1642837211779,
            "catchQuestion": "How many <b class=\"r\">red<\/b> marbles did you actually draw (before any changes)? ",
            "catchKey": 69,
            "catchResponse": 69,
            "catchTime": 1642837211779,
            "trialTime": 0
        },
        {
            "exptPart": "trial",
            "trialNumber": 17,
            "roleCurrent": "receiver",
            "marblesSampled": 100,
            "probRed": 0.5,
            "lambda": 5,
            "drawnRed": 50,
            "reportedRed": 53,
            "inferredRed": 53,
            "playerTrialScore": -3,
            "oppTrialScore": 3,
            "playerTotalScore": 97,
            "oppTotalScore": -237,
            "waitTime": 5548.061178284617,
            "responseTime": 1642837253501,
            "catchQuestion": "How many <b class=\"r\">red<\/b> marbles did you actually draw (before any changes)? ",
            "catchKey": -1,
            "catchResponse": -1,
            "catchTime": 1642837211779,
            "trialTime": 0
        },
        {
            "exptPart": "trial",
            "trialNumber": 18,
            "roleCurrent": "sender",
            "marblesSampled": 100,
            "probRed": 0.5,
            "lambda": 5,
            "drawnRed": 25,
            "reportedRed": 0,
            "inferredRed": 0,
            "playerTrialScore": 0,
            "oppTrialScore": -25,
            "playerTotalScore": 97,
            "oppTotalScore": -262,
            "waitTime": 2151.6366998384374,
            "responseTime": 1642837363671,
            "catchQuestion": "How many <b class=\"r\">red<\/b> marbles did you actually draw (before any changes)? ",
            "catchKey": -1,
            "catchResponse": -1,
            "catchTime": 1642837211779,
            "trialTime": 0
        },
        {
            "exptPart": "trial",
            "trialNumber": 19,
            "roleCurrent": "receiver",
            "marblesSampled": 100,
            "probRed": 0.5,
            "lambda": 5,
            "drawnRed": 31,
            "reportedRed": 41,
            "inferredRed": 39,
            "playerTrialScore": -8,
            "oppTrialScore": 8,
            "playerTotalScore": 89,
            "oppTotalScore": -254,
            "waitTime": 6527.25701294436,
            "responseTime": 1642837409811,
            "catchQuestion": "How many <b class=\"r\">red<\/b> marbles did you actually draw (before any changes)? ",
            "catchKey": -1,
            "catchResponse": -1,
            "catchTime": 1642837211779,
            "trialTime": 0
        },
        {
            "exptPart": "trial",
            "trialNumber": 20,
            "roleCurrent": "sender",
            "marblesSampled": 100,
            "probRed": 0.5,
            "lambda": 5,
            "drawnRed": 14,
            "reportedRed": 0,
            "inferredRed": 0,
            "playerTrialScore": 0,
            "oppTrialScore": -14,
            "playerTotalScore": 89,
            "oppTotalScore": -268,
            "waitTime": 2307.1033468466476,
            "responseTime": 1642837433921,
            "catchQuestion": "How many <b class=\"r\">red<\/b> marbles did you actually draw (before any changes)? ",
            "catchKey": -1,
            "catchResponse": -1,
            "catchTime": 1642837433921,
            "trialTime": 0
        },
        {
            "exptPart": "trial",
            "trialNumber": 21,
            "roleCurrent": "receiver",
            "marblesSampled": 100,
            "probRed": 0.5,
            "lambda": 5,
            "drawnRed": 26,
            "reportedRed": 34,
            "inferredRed": 30,
            "playerTrialScore": -4,
            "oppTrialScore": 4,
            "playerTotalScore": 85,
            "oppTotalScore": -264,
            "waitTime": 5377.844524008639,
            "responseTime": 1642837486445,
            "catchQuestion": "How many <b class=\"r\">red<\/b> marbles did your opponent report drawing? ",
            "catchKey": 34,
            "catchResponse": 34,
            "catchTime": 1642837486445,
            "trialTime": 0
        },
        {
            "exptPart": "trial",
            "trialNumber": 22,
            "roleCurrent": "sender",
            "marblesSampled": 100,
            "probRed": 0.5,
            "lambda": 5,
            "drawnRed": 23,
            "reportedRed": -1,
            "inferredRed": 0,
            "playerTrialScore": 0,
            "oppTrialScore": -23,
            "playerTotalScore": 85,
            "oppTotalScore": -287,
            "waitTime": 2340.629236297259,
            "responseTime": 1642837522917,
            "catchQuestion": "How many <b class=\"r\">red<\/b> marbles did your opponent report drawing? ",
            "catchKey": -1,
            "catchResponse": -1,
            "catchTime": 1642837486445,
            "trialTime": 0
        },
        {
            "exptPart": "trial",
            "trialNumber": 23,
            "roleCurrent": "receiver",
            "marblesSampled": 100,
            "probRed": 0.5,
            "lambda": 5,
            "drawnRed": 69,
            "reportedRed": 72,
            "inferredRed": 68,
            "playerTrialScore": -1,
            "oppTrialScore": 0,
            "playerTotalScore": 84,
            "oppTotalScore": -287,
            "waitTime": 6522.770189615399,
            "responseTime": 1642837551778,
            "catchQuestion": "How many <b class=\"r\">red<\/b> marbles did your opponent report drawing? ",
            "catchKey": -1,
            "catchResponse": -1,
            "catchTime": 1642837486445,
            "trialTime": 0
        },
        {
            "exptPart": "trial",
            "trialNumber": 24,
            "roleCurrent": "sender",
            "marblesSampled": 100,
            "probRed": 0.5,
            "lambda": 5,
            "drawnRed": 35,
            "reportedRed": 0,
            "inferredRed": 0,
            "playerTrialScore": 0,
            "oppTrialScore": -35,
            "playerTotalScore": 84,
            "oppTotalScore": -322,
            "waitTime": 3126.882609116353,
            "responseTime": 1642837581058,
            "catchQuestion": "How many <b class=\"r\">red<\/b> marbles did your opponent report drawing? ",
            "catchKey": -1,
            "catchResponse": -1,
            "catchTime": 1642837486445,
            "trialTime": 0
        },
        {
            "exptPart": "trial",
            "trialNumber": 25,
            "roleCurrent": "receiver",
            "marblesSampled": 100,
            "probRed": 0.5,
            "lambda": 5,
            "drawnRed": 57,
            "reportedRed": 64,
            "inferredRed": 55,
            "playerTrialScore": -2,
            "oppTrialScore": 0,
            "playerTotalScore": 82,
            "oppTotalScore": -322,
            "waitTime": 5198.594099922164,
            "responseTime": 1642837602592,
            "catchQuestion": "How many <b class=\"r\">red<\/b> marbles did your opponent report drawing? ",
            "catchKey": -1,
            "catchResponse": -1,
            "catchTime": 1642837602592,
            "trialTime": 0
        },
        {
            "exptPart": "trial",
            "trialNumber": 26,
            "roleCurrent": "sender",
            "marblesSampled": 100,
            "probRed": 0.5,
            "lambda": 5,
            "drawnRed": 41,
            "reportedRed": 100,
            "inferredRed": 94,
            "playerTrialScore": 53,
            "oppTrialScore": -53,
            "playerTotalScore": 135,
            "oppTotalScore": -375,
            "waitTime": 2835.841894680998,
            "responseTime": 1642837653779,
            "catchQuestion": "How many <b class=\"r\">red<\/b> marbles did your opponent report drawing? ",
            "catchKey": -1,
            "catchResponse": -1,
            "catchTime": 1642837602592,
            "trialTime": 0
        },
        {
            "exptPart": "trial",
            "trialNumber": 27,
            "roleCurrent": "receiver",
            "marblesSampled": 100,
            "probRed": 0.5,
            "lambda": 5,
            "drawnRed": 59,
            "reportedRed": 64,
            "inferredRed": 55,
            "playerTrialScore": -4,
            "oppTrialScore": 0,
            "playerTotalScore": 131,
            "oppTotalScore": -375,
            "waitTime": 5166.373659960359,
            "responseTime": 1642837671525,
            "catchQuestion": "How many <b class=\"r\">red<\/b> marbles did your opponent report drawing? ",
            "catchKey": -1,
            "catchResponse": -1,
            "catchTime": 1642837602592,
            "trialTime": 0
        },
        {
            "exptPart": "trial",
            "trialNumber": 28,
            "roleCurrent": "sender",
            "marblesSampled": 100,
            "probRed": 0.5,
            "lambda": 5,
            "drawnRed": 33,
            "reportedRed": 101,
            "inferredRed": 97,
            "playerTrialScore": 64,
            "oppTrialScore": -64,
            "playerTotalScore": 195,
            "oppTotalScore": -439,
            "waitTime": 3023.8964386351827,
            "responseTime": 1642837714289,
            "catchQuestion": "How many <b class=\"r\">red<\/b> marbles did you actually draw (before any changes)? ",
            "catchKey": 33,
            "catchResponse": 33,
            "catchTime": 1642837714290,
            "trialTime": 0
        },
        {
            "exptPart": "trial",
            "trialNumber": 29,
            "roleCurrent": "receiver",
            "marblesSampled": 100,
            "probRed": 0.5,
            "lambda": 5,
            "drawnRed": 68,
            "reportedRed": 72,
            "inferredRed": 50,
            "playerTrialScore": -18,
            "oppTrialScore": 0,
            "playerTotalScore": 177,
            "oppTotalScore": -439,
            "waitTime": 6593.498147124867,
            "responseTime": 1642837781851,
            "catchQuestion": "How many <b class=\"r\">red<\/b> marbles did you actually draw (before any changes)? ",
            "catchKey": -1,
            "catchResponse": -1,
            "catchTime": 1642837714290,
            "trialTime": 0
        },
        {
            "exptPart": "trial",
            "trialNumber": 30,
            "roleCurrent": "sender",
            "marblesSampled": 100,
            "probRed": 0.5,
            "lambda": 5,
            "drawnRed": 50,
            "reportedRed": 100,
            "inferredRed": 96,
            "playerTrialScore": 46,
            "oppTrialScore": -46,
            "playerTotalScore": 223,
            "oppTotalScore": -485,
            "waitTime": 2272.196230259782,
            "responseTime": 1642837814124,
            "catchQuestion": "How many <b class=\"r\">red<\/b> marbles did you actually draw (before any changes)? ",
            "catchKey": -1,
            "catchResponse": -1,
            "catchTime": 1642837814124,
            "trialTime": 0
        },
        {
            "exptPart": "trial",
            "trialNumber": 31,
            "roleCurrent": "receiver",
            "marblesSampled": 100,
            "probRed": 0.5,
            "lambda": 5,
            "drawnRed": 91,
            "reportedRed": 94,
            "inferredRed": 50,
            "playerTrialScore": -41,
            "oppTrialScore": 0,
            "playerTotalScore": 182,
            "oppTotalScore": -485,
            "waitTime": 5712.7356882889835,
            "responseTime": 1642837854622,
            "catchQuestion": "How many <b class=\"r\">red<\/b> marbles did you actually draw (before any changes)? ",
            "catchKey": -1,
            "catchResponse": -1,
            "catchTime": 1642837814124,
            "trialTime": 0
        },
        {
            "exptPart": "trial",
            "trialNumber": 32,
            "roleCurrent": "sender",
            "marblesSampled": 100,
            "probRed": 0.5,
            "lambda": 5,
            "drawnRed": 73,
            "reportedRed": -2,
            "inferredRed": 0,
            "playerTrialScore": 0,
            "oppTrialScore": -73,
            "playerTotalScore": 182,
            "oppTotalScore": -558,
            "waitTime": 2699.912933622175,
            "responseTime": 1642837902495,
            "catchQuestion": "How many <b class=\"r\">red<\/b> marbles did you actually draw (before any changes)? ",
            "catchKey": -1,
            "catchResponse": -1,
            "catchTime": 1642837814124,
            "trialTime": 0
        },
        {
            "exptPart": "trial",
            "trialNumber": 33,
            "roleCurrent": "receiver",
            "marblesSampled": 100,
            "probRed": 0.5,
            "lambda": 5,
            "drawnRed": 71,
            "reportedRed": 76,
            "inferredRed": 50,
            "playerTrialScore": -21,
            "oppTrialScore": 0,
            "playerTotalScore": 161,
            "oppTotalScore": -558,
            "waitTime": 5977.649006771884,
            "responseTime": 1642837911951,
            "catchQuestion": "How many <b class=\"r\">red<\/b> marbles did you actually draw (before any changes)? ",
            "catchKey": -1,
            "catchResponse": -1,
            "catchTime": 1642837814124,
            "trialTime": 0
        },
        {
            "exptPart": "trial",
            "trialNumber": 34,
            "roleCurrent": "sender",
            "marblesSampled": 100,
            "probRed": 0.5,
            "lambda": 5,
            "drawnRed": 18,
            "reportedRed": 0,
            "inferredRed": 0,
            "playerTrialScore": 0,
            "oppTrialScore": -18,
            "playerTotalScore": 161,
            "oppTotalScore": -576,
            "waitTime": 2371.103937522414,
            "responseTime": 1642837931844,
            "catchQuestion": "How many <b class=\"r\">red<\/b> marbles did you actually draw (before any changes)? ",
            "catchKey": -1,
            "catchResponse": -1,
            "catchTime": 1642837814124,
            "trialTime": 0
        },
        {
            "exptPart": "trial",
            "trialNumber": 35,
            "roleCurrent": "receiver",
            "marblesSampled": 100,
            "probRed": 0.5,
            "lambda": 5,
            "drawnRed": 18,
            "reportedRed": 22,
            "inferredRed": 50,
            "playerTrialScore": -32,
            "oppTrialScore": 32,
            "playerTotalScore": 129,
            "oppTotalScore": -544,
            "waitTime": 6077.149094411703,
            "responseTime": 1642837942062,
            "catchQuestion": "How many <b class=\"r\">red<\/b> marbles did you actually draw (before any changes)? ",
            "catchKey": -1,
            "catchResponse": -1,
            "catchTime": 1642837942062,
            "trialTime": 0
        },
        {
            "exptPart": "trial",
            "trialNumber": 36,
            "roleCurrent": "sender",
            "marblesSampled": 100,
            "probRed": 0.5,
            "lambda": 5,
            "drawnRed": 23,
            "reportedRed": 0,
            "inferredRed": 0,
            "playerTrialScore": 0,
            "oppTrialScore": -23,
            "playerTotalScore": 129,
            "oppTotalScore": -567,
            "waitTime": 2128.3571135313155,
            "responseTime": 1642837973620,
            "catchQuestion": "How many <b class=\"r\">red<\/b> marbles did you actually draw (before any changes)? ",
            "catchKey": -1,
            "catchResponse": -1,
            "catchTime": 1642837942062,
            "trialTime": 0
        },
        {
            "exptPart": "trial",
            "trialNumber": 37,
            "roleCurrent": "receiver",
            "marblesSampled": 100,
            "probRed": 0.5,
            "lambda": 5,
            "drawnRed": 65,
            "reportedRed": 67,
            "inferredRed": 50,
            "playerTrialScore": -15,
            "oppTrialScore": 0,
            "playerTotalScore": 114,
            "oppTotalScore": -567,
            "waitTime": 5409.2925705079915,
            "responseTime": 1642837999194,
            "catchQuestion": "How many <b class=\"r\">red<\/b> marbles did you actually draw (before any changes)? ",
            "catchKey": -1,
            "catchResponse": -1,
            "catchTime": 1642837942062,
            "trialTime": 0
        },
        {
            "exptPart": "trial",
            "trialNumber": 38,
            "roleCurrent": "sender",
            "marblesSampled": 100,
            "probRed": 0.5,
            "lambda": 5,
            "drawnRed": 31,
            "reportedRed": 0,
            "inferredRed": 0,
            "playerTrialScore": 0,
            "oppTrialScore": -31,
            "playerTotalScore": 114,
            "oppTotalScore": -598,
            "waitTime": 2486.3863119496054,
            "responseTime": 1642838029396,
            "catchQuestion": "How many <b class=\"r\">red<\/b> marbles did you actually draw (before any changes)? ",
            "catchKey": -1,
            "catchResponse": -1,
            "catchTime": 1642837942062,
            "trialTime": 0
        },
        {
            "exptPart": "trial",
            "trialNumber": 39,
            "roleCurrent": "receiver",
            "marblesSampled": 100,
            "probRed": 0.5,
            "lambda": 5,
            "drawnRed": 68,
            "reportedRed": 73,
            "inferredRed": 68,
            "playerTrialScore": 0,
            "oppTrialScore": 0,
            "playerTotalScore": 114,
            "oppTotalScore": -598,
            "waitTime": 6975.737459830466,
            "responseTime": 1642838047413,
            "catchQuestion": "How many <b class=\"r\">red<\/b> marbles did you actually draw (before any changes)? ",
            "catchKey": -1,
            "catchResponse": -1,
            "catchTime": 1642837942062,
            "trialTime": 0
        },
        {
            "exptPart": "trial",
            "trialNumber": 40,
            "roleCurrent": "sender",
            "marblesSampled": 100,
            "probRed": 0.5,
            "lambda": 5,
            "drawnRed": 55,
            "reportedRed": 100,
            "inferredRed": 96,
            "playerTrialScore": 41,
            "oppTrialScore": -41,
            "playerTotalScore": 155,
            "oppTotalScore": -639,
            "waitTime": 2098.3395249519062,
            "responseTime": 1642838090465,
            "catchQuestion": "How many <b class=\"r\">red<\/b> marbles did you actually draw (before any changes)? ",
            "catchKey": -1,
            "catchResponse": -1,
            "catchTime": 1642838090466,
            "trialTime": 0
        },
        {
            "exptPart": "trial",
            "trialNumber": 41,
            "roleCurrent": "receiver",
            "marblesSampled": 100,
            "probRed": 0.5,
            "lambda": 5,
            "drawnRed": 28,
            "reportedRed": 33,
            "inferredRed": 25,
            "playerTrialScore": -3,
            "oppTrialScore": 0,
            "playerTotalScore": 152,
            "oppTotalScore": -639,
            "waitTime": 6907.421595126127,
            "responseTime": 1642838118695,
            "catchQuestion": "How many <b class=\"r\">red<\/b> marbles did you actually draw (before any changes)? ",
            "catchKey": -1,
            "catchResponse": -1,
            "catchTime": 1642838090466,
            "trialTime": 0
        },
        {
            "exptPart": "trial",
            "trialNumber": 42,
            "roleCurrent": "sender",
            "marblesSampled": 100,
            "probRed": 0.5,
            "lambda": 5,
            "drawnRed": 14,
            "reportedRed": 0,
            "inferredRed": 0,
            "playerTrialScore": 0,
            "oppTrialScore": -14,
            "playerTotalScore": 152,
            "oppTotalScore": -653,
            "waitTime": 2812.488176705695,
            "responseTime": 1642838135341,
            "catchQuestion": "How many <b class=\"r\">red<\/b> marbles did you actually draw (before any changes)? ",
            "catchKey": -1,
            "catchResponse": -1,
            "catchTime": 1642838090466,
            "trialTime": 0
        },
        {
            "exptPart": "trial",
            "trialNumber": 43,
            "roleCurrent": "receiver",
            "marblesSampled": 100,
            "probRed": 0.5,
            "lambda": 5,
            "drawnRed": 66,
            "reportedRed": 72,
            "inferredRed": 55,
            "playerTrialScore": -11,
            "oppTrialScore": 0,
            "playerTotalScore": 141,
            "oppTotalScore": -653,
            "waitTime": 5380.255844120269,
            "responseTime": 1642838149335,
            "catchQuestion": "How many <b class=\"r\">red<\/b> marbles did you actually draw (before any changes)? ",
            "catchKey": -1,
            "catchResponse": -1,
            "catchTime": 1642838090466,
            "trialTime": 0
        },
        {
            "exptPart": "trial",
            "trialNumber": 44,
            "roleCurrent": "sender",
            "marblesSampled": 100,
            "probRed": 0.5,
            "lambda": 5,
            "drawnRed": 32,
            "reportedRed": 0,
            "inferredRed": 0,
            "playerTrialScore": 0,
            "oppTrialScore": -32,
            "playerTotalScore": 141,
            "oppTotalScore": -685,
            "waitTime": 3005.520322470673,
            "responseTime": 1642838175361,
            "catchQuestion": "How many <b class=\"r\">red<\/b> marbles did you actually draw (before any changes)? ",
            "catchKey": -1,
            "catchResponse": -1,
            "catchTime": 1642838090466,
            "trialTime": 0
        },
        {
            "exptPart": "trial",
            "trialNumber": 45,
            "roleCurrent": "receiver",
            "marblesSampled": 100,
            "probRed": 0.5,
            "lambda": 5,
            "drawnRed": 27,
            "reportedRed": 31,
            "inferredRed": 25,
            "playerTrialScore": -2,
            "oppTrialScore": 0,
            "playerTotalScore": 139,
            "oppTotalScore": -685,
            "waitTime": 7278.614799937272,
            "responseTime": 1642838187122,
            "catchQuestion": "How many <b class=\"r\">red<\/b> marbles did you actually draw (before any changes)? ",
            "catchKey": -1,
            "catchResponse": -1,
            "catchTime": 1642838187122,
            "trialTime": 0
        },
        {
            "exptPart": "trial",
            "trialNumber": 46,
            "roleCurrent": "sender",
            "marblesSampled": 100,
            "probRed": 0.5,
            "lambda": 5,
            "drawnRed": 25,
            "reportedRed": -1,
            "inferredRed": 0,
            "playerTrialScore": 0,
            "oppTrialScore": -25,
            "playerTotalScore": 139,
            "oppTotalScore": -710,
            "waitTime": 2081.3606132060386,
            "responseTime": 1642838213805,
            "catchQuestion": "How many <b class=\"r\">red<\/b> marbles did you actually draw (before any changes)? ",
            "catchKey": -1,
            "catchResponse": -1,
            "catchTime": 1642838187122,
            "trialTime": 0
        },
        {
            "exptPart": "trial",
            "trialNumber": 47,
            "roleCurrent": "receiver",
            "marblesSampled": 100,
            "probRed": 0.5,
            "lambda": 5,
            "drawnRed": 56,
            "reportedRed": 57,
            "inferredRed": 57,
            "playerTrialScore": -1,
            "oppTrialScore": 1,
            "playerTotalScore": 138,
            "oppTotalScore": -709,
            "waitTime": 5604.130663706559,
            "responseTime": 1642838224163,
            "catchQuestion": "How many <b class=\"r\">red<\/b> marbles did you actually draw (before any changes)? ",
            "catchKey": -1,
            "catchResponse": -1,
            "catchTime": 1642838187122,
            "trialTime": 0
        },
        {
            "exptPart": "trial",
            "trialNumber": 48,
            "roleCurrent": "sender",
            "marblesSampled": 100,
            "probRed": 0.5,
            "lambda": 5,
            "drawnRed": 47,
            "reportedRed": 102,
            "inferredRed": 100,
            "playerTrialScore": 53,
            "oppTrialScore": -53,
            "playerTotalScore": 191,
            "oppTotalScore": -762,
            "waitTime": 2352.3162884339663,
            "responseTime": 1642838261218,
            "catchQuestion": "How many <b class=\"r\">red<\/b> marbles did you actually draw (before any changes)? ",
            "catchKey": -1,
            "catchResponse": -1,
            "catchTime": 1642838187122,
            "trialTime": 0
        },
        {
            "exptPart": "trial",
            "trialNumber": 49,
            "roleCurrent": "receiver",
            "marblesSampled": 100,
            "probRed": 0.5,
            "lambda": 5,
            "drawnRed": 64,
            "reportedRed": 70,
            "inferredRed": 70,
            "playerTrialScore": -6,
            "oppTrialScore": 6,
            "playerTotalScore": 185,
            "oppTotalScore": -756,
            "waitTime": 7429.751160969463,
            "responseTime": 1642838272268,
            "catchQuestion": "How many <b class=\"r\">red<\/b> marbles did you actually draw (before any changes)? ",
            "catchKey": -1,
            "catchResponse": -1,
            "catchTime": 1642838187122,
            "trialTime": 0
        },
        {
            "exptPart": "trial",
            "trialNumber": 50,
            "roleCurrent": "sender",
            "marblesSampled": 100,
            "probRed": 0.5,
            "lambda": 5,
            "drawnRed": 33,
            "reportedRed": 0,
            "inferredRed": 0,
            "playerTrialScore": 0,
            "oppTrialScore": -33,
            "playerTotalScore": 185,
            "oppTotalScore": -789,
            "waitTime": 2793.1416600723232,
            "responseTime": 1642838300851,
            "catchQuestion": "How many <b class=\"r\">red<\/b> marbles did you actually draw (before any changes)? ",
            "catchKey": -1,
            "catchResponse": -1,
            "catchTime": 1642838300851,
            "trialTime": 0
        },
        {
            "exptPart": "trial",
            "trialNumber": 51,
            "roleCurrent": "receiver",
            "marblesSampled": 100,
            "probRed": 0.5,
            "lambda": 5,
            "drawnRed": 53,
            "reportedRed": 62,
            "inferredRed": 62,
            "playerTrialScore": -9,
            "oppTrialScore": 9,
            "playerTotalScore": 176,
            "oppTotalScore": -780,
            "waitTime": 5758.142222549994,
            "responseTime": 1642838321202,
            "catchQuestion": "How many <b class=\"r\">red<\/b> marbles did you actually draw (before any changes)? ",
            "catchKey": -1,
            "catchResponse": -1,
            "catchTime": 1642838300851,
            "trialTime": 0
        },
        {
            "exptPart": "trial",
            "trialNumber": 52,
            "roleCurrent": "sender",
            "marblesSampled": 100,
            "probRed": 0.5,
            "lambda": 5,
            "drawnRed": 42,
            "reportedRed": -2,
            "inferredRed": 0,
            "playerTrialScore": 0,
            "oppTrialScore": -42,
            "playerTotalScore": 176,
            "oppTotalScore": -822,
            "waitTime": 2955.625151396683,
            "responseTime": 1642838353069,
            "catchQuestion": "How many <b class=\"r\">red<\/b> marbles did you actually draw (before any changes)? ",
            "catchKey": 42,
            "catchResponse": 42,
            "catchTime": 1642838353069,
            "trialTime": 0
        },
        {
            "exptPart": "trial",
            "trialNumber": 53,
            "roleCurrent": "receiver",
            "marblesSampled": 100,
            "probRed": 0.5,
            "lambda": 5,
            "drawnRed": 60,
            "reportedRed": 66,
            "inferredRed": 64,
            "playerTrialScore": -4,
            "oppTrialScore": 4,
            "playerTotalScore": 172,
            "oppTotalScore": -818,
            "waitTime": 5854.17251909952,
            "responseTime": 1642838372587,
            "catchQuestion": "How many <b class=\"r\">red<\/b> marbles did you actually draw (before any changes)? ",
            "catchKey": -1,
            "catchResponse": -1,
            "catchTime": 1642838353069,
            "trialTime": 0
        },
        {
            "exptPart": "trial",
            "trialNumber": 54,
            "roleCurrent": "sender",
            "marblesSampled": 100,
            "probRed": 0.5,
            "lambda": 5,
            "drawnRed": 28,
            "reportedRed": 0,
            "inferredRed": 0,
            "playerTrialScore": 0,
            "oppTrialScore": -28,
            "playerTotalScore": 172,
            "oppTotalScore": -846,
            "waitTime": 2903.7566052559623,
            "responseTime": 1642838396942,
            "catchQuestion": "How many <b class=\"r\">red<\/b> marbles did you actually draw (before any changes)? ",
            "catchKey": -1,
            "catchResponse": -1,
            "catchTime": 1642838353069,
            "trialTime": 0
        },
        {
            "exptPart": "trial",
            "trialNumber": 55,
            "roleCurrent": "receiver",
            "marblesSampled": 100,
            "probRed": 0.5,
            "lambda": 5,
            "drawnRed": 82,
            "reportedRed": 87,
            "inferredRed": 85,
            "playerTrialScore": -3,
            "oppTrialScore": 3,
            "playerTotalScore": 169,
            "oppTotalScore": -843,
            "waitTime": 5869.265694493333,
            "responseTime": 1642838405582,
            "catchQuestion": "How many <b class=\"r\">red<\/b> marbles did you actually draw (before any changes)? ",
            "catchKey": -1,
            "catchResponse": -1,
            "catchTime": 1642838405582,
            "trialTime": 0
        },
        {
            "exptPart": "trial",
            "trialNumber": 56,
            "roleCurrent": "sender",
            "marblesSampled": 100,
            "probRed": 0.5,
            "lambda": 5,
            "drawnRed": 24,
            "reportedRed": 0,
            "inferredRed": 0,
            "playerTrialScore": 0,
            "oppTrialScore": -24,
            "playerTotalScore": 169,
            "oppTotalScore": -867,
            "waitTime": 3194.773822611512,
            "responseTime": 1642838441368,
            "catchQuestion": "How many <b class=\"r\">red<\/b> marbles did you actually draw (before any changes)? ",
            "catchKey": 24,
            "catchResponse": 69,
            "catchTime": 1642838441368,
            "trialTime": 0
        },
        {
            "exptPart": "trial",
            "trialNumber": 57,
            "roleCurrent": "receiver",
            "marblesSampled": 100,
            "probRed": 0.5,
            "lambda": 5,
            "drawnRed": 84,
            "reportedRed": 94,
            "inferredRed": 75,
            "playerTrialScore": -9,
            "oppTrialScore": 0,
            "playerTotalScore": 160,
            "oppTotalScore": -867,
            "waitTime": 7403.816371516709,
            "responseTime": 1642838461872,
            "catchQuestion": "How many <b class=\"r\">red<\/b> marbles did you actually draw (before any changes)? ",
            "catchKey": -1,
            "catchResponse": -1,
            "catchTime": 1642838441368,
            "trialTime": 0
        },
        {
            "exptPart": "trial",
            "trialNumber": 58,
            "roleCurrent": "sender",
            "marblesSampled": 100,
            "probRed": 0.5,
            "lambda": 5,
            "drawnRed": 46,
            "reportedRed": 2,
            "inferredRed": 0,
            "playerTrialScore": 0,
            "oppTrialScore": -46,
            "playerTotalScore": 160,
            "oppTotalScore": -913,
            "waitTime": 2413.319372128316,
            "responseTime": 1642838496038,
            "catchQuestion": "How many <b class=\"r\">red<\/b> marbles did you actually draw (before any changes)? ",
            "catchKey": -1,
            "catchResponse": -1,
            "catchTime": 1642838441368,
            "trialTime": 0
        },
        {
            "exptPart": "trial",
            "trialNumber": 59,
            "roleCurrent": "receiver",
            "marblesSampled": 100,
            "probRed": 0.5,
            "lambda": 5,
            "drawnRed": 28,
            "reportedRed": 35,
            "inferredRed": 30,
            "playerTrialScore": -2,
            "oppTrialScore": 2,
            "playerTotalScore": 158,
            "oppTotalScore": -911,
            "waitTime": 6203.380509715099,
            "responseTime": 1642838511281,
            "catchQuestion": "How many <b class=\"r\">red<\/b> marbles did you actually draw (before any changes)? ",
            "catchKey": -1,
            "catchResponse": -1,
            "catchTime": 1642838441368,
            "trialTime": 0
        },
        {
            "exptPart": "trial",
            "trialNumber": 60,
            "roleCurrent": "sender",
            "marblesSampled": 100,
            "probRed": 0.5,
            "lambda": 5,
            "drawnRed": 85,
            "reportedRed": 100,
            "inferredRed": 93,
            "playerTrialScore": 8,
            "oppTrialScore": -8,
            "playerTotalScore": 166,
            "oppTotalScore": -919,
            "waitTime": 2182.892805941435,
            "responseTime": 1642838528721,
            "catchQuestion": "How many <b class=\"r\">red<\/b> marbles did you actually draw (before any changes)? ",
            "catchKey": -1,
            "catchResponse": -1,
            "catchTime": 1642838528721,
            "trialTime": 0
        },
        {
            "exptPart": "trial",
            "trialNumber": 61,
            "roleCurrent": "receiver",
            "marblesSampled": 100,
            "probRed": 0.5,
            "lambda": 5,
            "drawnRed": 65,
            "reportedRed": 71,
            "inferredRed": 75,
            "playerTrialScore": -10,
            "oppTrialScore": 10,
            "playerTotalScore": 156,
            "oppTotalScore": -909,
            "waitTime": 5773.963077698504,
            "responseTime": 1642838543658,
            "catchQuestion": "How many <b class=\"r\">red<\/b> marbles did you actually draw (before any changes)? ",
            "catchKey": -1,
            "catchResponse": -1,
            "catchTime": 1642838528721,
            "trialTime": 0
        },
        {
            "exptPart": "trial",
            "trialNumber": 62,
            "roleCurrent": "sender",
            "marblesSampled": 100,
            "probRed": 0.5,
            "lambda": 5,
            "drawnRed": 33,
            "reportedRed": 4,
            "inferredRed": 1,
            "playerTrialScore": 0,
            "oppTrialScore": -32,
            "playerTotalScore": 156,
            "oppTotalScore": -941,
            "waitTime": 2277.634265846461,
            "responseTime": 1642838565250,
            "catchQuestion": "How many <b class=\"r\">red<\/b> marbles did you actually draw (before any changes)? ",
            "catchKey": -1,
            "catchResponse": -1,
            "catchTime": 1642838528721,
            "trialTime": 0
        },
        {
            "exptPart": "trial",
            "trialNumber": 63,
            "roleCurrent": "receiver",
            "marblesSampled": 100,
            "probRed": 0.5,
            "lambda": 5,
            "drawnRed": 56,
            "reportedRed": 60,
            "inferredRed": 65,
            "playerTrialScore": -9,
            "oppTrialScore": 9,
            "playerTotalScore": 147,
            "oppTotalScore": -932,
            "waitTime": 7210.449739588679,
            "responseTime": 1642838577665,
            "catchQuestion": "How many <b class=\"r\">red<\/b> marbles did you actually draw (before any changes)? ",
            "catchKey": -1,
            "catchResponse": -1,
            "catchTime": 1642838528721,
            "trialTime": 0
        },
        {
            "exptPart": "trial",
            "trialNumber": 64,
            "roleCurrent": "sender",
            "marblesSampled": 100,
            "probRed": 0.5,
            "lambda": 5,
            "drawnRed": 68,
            "reportedRed": 97,
            "inferredRed": 93,
            "playerTrialScore": 25,
            "oppTrialScore": -25,
            "playerTotalScore": 172,
            "oppTotalScore": -957,
            "waitTime": 2540.3122529104776,
            "responseTime": 1642838602451,
            "catchQuestion": "How many <b class=\"r\">red<\/b> marbles did you actually draw (before any changes)? ",
            "catchKey": -1,
            "catchResponse": -1,
            "catchTime": 1642838528721,
            "trialTime": 0
        },
        {
            "exptPart": "trial",
            "trialNumber": 65,
            "roleCurrent": "receiver",
            "marblesSampled": 100,
            "probRed": 0.5,
            "lambda": 5,
            "drawnRed": 52,
            "reportedRed": 56,
            "inferredRed": 60,
            "playerTrialScore": -8,
            "oppTrialScore": 8,
            "playerTotalScore": 164,
            "oppTotalScore": -949,
            "waitTime": 7444.411324633001,
            "responseTime": 1642838613673,
            "catchQuestion": "How many <b class=\"r\">red<\/b> marbles did you actually draw (before any changes)? ",
            "catchKey": -1,
            "catchResponse": -1,
            "catchTime": 1642838613674,
            "trialTime": 0
        },
        {
            "exptPart": "trial",
            "trialNumber": 66,
            "roleCurrent": "sender",
            "marblesSampled": 100,
            "probRed": 0.5,
            "lambda": 5,
            "drawnRed": 80,
            "reportedRed": -1,
            "inferredRed": 0,
            "playerTrialScore": 0,
            "oppTrialScore": -80,
            "playerTotalScore": 164,
            "oppTotalScore": -1029,
            "waitTime": 2333.6807229399515,
            "responseTime": 1642838662082,
            "catchQuestion": "How many <b class=\"r\">red<\/b> marbles did you actually draw (before any changes)? ",
            "catchKey": -1,
            "catchResponse": -1,
            "catchTime": 1642838613674,
            "trialTime": 0
        },
        {
            "exptPart": "trial",
            "trialNumber": 67,
            "roleCurrent": "receiver",
            "marblesSampled": 100,
            "probRed": 0.5,
            "lambda": 5,
            "drawnRed": 65,
            "reportedRed": 70,
            "inferredRed": 75,
            "playerTrialScore": -10,
            "oppTrialScore": 10,
            "playerTotalScore": 154,
            "oppTotalScore": -1019,
            "waitTime": 5595.591795794868,
            "responseTime": 1642838670554,
            "catchQuestion": "How many <b class=\"r\">red<\/b> marbles did you actually draw (before any changes)? ",
            "catchKey": -1,
            "catchResponse": -1,
            "catchTime": 1642838613674,
            "trialTime": 0
        },
        {
            "exptPart": "trial",
            "trialNumber": 68,
            "roleCurrent": "sender",
            "marblesSampled": 100,
            "probRed": 0.5,
            "lambda": 5,
            "drawnRed": 36,
            "reportedRed": 100,
            "inferredRed": 95,
            "playerTrialScore": 59,
            "oppTrialScore": -59,
            "playerTotalScore": 213,
            "oppTotalScore": -1078,
            "waitTime": 3084.0837845241263,
            "responseTime": 1642838709696,
            "catchQuestion": "How many <b class=\"r\">red<\/b> marbles did you actually draw (before any changes)? ",
            "catchKey": -1,
            "catchResponse": -1,
            "catchTime": 1642838613674,
            "trialTime": 0
        },
        {
            "exptPart": "trial",
            "trialNumber": 69,
            "roleCurrent": "receiver",
            "marblesSampled": 100,
            "probRed": 0.5,
            "lambda": 5,
            "drawnRed": 48,
            "reportedRed": 53,
            "inferredRed": 57,
            "playerTrialScore": -9,
            "oppTrialScore": 9,
            "playerTotalScore": 204,
            "oppTotalScore": -1069,
            "waitTime": 6378.995551218053,
            "responseTime": 1642838719542,
            "catchQuestion": "How many <b class=\"r\">red<\/b> marbles did you actually draw (before any changes)? ",
            "catchKey": -1,
            "catchResponse": -1,
            "catchTime": 1642838613674,
            "trialTime": 0
        },
        {
            "exptPart": "trial",
            "trialNumber": 70,
            "roleCurrent": "sender",
            "marblesSampled": 100,
            "probRed": 0.5,
            "lambda": 5,
            "drawnRed": 59,
            "reportedRed": -1,
            "inferredRed": 0,
            "playerTrialScore": 0,
            "oppTrialScore": -59,
            "playerTotalScore": 204,
            "oppTotalScore": -1128,
            "waitTime": 2173.1726330089477,
            "responseTime": 1642838756789,
            "catchQuestion": "How many <b class=\"r\">red<\/b> marbles did you actually draw (before any changes)? ",
            "catchKey": -1,
            "catchResponse": -1,
            "catchTime": 1642838756789,
            "trialTime": 0
        },
        {
            "exptPart": "trial",
            "trialNumber": 71,
            "roleCurrent": "receiver",
            "marblesSampled": 100,
            "probRed": 0.5,
            "lambda": 5,
            "drawnRed": 38,
            "reportedRed": 48,
            "inferredRed": 53,
            "playerTrialScore": -15,
            "oppTrialScore": 15,
            "playerTotalScore": 189,
            "oppTotalScore": -1113,
            "waitTime": 6211.359266255715,
            "responseTime": 1642838772957,
            "catchQuestion": "How many <b class=\"r\">red<\/b> marbles did you actually draw (before any changes)? ",
            "catchKey": -1,
            "catchResponse": -1,
            "catchTime": 1642838756789,
            "trialTime": 0
        },
        {
            "exptPart": "trial",
            "trialNumber": 72,
            "roleCurrent": "sender",
            "marblesSampled": 100,
            "probRed": 0.5,
            "lambda": 5,
            "drawnRed": 46,
            "reportedRed": 101,
            "inferredRed": 96,
            "playerTrialScore": 50,
            "oppTrialScore": -50,
            "playerTotalScore": 239,
            "oppTotalScore": -1163,
            "waitTime": 2785.359077756118,
            "responseTime": 1642838808915,
            "catchQuestion": "How many <b class=\"r\">red<\/b> marbles did you actually draw (before any changes)? ",
            "catchKey": 46,
            "catchResponse": 64,
            "catchTime": 1642838808916,
            "trialTime": 0
        },
        {
            "exptPart": "trial",
            "trialNumber": 73,
            "roleCurrent": "receiver",
            "marblesSampled": 100,
            "probRed": 0.5,
            "lambda": 5,
            "drawnRed": 76,
            "reportedRed": 81,
            "inferredRed": 81,
            "playerTrialScore": -5,
            "oppTrialScore": 5,
            "playerTotalScore": 234,
            "oppTotalScore": -1158,
            "waitTime": 5990.198401709336,
            "responseTime": 1642838827458,
            "catchQuestion": "How many <b class=\"r\">red<\/b> marbles did you actually draw (before any changes)? ",
            "catchKey": -1,
            "catchResponse": -1,
            "catchTime": 1642838808916,
            "trialTime": 0
        },
        {
            "exptPart": "trial",
            "trialNumber": 74,
            "roleCurrent": "sender",
            "marblesSampled": 100,
            "probRed": 0.5,
            "lambda": 5,
            "drawnRed": 80,
            "reportedRed": 10,
            "inferredRed": 6,
            "playerTrialScore": 0,
            "oppTrialScore": -74,
            "playerTotalScore": 234,
            "oppTotalScore": -1232,
            "waitTime": 3121.2059049547156,
            "responseTime": 1642838868991,
            "catchQuestion": "How many <b class=\"r\">red<\/b> marbles did you actually draw (before any changes)? ",
            "catchKey": -1,
            "catchResponse": -1,
            "catchTime": 1642838808916,
            "trialTime": 0
        },
        {
            "exptPart": "trial",
            "trialNumber": 75,
            "roleCurrent": "receiver",
            "marblesSampled": 100,
            "probRed": 0.5,
            "lambda": 5,
            "drawnRed": 73,
            "reportedRed": 74,
            "inferredRed": 70,
            "playerTrialScore": -3,
            "oppTrialScore": 0,
            "playerTotalScore": 231,
            "oppTotalScore": -1232,
            "waitTime": 7184.007876353739,
            "responseTime": 1642838884068,
            "catchQuestion": "How many <b class=\"r\">red<\/b> marbles did you actually draw (before any changes)? ",
            "catchKey": -1,
            "catchResponse": -1,
            "catchTime": 1642838884068,
            "trialTime": 0
        },
        {
            "exptPart": "trial",
            "trialNumber": 76,
            "roleCurrent": "sender",
            "marblesSampled": 100,
            "probRed": 0.5,
            "lambda": 5,
            "drawnRed": 87,
            "reportedRed": 0,
            "inferredRed": 0,
            "playerTrialScore": 0,
            "oppTrialScore": -87,
            "playerTotalScore": 231,
            "oppTotalScore": -1319,
            "waitTime": 3108.5372474931037,
            "responseTime": 1642838948238,
            "catchQuestion": "How many <b class=\"r\">red<\/b> marbles did you actually draw (before any changes)? ",
            "catchKey": -1,
            "catchResponse": -1,
            "catchTime": 1642838884068,
            "trialTime": 0
        },
        {
            "exptPart": "trial",
            "trialNumber": 77,
            "roleCurrent": "receiver",
            "marblesSampled": 100,
            "probRed": 0.5,
            "lambda": 5,
            "drawnRed": 33,
            "reportedRed": 39,
            "inferredRed": 45,
            "playerTrialScore": -12,
            "oppTrialScore": 12,
            "playerTotalScore": 219,
            "oppTotalScore": -1307,
            "waitTime": 5434.991121067795,
            "responseTime": 1642838986710,
            "catchQuestion": "How many <b class=\"r\">red<\/b> marbles did you actually draw (before any changes)? ",
            "catchKey": -1,
            "catchResponse": -1,
            "catchTime": 1642838884068,
            "trialTime": 0
        },
        {
            "exptPart": "trial",
            "trialNumber": 78,
            "roleCurrent": "sender",
            "marblesSampled": 100,
            "probRed": 0.5,
            "lambda": 5,
            "drawnRed": 88,
            "reportedRed": -2,
            "inferredRed": 0,
            "playerTrialScore": 0,
            "oppTrialScore": -88,
            "playerTotalScore": 219,
            "oppTotalScore": -1395,
            "waitTime": 2626.3704556908933,
            "responseTime": 1642839034360,
            "catchQuestion": "How many <b class=\"r\">red<\/b> marbles did you actually draw (before any changes)? ",
            "catchKey": -1,
            "catchResponse": -1,
            "catchTime": 1642838884068,
            "trialTime": 0
        },
        {
            "exptPart": "trial",
            "trialNumber": 79,
            "roleCurrent": "receiver",
            "marblesSampled": 100,
            "probRed": 0.5,
            "lambda": 5,
            "drawnRed": 45,
            "reportedRed": 51,
            "inferredRed": 40,
            "playerTrialScore": -5,
            "oppTrialScore": 0,
            "playerTotalScore": 214,
            "oppTotalScore": -1395,
            "waitTime": 5261.973229486585,
            "responseTime": 1642839050381,
            "catchQuestion": "How many <b class=\"r\">red<\/b> marbles did you actually draw (before any changes)? ",
            "catchKey": -1,
            "catchResponse": -1,
            "catchTime": 1642838884068,
            "trialTime": 0
        },
        {
            "exptPart": "trial",
            "trialNumber": 80,
            "roleCurrent": "sender",
            "marblesSampled": 100,
            "probRed": 0.5,
            "lambda": 5,
            "drawnRed": 45,
            "reportedRed": -2,
            "inferredRed": 0,
            "playerTrialScore": 0,
            "oppTrialScore": -45,
            "playerTotalScore": 214,
            "oppTotalScore": -1440,
            "waitTime": 3127.6132813712065,
            "responseTime": 1642839083278,
            "catchQuestion": "How many <b class=\"r\">red<\/b> marbles did you actually draw (before any changes)? ",
            "catchKey": -1,
            "catchResponse": -1,
            "catchTime": 1642839083279,
            "trialTime": 0
        },
        {
            "exptPart": "trial",
            "trialNumber": 81,
            "roleCurrent": "receiver",
            "marblesSampled": 100,
            "probRed": 0.5,
            "lambda": 5,
            "drawnRed": 81,
            "reportedRed": 86,
            "inferredRed": 75,
            "playerTrialScore": -6,
            "oppTrialScore": 0,
            "playerTotalScore": 208,
            "oppTotalScore": -1440,
            "waitTime": 5718.00384038156,
            "responseTime": 1642839164767,
            "catchQuestion": "How many <b class=\"r\">red<\/b> marbles did you actually draw (before any changes)? ",
            "catchKey": -1,
            "catchResponse": -1,
            "catchTime": 1642839083279,
            "trialTime": 0
        },
        {
            "exptPart": "trial",
            "trialNumber": 82,
            "roleCurrent": "sender",
            "marblesSampled": 100,
            "probRed": 0.5,
            "lambda": 5,
            "drawnRed": 66,
            "reportedRed": 100,
            "inferredRed": 97,
            "playerTrialScore": 31,
            "oppTrialScore": -31,
            "playerTotalScore": 239,
            "oppTotalScore": -1471,
            "waitTime": 2688.0754910781034,
            "responseTime": 1642839193569,
            "catchQuestion": "How many <b class=\"r\">red<\/b> marbles did you actually draw (before any changes)? ",
            "catchKey": -1,
            "catchResponse": -1,
            "catchTime": 1642839083279,
            "trialTime": 0
        },
        {
            "exptPart": "trial",
            "trialNumber": 83,
            "roleCurrent": "receiver",
            "marblesSampled": 100,
            "probRed": 0.5,
            "lambda": 5,
            "drawnRed": 67,
            "reportedRed": 72,
            "inferredRed": 82,
            "playerTrialScore": -15,
            "oppTrialScore": 15,
            "playerTotalScore": 224,
            "oppTotalScore": -1456,
            "waitTime": 6785.453232628337,
            "responseTime": 1642839207999,
            "catchQuestion": "How many <b class=\"r\">red<\/b> marbles did you actually draw (before any changes)? ",
            "catchKey": -1,
            "catchResponse": -1,
            "catchTime": 1642839083279,
            "trialTime": 0
        },
        {
            "exptPart": "trial",
            "trialNumber": 84,
            "roleCurrent": "sender",
            "marblesSampled": 100,
            "probRed": 0.5,
            "lambda": 5,
            "drawnRed": 74,
            "reportedRed": 100,
            "inferredRed": 98,
            "playerTrialScore": 24,
            "oppTrialScore": -24,
            "playerTotalScore": 248,
            "oppTotalScore": -1480,
            "waitTime": 3003.957897944434,
            "responseTime": 1642839232963,
            "catchQuestion": "How many <b class=\"r\">red<\/b> marbles did you actually draw (before any changes)? ",
            "catchKey": -1,
            "catchResponse": -1,
            "catchTime": 1642839083279,
            "trialTime": 0
        },
        {
            "exptPart": "trial",
            "trialNumber": 85,
            "roleCurrent": "receiver",
            "marblesSampled": 100,
            "probRed": 0.5,
            "lambda": 5,
            "drawnRed": 65,
            "reportedRed": 69,
            "inferredRed": 69,
            "playerTrialScore": -4,
            "oppTrialScore": 4,
            "playerTotalScore": 244,
            "oppTotalScore": -1476,
            "waitTime": 5308.889960019533,
            "responseTime": 1642839243235,
            "catchQuestion": "How many <b class=\"r\">red<\/b> marbles did you actually draw (before any changes)? ",
            "catchKey": -1,
            "catchResponse": -1,
            "catchTime": 1642839243236,
            "trialTime": 0
        },
        {
            "exptPart": "trial",
            "trialNumber": 86,
            "roleCurrent": "sender",
            "marblesSampled": 100,
            "probRed": 0.5,
            "lambda": 5,
            "drawnRed": 49,
            "reportedRed": 49,
            "inferredRed": 44,
            "playerTrialScore": 0,
            "oppTrialScore": -5,
            "playerTotalScore": 244,
            "oppTotalScore": -1481,
            "waitTime": 2813.320687802083,
            "responseTime": 1642839260009,
            "catchQuestion": "How many <b class=\"r\">red<\/b> marbles did you actually draw (before any changes)? ",
            "catchKey": -1,
            "catchResponse": -1,
            "catchTime": 1642839243236,
            "trialTime": 0
        },
        {
            "exptPart": "trial",
            "trialNumber": 87,
            "roleCurrent": "receiver",
            "marblesSampled": 100,
            "probRed": 0.5,
            "lambda": 5,
            "drawnRed": 50,
            "reportedRed": 57,
            "inferredRed": 49,
            "playerTrialScore": -1,
            "oppTrialScore": 0,
            "playerTotalScore": 243,
            "oppTotalScore": -1481,
            "waitTime": 5640.991062453409,
            "responseTime": 1642839273939,
            "catchQuestion": "How many <b class=\"r\">red<\/b> marbles did your opponent report drawing? ",
            "catchKey": 57,
            "catchResponse": 57,
            "catchTime": 1642839273939,
            "trialTime": 0
        },
        {
            "exptPart": "trial",
            "trialNumber": 88,
            "roleCurrent": "sender",
            "marblesSampled": 100,
            "probRed": 0.5,
            "lambda": 5,
            "drawnRed": 35,
            "reportedRed": 0,
            "inferredRed": 0,
            "playerTrialScore": 0,
            "oppTrialScore": -35,
            "playerTotalScore": 243,
            "oppTotalScore": -1516,
            "waitTime": 2650.6425593154054,
            "responseTime": 1642839305767,
            "catchQuestion": "How many <b class=\"r\">red<\/b> marbles did your opponent report drawing? ",
            "catchKey": -1,
            "catchResponse": -1,
            "catchTime": 1642839273939,
            "trialTime": 0
        },
        {
            "exptPart": "trial",
            "trialNumber": 89,
            "roleCurrent": "receiver",
            "marblesSampled": 100,
            "probRed": 0.5,
            "lambda": 5,
            "drawnRed": 71,
            "reportedRed": 79,
            "inferredRed": 68,
            "playerTrialScore": -3,
            "oppTrialScore": 0,
            "playerTotalScore": 240,
            "oppTotalScore": -1516,
            "waitTime": 7180.987132533453,
            "responseTime": 1642839320312,
            "catchQuestion": "How many <b class=\"r\">red<\/b> marbles did your opponent report drawing? ",
            "catchKey": -1,
            "catchResponse": -1,
            "catchTime": 1642839273939,
            "trialTime": 0
        },
        {
            "exptPart": "trial",
            "trialNumber": 90,
            "roleCurrent": "sender",
            "marblesSampled": 100,
            "probRed": 0.5,
            "lambda": 5,
            "drawnRed": 76,
            "reportedRed": 100,
            "inferredRed": 93,
            "playerTrialScore": 17,
            "oppTrialScore": -17,
            "playerTotalScore": 257,
            "oppTotalScore": -1533,
            "waitTime": 3156.8620913008117,
            "responseTime": 1642839343965,
            "catchQuestion": "How many <b class=\"r\">red<\/b> marbles did your opponent report drawing? ",
            "catchKey": -1,
            "catchResponse": -1,
            "catchTime": 1642839343965,
            "trialTime": 0
        },
        {
            "exptPart": "trial",
            "trialNumber": 91,
            "roleCurrent": "receiver",
            "marblesSampled": 100,
            "probRed": 0.5,
            "lambda": 5,
            "drawnRed": 41,
            "reportedRed": 48,
            "inferredRed": 56,
            "playerTrialScore": -15,
            "oppTrialScore": 15,
            "playerTotalScore": 242,
            "oppTotalScore": -1518,
            "waitTime": 5611.8936271642315,
            "responseTime": 1642839360332,
            "catchQuestion": "How many <b class=\"r\">red<\/b> marbles did your opponent report drawing? ",
            "catchKey": -1,
            "catchResponse": -1,
            "catchTime": 1642839343965,
            "trialTime": 0
        },
        {
            "exptPart": "trial",
            "trialNumber": 92,
            "roleCurrent": "sender",
            "marblesSampled": 100,
            "probRed": 0.5,
            "lambda": 5,
            "drawnRed": 39,
            "reportedRed": 102,
            "inferredRed": 100,
            "playerTrialScore": 61,
            "oppTrialScore": -61,
            "playerTotalScore": 303,
            "oppTotalScore": -1579,
            "waitTime": 2600.9684239639846,
            "responseTime": 1642839398518,
            "catchQuestion": "How many <b class=\"r\">red<\/b> marbles did your opponent report drawing? ",
            "catchKey": -1,
            "catchResponse": -1,
            "catchTime": 1642839343965,
            "trialTime": 0
        },
        {
            "exptPart": "trial",
            "trialNumber": 93,
            "roleCurrent": "receiver",
            "marblesSampled": 100,
            "probRed": 0.5,
            "lambda": 5,
            "drawnRed": 65,
            "reportedRed": 69,
            "inferredRed": 75,
            "playerTrialScore": -10,
            "oppTrialScore": 10,
            "playerTotalScore": 293,
            "oppTotalScore": -1569,
            "waitTime": 5986.163787866613,
            "responseTime": 1642839413555,
            "catchQuestion": "How many <b class=\"r\">red<\/b> marbles did your opponent report drawing? ",
            "catchKey": -1,
            "catchResponse": -1,
            "catchTime": 1642839343965,
            "trialTime": 0
        },
        {
            "exptPart": "trial",
            "trialNumber": 94,
            "roleCurrent": "sender",
            "marblesSampled": 100,
            "probRed": 0.5,
            "lambda": 5,
            "drawnRed": 65,
            "reportedRed": -2,
            "inferredRed": 0,
            "playerTrialScore": 0,
            "oppTrialScore": -65,
            "playerTotalScore": 293,
            "oppTotalScore": -1634,
            "waitTime": 2466.978867291909,
            "responseTime": 1642839457596,
            "catchQuestion": "How many <b class=\"r\">red<\/b> marbles did your opponent report drawing? ",
            "catchKey": -1,
            "catchResponse": -1,
            "catchTime": 1642839343965,
            "trialTime": 0
        },
        {
            "exptPart": "trial",
            "trialNumber": 95,
            "roleCurrent": "receiver",
            "marblesSampled": 100,
            "probRed": 0.5,
            "lambda": 5,
            "drawnRed": 23,
            "reportedRed": 25,
            "inferredRed": 35,
            "playerTrialScore": -12,
            "oppTrialScore": 12,
            "playerTotalScore": 281,
            "oppTotalScore": -1622,
            "waitTime": 5344.985304952812,
            "responseTime": 1642839468074,
            "catchQuestion": "How many <b class=\"r\">red<\/b> marbles did your opponent report drawing? ",
            "catchKey": -1,
            "catchResponse": -1,
            "catchTime": 1642839468074,
            "trialTime": 0
        },
        {
            "exptPart": "trial",
            "trialNumber": 96,
            "roleCurrent": "sender",
            "marblesSampled": 100,
            "probRed": 0.5,
            "lambda": 5,
            "drawnRed": 58,
            "reportedRed": 97,
            "inferredRed": 94,
            "playerTrialScore": 36,
            "oppTrialScore": -36,
            "playerTotalScore": 317,
            "oppTotalScore": -1658,
            "waitTime": 2083.1618177108066,
            "responseTime": 1642839508868,
            "catchQuestion": "How many <b class=\"r\">red<\/b> marbles did your opponent report drawing? ",
            "catchKey": -1,
            "catchResponse": -1,
            "catchTime": 1642839468074,
            "trialTime": 0
        },
        {
            "exptPart": "trial",
            "trialNumber": 97,
            "roleCurrent": "receiver",
            "marblesSampled": 100,
            "probRed": 0.5,
            "lambda": 5,
            "drawnRed": 52,
            "reportedRed": 55,
            "inferredRed": 45,
            "playerTrialScore": -7,
            "oppTrialScore": 0,
            "playerTotalScore": 310,
            "oppTotalScore": -1658,
            "waitTime": 6649.6022555957725,
            "responseTime": 1642839538283,
            "catchQuestion": "How many <b class=\"r\">red<\/b> marbles did your opponent report drawing? ",
            "catchKey": -1,
            "catchResponse": -1,
            "catchTime": 1642839468074,
            "trialTime": 0
        },
        {
            "exptPart": "trial",
            "trialNumber": 98,
            "roleCurrent": "sender",
            "marblesSampled": 100,
            "probRed": 0.5,
            "lambda": 5,
            "drawnRed": 75,
            "reportedRed": 100,
            "inferredRed": 97,
            "playerTrialScore": 22,
            "oppTrialScore": -22,
            "playerTotalScore": 332,
            "oppTotalScore": -1680,
            "waitTime": 2303.88489240859,
            "responseTime": 1642839559537,
            "catchQuestion": "How many <b class=\"r\">red<\/b> marbles did your opponent report drawing? ",
            "catchKey": -1,
            "catchResponse": -1,
            "catchTime": 1642839468074,
            "trialTime": 0
        },
        {
            "exptPart": "trial",
            "trialNumber": 99,
            "roleCurrent": "receiver",
            "marblesSampled": 100,
            "probRed": 0.5,
            "lambda": 5,
            "drawnRed": 28,
            "reportedRed": 34,
            "inferredRed": 45,
            "playerTrialScore": -17,
            "oppTrialScore": 17,
            "playerTotalScore": 315,
            "oppTotalScore": -1663,
            "waitTime": 5210.008749567812,
            "responseTime": 1642839568923,
            "catchQuestion": "How many <b class=\"r\">red<\/b> marbles did your opponent report drawing? ",
            "catchKey": -1,
            "catchResponse": -1,
            "catchTime": 1642839468074,
            "trialTime": 0
        },
        {
            "exptPart": "trial",
            "trialNumber": 100,
            "roleCurrent": "sender",
            "marblesSampled": 100,
            "probRed": 0.5,
            "lambda": 5,
            "drawnRed": 83,
            "reportedRed": 2,
            "inferredRed": 0,
            "playerTrialScore": 0,
            "oppTrialScore": -83,
            "playerTotalScore": 315,
            "oppTotalScore": -1746,
            "waitTime": 3046.888669832125,
            "responseTime": 1642839619953,
            "catchQuestion": "How many <b class=\"r\">red<\/b> marbles did your opponent report drawing? ",
            "catchKey": -1,
            "catchResponse": -1,
            "catchTime": 1642839619953,
            "trialTime": 0
        }
    ]
}