{
    "client": {
        "type": "sona",
        "experiment_id": 2228,
        "credit_token": "b315147ae43241ea9c65086cb510cfb7",
        "survey_code": "28750",
        "sid": "sona-28750",
        "window": {
            "width": 1366,
            "height": 617
        },
        "screen": {
            "width": 1366,
            "height": 768
        },
        "userAgent": "Mozilla\/5.0 (Windows NT 10.0; Win64; x64) AppleWebKit\/537.36 (KHTML, like Gecko) Chrome\/97.0.4692.71 Safari\/537.36",
        "score": 0,
        "bonus": 0
    },
    "expt": {
        "saveURL": "submit.simple.php",
        "trials": 100,
        "practiceTrials": 2,
        "marblesSampled": 100,
        "probRed": 0.5,
        "lambdaAI": 5,
        "roleFirst": "sender",
        "roles": [
            "sender",
            "receiver"
        ],
        "cost": "unif",
        "goal": "under",
        "catchTrials": [
            84,
            12,
            99,
            16,
            90,
            94,
            4,
            17,
            28,
            71
        ],
        "scoreTotal": {
            "player": -936,
            "opp": -1113
        },
        "sona": {
            "experiment_id": 2228,
            "credit_token": "b315147ae43241ea9c65086cb510cfb7"
        },
        "pilot": false,
        "debug": false
    },
    "trials": [
        {
            "exptPart": "practice",
            "trialNumber": 1,
            "roleCurrent": "sender",
            "marblesSampled": 100,
            "probRed": 0.5,
            "lambda": 5,
            "drawnRed": 48,
            "reportedRed": 48,
            "inferredRed": 53,
            "playerTrialScore": 0,
            "oppTrialScore": -5,
            "playerTotalScore": 0,
            "oppTotalScore": -5,
            "waitTime": 2097.4888791049552,
            "responseTime": 1642304685413,
            "catchQuestion": "How many <b class=\"r\">red<\/b> marbles did you actually draw (before any changes)? ",
            "catchKey": 48,
            "catchResponse": 48,
            "catchTime": 1642304685413,
            "trialTime": 0
        },
        {
            "exptPart": "practice",
            "trialNumber": 2,
            "roleCurrent": "receiver",
            "marblesSampled": 100,
            "probRed": 0.5,
            "lambda": 5,
            "drawnRed": 57,
            "reportedRed": 52,
            "inferredRed": 50,
            "playerTrialScore": -7,
            "oppTrialScore": 7,
            "playerTotalScore": -7,
            "oppTotalScore": 2,
            "waitTime": 5148.355863234393,
            "responseTime": 1642304719485,
            "catchQuestion": "How many <b class=\"r\">red<\/b> marbles did your opponent report drawing? ",
            "catchKey": 52,
            "catchResponse": 52,
            "catchTime": 1642304719485,
            "trialTime": 0
        },
        {
            "exptPart": "trial",
            "trialNumber": 1,
            "roleCurrent": "sender",
            "marblesSampled": 100,
            "probRed": 0.5,
            "lambda": 5,
            "drawnRed": 86,
            "reportedRed": 62,
            "inferredRed": 66,
            "playerTrialScore": 20,
            "oppTrialScore": -20,
            "playerTotalScore": 20,
            "oppTotalScore": -20,
            "waitTime": 2826.102298860393,
            "responseTime": 1642304816472,
            "catchQuestion": "How many <b class=\"r\">red<\/b> marbles did your opponent report drawing? ",
            "catchKey": -1,
            "catchResponse": -1,
            "catchTime": 1642304719485,
            "trialTime": 0
        },
        {
            "exptPart": "trial",
            "trialNumber": 2,
            "roleCurrent": "receiver",
            "marblesSampled": 100,
            "probRed": 0.5,
            "lambda": 5,
            "drawnRed": 2,
            "reportedRed": 0,
            "inferredRed": 98,
            "playerTrialScore": -96,
            "oppTrialScore": 0,
            "playerTotalScore": -76,
            "oppTotalScore": -20,
            "waitTime": 7027.099347721514,
            "responseTime": 1642304836431,
            "catchQuestion": "How many <b class=\"r\">red<\/b> marbles did your opponent report drawing? ",
            "catchKey": -1,
            "catchResponse": -1,
            "catchTime": 1642304719485,
            "trialTime": 0
        },
        {
            "exptPart": "trial",
            "trialNumber": 3,
            "roleCurrent": "sender",
            "marblesSampled": 100,
            "probRed": 0.5,
            "lambda": 5,
            "drawnRed": 75,
            "reportedRed": 68,
            "inferredRed": 73,
            "playerTrialScore": 2,
            "oppTrialScore": -2,
            "playerTotalScore": -74,
            "oppTotalScore": -22,
            "waitTime": 2497.993545667097,
            "responseTime": 1642304885413,
            "catchQuestion": "How many <b class=\"r\">red<\/b> marbles did your opponent report drawing? ",
            "catchKey": -1,
            "catchResponse": -1,
            "catchTime": 1642304719485,
            "trialTime": 0
        },
        {
            "exptPart": "trial",
            "trialNumber": 4,
            "roleCurrent": "receiver",
            "marblesSampled": 100,
            "probRed": 0.5,
            "lambda": 5,
            "drawnRed": 54,
            "reportedRed": 45,
            "inferredRed": 78,
            "playerTrialScore": -24,
            "oppTrialScore": 0,
            "playerTotalScore": -98,
            "oppTotalScore": -22,
            "waitTime": 5879.831667023997,
            "responseTime": 1642304906601,
            "catchQuestion": "How many <b class=\"r\">red<\/b> marbles did your opponent report drawing? ",
            "catchKey": -1,
            "catchResponse": -1,
            "catchTime": 1642304719485,
            "trialTime": 0
        },
        {
            "exptPart": "trial",
            "trialNumber": 5,
            "roleCurrent": "sender",
            "marblesSampled": 100,
            "probRed": 0.5,
            "lambda": 5,
            "drawnRed": 60,
            "reportedRed": 29,
            "inferredRed": 34,
            "playerTrialScore": 26,
            "oppTrialScore": -26,
            "playerTotalScore": -72,
            "oppTotalScore": -48,
            "waitTime": 2870.966834729539,
            "responseTime": 1642304970765,
            "catchQuestion": "How many <b class=\"r\">red<\/b> marbles did you actually draw (before any changes)? ",
            "catchKey": 60,
            "catchResponse": 52,
            "catchTime": 1642304970765,
            "trialTime": 0
        },
        {
            "exptPart": "trial",
            "trialNumber": 6,
            "roleCurrent": "receiver",
            "marblesSampled": 100,
            "probRed": 0.5,
            "lambda": 5,
            "drawnRed": 62,
            "reportedRed": 59,
            "inferredRed": 68,
            "playerTrialScore": -6,
            "oppTrialScore": 0,
            "playerTotalScore": -78,
            "oppTotalScore": -48,
            "waitTime": 6947.7763380043125,
            "responseTime": 1642305028765,
            "catchQuestion": "How many <b class=\"r\">red<\/b> marbles did you actually draw (before any changes)? ",
            "catchKey": -1,
            "catchResponse": -1,
            "catchTime": 1642304970765,
            "trialTime": 0
        },
        {
            "exptPart": "trial",
            "trialNumber": 7,
            "roleCurrent": "sender",
            "marblesSampled": 100,
            "probRed": 0.5,
            "lambda": 5,
            "drawnRed": 25,
            "reportedRed": 10,
            "inferredRed": 13,
            "playerTrialScore": 12,
            "oppTrialScore": -12,
            "playerTotalScore": -66,
            "oppTotalScore": -60,
            "waitTime": 2646.9672941868457,
            "responseTime": 1642305060601,
            "catchQuestion": "How many <b class=\"r\">red<\/b> marbles did you actually draw (before any changes)? ",
            "catchKey": -1,
            "catchResponse": -1,
            "catchTime": 1642304970765,
            "trialTime": 0
        },
        {
            "exptPart": "trial",
            "trialNumber": 8,
            "roleCurrent": "receiver",
            "marblesSampled": 100,
            "probRed": 0.5,
            "lambda": 5,
            "drawnRed": 22,
            "reportedRed": 15,
            "inferredRed": 52,
            "playerTrialScore": -30,
            "oppTrialScore": 0,
            "playerTotalScore": -96,
            "oppTotalScore": -60,
            "waitTime": 6584.349414162439,
            "responseTime": 1642305088642,
            "catchQuestion": "How many <b class=\"r\">red<\/b> marbles did you actually draw (before any changes)? ",
            "catchKey": -1,
            "catchResponse": -1,
            "catchTime": 1642304970765,
            "trialTime": 0
        },
        {
            "exptPart": "trial",
            "trialNumber": 9,
            "roleCurrent": "sender",
            "marblesSampled": 100,
            "probRed": 0.5,
            "lambda": 5,
            "drawnRed": 16,
            "reportedRed": 0,
            "inferredRed": 8,
            "playerTrialScore": 8,
            "oppTrialScore": -8,
            "playerTotalScore": -88,
            "oppTotalScore": -68,
            "waitTime": 2190.7128282067433,
            "responseTime": 1642305115709,
            "catchQuestion": "How many <b class=\"r\">red<\/b> marbles did you actually draw (before any changes)? ",
            "catchKey": -1,
            "catchResponse": -1,
            "catchTime": 1642304970765,
            "trialTime": 0
        },
        {
            "exptPart": "trial",
            "trialNumber": 10,
            "roleCurrent": "receiver",
            "marblesSampled": 100,
            "probRed": 0.5,
            "lambda": 5,
            "drawnRed": 42,
            "reportedRed": 36,
            "inferredRed": 80,
            "playerTrialScore": -38,
            "oppTrialScore": 0,
            "playerTotalScore": -126,
            "oppTotalScore": -68,
            "waitTime": 5665.246993455227,
            "responseTime": 1642305135612,
            "catchQuestion": "How many <b class=\"r\">red<\/b> marbles did you actually draw (before any changes)? ",
            "catchKey": -1,
            "catchResponse": -1,
            "catchTime": 1642305135613,
            "trialTime": 0
        },
        {
            "exptPart": "trial",
            "trialNumber": 11,
            "roleCurrent": "sender",
            "marblesSampled": 100,
            "probRed": 0.5,
            "lambda": 5,
            "drawnRed": 32,
            "reportedRed": 5,
            "inferredRed": 8,
            "playerTrialScore": 24,
            "oppTrialScore": -24,
            "playerTotalScore": -102,
            "oppTotalScore": -92,
            "waitTime": 2595.8609071168908,
            "responseTime": 1642305205295,
            "catchQuestion": "How many <b class=\"r\">red<\/b> marbles did you actually draw (before any changes)? ",
            "catchKey": -1,
            "catchResponse": -1,
            "catchTime": 1642305135613,
            "trialTime": 0
        },
        {
            "exptPart": "trial",
            "trialNumber": 12,
            "roleCurrent": "receiver",
            "marblesSampled": 100,
            "probRed": 0.5,
            "lambda": 5,
            "drawnRed": 74,
            "reportedRed": 66,
            "inferredRed": 98,
            "playerTrialScore": -24,
            "oppTrialScore": 0,
            "playerTotalScore": -126,
            "oppTotalScore": -92,
            "waitTime": 6026.525778232721,
            "responseTime": 1642305221931,
            "catchQuestion": "How many <b class=\"r\">red<\/b> marbles did you actually draw (before any changes)? ",
            "catchKey": -1,
            "catchResponse": -1,
            "catchTime": 1642305135613,
            "trialTime": 0
        },
        {
            "exptPart": "trial",
            "trialNumber": 13,
            "roleCurrent": "sender",
            "marblesSampled": 100,
            "probRed": 0.5,
            "lambda": 5,
            "drawnRed": 24,
            "reportedRed": 8,
            "inferredRed": 10,
            "playerTrialScore": 14,
            "oppTrialScore": -14,
            "playerTotalScore": -112,
            "oppTotalScore": -106,
            "waitTime": 2453.3897562721813,
            "responseTime": 1642305246410,
            "catchQuestion": "How many <b class=\"r\">red<\/b> marbles did you actually draw (before any changes)? ",
            "catchKey": 24,
            "catchResponse": 28,
            "catchTime": 1642305246410,
            "trialTime": 0
        },
        {
            "exptPart": "trial",
            "trialNumber": 14,
            "roleCurrent": "receiver",
            "marblesSampled": 100,
            "probRed": 0.5,
            "lambda": 5,
            "drawnRed": 48,
            "reportedRed": 45,
            "inferredRed": 99,
            "playerTrialScore": -51,
            "oppTrialScore": 0,
            "playerTotalScore": -163,
            "oppTotalScore": -106,
            "waitTime": 5508.500772993648,
            "responseTime": 1642305268054,
            "catchQuestion": "How many <b class=\"r\">red<\/b> marbles did you actually draw (before any changes)? ",
            "catchKey": -1,
            "catchResponse": -1,
            "catchTime": 1642305246410,
            "trialTime": 0
        },
        {
            "exptPart": "trial",
            "trialNumber": 15,
            "roleCurrent": "sender",
            "marblesSampled": 100,
            "probRed": 0.5,
            "lambda": 5,
            "drawnRed": 67,
            "reportedRed": 20,
            "inferredRed": 22,
            "playerTrialScore": 45,
            "oppTrialScore": -45,
            "playerTotalScore": -118,
            "oppTotalScore": -151,
            "waitTime": 2448.2371655629513,
            "responseTime": 1642305326838,
            "catchQuestion": "How many <b class=\"r\">red<\/b> marbles did you actually draw (before any changes)? ",
            "catchKey": -1,
            "catchResponse": -1,
            "catchTime": 1642305326838,
            "trialTime": 0
        },
        {
            "exptPart": "trial",
            "trialNumber": 16,
            "roleCurrent": "receiver",
            "marblesSampled": 100,
            "probRed": 0.5,
            "lambda": 5,
            "drawnRed": 48,
            "reportedRed": 42,
            "inferredRed": 99,
            "playerTrialScore": -51,
            "oppTrialScore": 0,
            "playerTotalScore": -169,
            "oppTotalScore": -151,
            "waitTime": 5403.452991616522,
            "responseTime": 1642305352470,
            "catchQuestion": "How many <b class=\"r\">red<\/b> marbles did you actually draw (before any changes)? ",
            "catchKey": -1,
            "catchResponse": -1,
            "catchTime": 1642305326838,
            "trialTime": 0
        },
        {
            "exptPart": "trial",
            "trialNumber": 17,
            "roleCurrent": "sender",
            "marblesSampled": 100,
            "probRed": 0.5,
            "lambda": 5,
            "drawnRed": 56,
            "reportedRed": 28,
            "inferredRed": 30,
            "playerTrialScore": 26,
            "oppTrialScore": -26,
            "playerTotalScore": -143,
            "oppTotalScore": -177,
            "waitTime": 2927.18375446506,
            "responseTime": 1642305447511,
            "catchQuestion": "How many <b class=\"r\">red<\/b> marbles did you actually draw (before any changes)? ",
            "catchKey": 56,
            "catchResponse": 56,
            "catchTime": 1642305447511,
            "trialTime": 0
        },
        {
            "exptPart": "trial",
            "trialNumber": 18,
            "roleCurrent": "receiver",
            "marblesSampled": 100,
            "probRed": 0.5,
            "lambda": 5,
            "drawnRed": 88,
            "reportedRed": 79,
            "inferredRed": 100,
            "playerTrialScore": -12,
            "oppTrialScore": 0,
            "playerTotalScore": -155,
            "oppTotalScore": -177,
            "waitTime": 7350.092661040868,
            "responseTime": 1642305475690,
            "catchQuestion": "How many <b class=\"r\">red<\/b> marbles did your opponent report drawing? ",
            "catchKey": 79,
            "catchResponse": 79,
            "catchTime": 1642305475691,
            "trialTime": 0
        },
        {
            "exptPart": "trial",
            "trialNumber": 19,
            "roleCurrent": "sender",
            "marblesSampled": 100,
            "probRed": 0.5,
            "lambda": 5,
            "drawnRed": 49,
            "reportedRed": 22,
            "inferredRed": 25,
            "playerTrialScore": 24,
            "oppTrialScore": -24,
            "playerTotalScore": -131,
            "oppTotalScore": -201,
            "waitTime": 2469.1592367130825,
            "responseTime": 1642305537408,
            "catchQuestion": "How many <b class=\"r\">red<\/b> marbles did your opponent report drawing? ",
            "catchKey": -1,
            "catchResponse": -1,
            "catchTime": 1642305475691,
            "trialTime": 0
        },
        {
            "exptPart": "trial",
            "trialNumber": 20,
            "roleCurrent": "receiver",
            "marblesSampled": 100,
            "probRed": 0.5,
            "lambda": 5,
            "drawnRed": 74,
            "reportedRed": 71,
            "inferredRed": 100,
            "playerTrialScore": -26,
            "oppTrialScore": 0,
            "playerTotalScore": -157,
            "oppTotalScore": -201,
            "waitTime": 5878.7726953285255,
            "responseTime": 1642305549712,
            "catchQuestion": "How many <b class=\"r\">red<\/b> marbles did your opponent report drawing? ",
            "catchKey": -1,
            "catchResponse": -1,
            "catchTime": 1642305549713,
            "trialTime": 0
        },
        {
            "exptPart": "trial",
            "trialNumber": 21,
            "roleCurrent": "sender",
            "marblesSampled": 100,
            "probRed": 0.5,
            "lambda": 5,
            "drawnRed": 48,
            "reportedRed": 36,
            "inferredRed": 41,
            "playerTrialScore": 7,
            "oppTrialScore": -7,
            "playerTotalScore": -150,
            "oppTotalScore": -208,
            "waitTime": 3035.629590416307,
            "responseTime": 1642305625083,
            "catchQuestion": "How many <b class=\"r\">red<\/b> marbles did your opponent report drawing? ",
            "catchKey": -1,
            "catchResponse": -1,
            "catchTime": 1642305549713,
            "trialTime": 0
        },
        {
            "exptPart": "trial",
            "trialNumber": 22,
            "roleCurrent": "receiver",
            "marblesSampled": 100,
            "probRed": 0.5,
            "lambda": 5,
            "drawnRed": 30,
            "reportedRed": 28,
            "inferredRed": 87,
            "playerTrialScore": -57,
            "oppTrialScore": 0,
            "playerTotalScore": -207,
            "oppTotalScore": -208,
            "waitTime": 6694.696403376056,
            "responseTime": 1642305658027,
            "catchQuestion": "How many <b class=\"r\">red<\/b> marbles did your opponent report drawing? ",
            "catchKey": -1,
            "catchResponse": -1,
            "catchTime": 1642305549713,
            "trialTime": 0
        },
        {
            "exptPart": "trial",
            "trialNumber": 23,
            "roleCurrent": "sender",
            "marblesSampled": 100,
            "probRed": 0.5,
            "lambda": 5,
            "drawnRed": 60,
            "reportedRed": 27,
            "inferredRed": 29,
            "playerTrialScore": 31,
            "oppTrialScore": -31,
            "playerTotalScore": -176,
            "oppTotalScore": -239,
            "waitTime": 2477.594616420273,
            "responseTime": 1642305709247,
            "catchQuestion": "How many <b class=\"r\">red<\/b> marbles did your opponent report drawing? ",
            "catchKey": -1,
            "catchResponse": -1,
            "catchTime": 1642305549713,
            "trialTime": 0
        },
        {
            "exptPart": "trial",
            "trialNumber": 24,
            "roleCurrent": "receiver",
            "marblesSampled": 100,
            "probRed": 0.5,
            "lambda": 5,
            "drawnRed": 33,
            "reportedRed": 28,
            "inferredRed": 90,
            "playerTrialScore": -57,
            "oppTrialScore": 0,
            "playerTotalScore": -233,
            "oppTotalScore": -239,
            "waitTime": 6852.596361267209,
            "responseTime": 1642305728451,
            "catchQuestion": "How many <b class=\"r\">red<\/b> marbles did your opponent report drawing? ",
            "catchKey": -1,
            "catchResponse": -1,
            "catchTime": 1642305549713,
            "trialTime": 0
        },
        {
            "exptPart": "trial",
            "trialNumber": 25,
            "roleCurrent": "sender",
            "marblesSampled": 100,
            "probRed": 0.5,
            "lambda": 5,
            "drawnRed": 56,
            "reportedRed": 37,
            "inferredRed": 47,
            "playerTrialScore": 9,
            "oppTrialScore": -9,
            "playerTotalScore": -224,
            "oppTotalScore": -248,
            "waitTime": 2283.2437162196684,
            "responseTime": 1642305780869,
            "catchQuestion": "How many <b class=\"r\">red<\/b> marbles did your opponent report drawing? ",
            "catchKey": -1,
            "catchResponse": -1,
            "catchTime": 1642305780869,
            "trialTime": 0
        },
        {
            "exptPart": "trial",
            "trialNumber": 26,
            "roleCurrent": "receiver",
            "marblesSampled": 100,
            "probRed": 0.5,
            "lambda": 5,
            "drawnRed": 47,
            "reportedRed": 44,
            "inferredRed": 90,
            "playerTrialScore": -43,
            "oppTrialScore": 0,
            "playerTotalScore": -267,
            "oppTotalScore": -248,
            "waitTime": 6085.968875100554,
            "responseTime": 1642305835235,
            "catchQuestion": "How many <b class=\"r\">red<\/b> marbles did your opponent report drawing? ",
            "catchKey": -1,
            "catchResponse": -1,
            "catchTime": 1642305780869,
            "trialTime": 0
        },
        {
            "exptPart": "trial",
            "trialNumber": 27,
            "roleCurrent": "sender",
            "marblesSampled": 100,
            "probRed": 0.5,
            "lambda": 5,
            "drawnRed": 73,
            "reportedRed": 27,
            "inferredRed": 32,
            "playerTrialScore": 41,
            "oppTrialScore": -41,
            "playerTotalScore": -226,
            "oppTotalScore": -289,
            "waitTime": 2615.015901387554,
            "responseTime": 1642305887075,
            "catchQuestion": "How many <b class=\"r\">red<\/b> marbles did your opponent report drawing? ",
            "catchKey": -1,
            "catchResponse": -1,
            "catchTime": 1642305780869,
            "trialTime": 0
        },
        {
            "exptPart": "trial",
            "trialNumber": 28,
            "roleCurrent": "receiver",
            "marblesSampled": 100,
            "probRed": 0.5,
            "lambda": 5,
            "drawnRed": 73,
            "reportedRed": 68,
            "inferredRed": 98,
            "playerTrialScore": -25,
            "oppTrialScore": 0,
            "playerTotalScore": -251,
            "oppTotalScore": -289,
            "waitTime": 7469.4014009096,
            "responseTime": 1642305929242,
            "catchQuestion": "How many <b class=\"r\">red<\/b> marbles did your opponent report drawing? ",
            "catchKey": -1,
            "catchResponse": -1,
            "catchTime": 1642305780869,
            "trialTime": 0
        },
        {
            "exptPart": "trial",
            "trialNumber": 29,
            "roleCurrent": "sender",
            "marblesSampled": 100,
            "probRed": 0.5,
            "lambda": 5,
            "drawnRed": 70,
            "reportedRed": 44,
            "inferredRed": 48,
            "playerTrialScore": 22,
            "oppTrialScore": -22,
            "playerTotalScore": -229,
            "oppTotalScore": -311,
            "waitTime": 2809.7694081739774,
            "responseTime": 1642305963793,
            "catchQuestion": "How many <b class=\"r\">red<\/b> marbles did you actually draw (before any changes)? ",
            "catchKey": 70,
            "catchResponse": 70,
            "catchTime": 1642305963793,
            "trialTime": 0
        },
        {
            "exptPart": "trial",
            "trialNumber": 30,
            "roleCurrent": "receiver",
            "marblesSampled": 100,
            "probRed": 0.5,
            "lambda": 5,
            "drawnRed": 60,
            "reportedRed": 55,
            "inferredRed": 99,
            "playerTrialScore": -39,
            "oppTrialScore": 0,
            "playerTotalScore": -268,
            "oppTotalScore": -311,
            "waitTime": 7176.3605457817785,
            "responseTime": 1642305988608,
            "catchQuestion": "How many <b class=\"r\">red<\/b> marbles did you actually draw (before any changes)? ",
            "catchKey": -1,
            "catchResponse": -1,
            "catchTime": 1642305988608,
            "trialTime": 0
        },
        {
            "exptPart": "trial",
            "trialNumber": 31,
            "roleCurrent": "sender",
            "marblesSampled": 100,
            "probRed": 0.5,
            "lambda": 5,
            "drawnRed": 67,
            "reportedRed": 30,
            "inferredRed": 39,
            "playerTrialScore": 28,
            "oppTrialScore": -28,
            "playerTotalScore": -240,
            "oppTotalScore": -339,
            "waitTime": 2095.401646763119,
            "responseTime": 1642306042905,
            "catchQuestion": "How many <b class=\"r\">red<\/b> marbles did you actually draw (before any changes)? ",
            "catchKey": -1,
            "catchResponse": -1,
            "catchTime": 1642305988608,
            "trialTime": 0
        },
        {
            "exptPart": "trial",
            "trialNumber": 32,
            "roleCurrent": "receiver",
            "marblesSampled": 100,
            "probRed": 0.5,
            "lambda": 5,
            "drawnRed": 49,
            "reportedRed": 46,
            "inferredRed": 99,
            "playerTrialScore": -50,
            "oppTrialScore": 0,
            "playerTotalScore": -290,
            "oppTotalScore": -339,
            "waitTime": 5180.065836455098,
            "responseTime": 1642306056159,
            "catchQuestion": "How many <b class=\"r\">red<\/b> marbles did you actually draw (before any changes)? ",
            "catchKey": -1,
            "catchResponse": -1,
            "catchTime": 1642305988608,
            "trialTime": 0
        },
        {
            "exptPart": "trial",
            "trialNumber": 33,
            "roleCurrent": "sender",
            "marblesSampled": 100,
            "probRed": 0.5,
            "lambda": 5,
            "drawnRed": 37,
            "reportedRed": 19,
            "inferredRed": 27,
            "playerTrialScore": 10,
            "oppTrialScore": -10,
            "playerTotalScore": -280,
            "oppTotalScore": -349,
            "waitTime": 2415.018551885184,
            "responseTime": 1642306084724,
            "catchQuestion": "How many <b class=\"r\">red<\/b> marbles did you actually draw (before any changes)? ",
            "catchKey": -1,
            "catchResponse": -1,
            "catchTime": 1642305988608,
            "trialTime": 0
        },
        {
            "exptPart": "trial",
            "trialNumber": 34,
            "roleCurrent": "receiver",
            "marblesSampled": 100,
            "probRed": 0.5,
            "lambda": 5,
            "drawnRed": 22,
            "reportedRed": 20,
            "inferredRed": 99,
            "playerTrialScore": -77,
            "oppTrialScore": 0,
            "playerTotalScore": -357,
            "oppTotalScore": -349,
            "waitTime": 6891.771841432053,
            "responseTime": 1642306098780,
            "catchQuestion": "How many <b class=\"r\">red<\/b> marbles did you actually draw (before any changes)? ",
            "catchKey": -1,
            "catchResponse": -1,
            "catchTime": 1642305988608,
            "trialTime": 0
        },
        {
            "exptPart": "trial",
            "trialNumber": 35,
            "roleCurrent": "sender",
            "marblesSampled": 100,
            "probRed": 0.5,
            "lambda": 5,
            "drawnRed": 60,
            "reportedRed": 21,
            "inferredRed": 28,
            "playerTrialScore": 32,
            "oppTrialScore": -32,
            "playerTotalScore": -325,
            "oppTotalScore": -381,
            "waitTime": 2189.3944776581466,
            "responseTime": 1642306155258,
            "catchQuestion": "How many <b class=\"r\">red<\/b> marbles did you actually draw (before any changes)? ",
            "catchKey": -1,
            "catchResponse": -1,
            "catchTime": 1642306155259,
            "trialTime": 0
        },
        {
            "exptPart": "trial",
            "trialNumber": 36,
            "roleCurrent": "receiver",
            "marblesSampled": 100,
            "probRed": 0.5,
            "lambda": 5,
            "drawnRed": 75,
            "reportedRed": 72,
            "inferredRed": 100,
            "playerTrialScore": -25,
            "oppTrialScore": 0,
            "playerTotalScore": -350,
            "oppTotalScore": -381,
            "waitTime": 6685.986136408626,
            "responseTime": 1642306180016,
            "catchQuestion": "How many <b class=\"r\">red<\/b> marbles did you actually draw (before any changes)? ",
            "catchKey": -1,
            "catchResponse": -1,
            "catchTime": 1642306155259,
            "trialTime": 0
        },
        {
            "exptPart": "trial",
            "trialNumber": 37,
            "roleCurrent": "sender",
            "marblesSampled": 100,
            "probRed": 0.5,
            "lambda": 5,
            "drawnRed": 34,
            "reportedRed": 25,
            "inferredRed": 30,
            "playerTrialScore": 4,
            "oppTrialScore": -4,
            "playerTotalScore": -346,
            "oppTotalScore": -385,
            "waitTime": 2941.4928687530596,
            "responseTime": 1642306208412,
            "catchQuestion": "How many <b class=\"r\">red<\/b> marbles did you actually draw (before any changes)? ",
            "catchKey": -1,
            "catchResponse": -1,
            "catchTime": 1642306155259,
            "trialTime": 0
        },
        {
            "exptPart": "trial",
            "trialNumber": 38,
            "roleCurrent": "receiver",
            "marblesSampled": 100,
            "probRed": 0.5,
            "lambda": 5,
            "drawnRed": 45,
            "reportedRed": 38,
            "inferredRed": 99,
            "playerTrialScore": -54,
            "oppTrialScore": 0,
            "playerTotalScore": -400,
            "oppTotalScore": -385,
            "waitTime": 5524.58928897833,
            "responseTime": 1642306223157,
            "catchQuestion": "How many <b class=\"r\">red<\/b> marbles did you actually draw (before any changes)? ",
            "catchKey": -1,
            "catchResponse": -1,
            "catchTime": 1642306155259,
            "trialTime": 0
        },
        {
            "exptPart": "trial",
            "trialNumber": 39,
            "roleCurrent": "sender",
            "marblesSampled": 100,
            "probRed": 0.5,
            "lambda": 5,
            "drawnRed": 86,
            "reportedRed": 12,
            "inferredRed": 18,
            "playerTrialScore": 68,
            "oppTrialScore": -68,
            "playerTotalScore": -332,
            "oppTotalScore": -453,
            "waitTime": 2130.7848910723787,
            "responseTime": 1642306274371,
            "catchQuestion": "How many <b class=\"r\">red<\/b> marbles did you actually draw (before any changes)? ",
            "catchKey": -1,
            "catchResponse": -1,
            "catchTime": 1642306155259,
            "trialTime": 0
        },
        {
            "exptPart": "trial",
            "trialNumber": 40,
            "roleCurrent": "receiver",
            "marblesSampled": 100,
            "probRed": 0.5,
            "lambda": 5,
            "drawnRed": 54,
            "reportedRed": 48,
            "inferredRed": 90,
            "playerTrialScore": -36,
            "oppTrialScore": 0,
            "playerTotalScore": -368,
            "oppTotalScore": -453,
            "waitTime": 5672.601407890368,
            "responseTime": 1642306284239,
            "catchQuestion": "How many <b class=\"r\">red<\/b> marbles did you actually draw (before any changes)? ",
            "catchKey": -1,
            "catchResponse": -1,
            "catchTime": 1642306284239,
            "trialTime": 0
        },
        {
            "exptPart": "trial",
            "trialNumber": 41,
            "roleCurrent": "sender",
            "marblesSampled": 100,
            "probRed": 0.5,
            "lambda": 5,
            "drawnRed": 31,
            "reportedRed": 27,
            "inferredRed": 36,
            "playerTrialScore": 0,
            "oppTrialScore": -5,
            "playerTotalScore": -368,
            "oppTotalScore": -458,
            "waitTime": 2838.753996691853,
            "responseTime": 1642306322598,
            "catchQuestion": "How many <b class=\"r\">red<\/b> marbles did you actually draw (before any changes)? ",
            "catchKey": -1,
            "catchResponse": -1,
            "catchTime": 1642306284239,
            "trialTime": 0
        },
        {
            "exptPart": "trial",
            "trialNumber": 42,
            "roleCurrent": "receiver",
            "marblesSampled": 100,
            "probRed": 0.5,
            "lambda": 5,
            "drawnRed": 68,
            "reportedRed": 62,
            "inferredRed": 99,
            "playerTrialScore": -31,
            "oppTrialScore": 0,
            "playerTotalScore": -399,
            "oppTotalScore": -458,
            "waitTime": 5335.404211861734,
            "responseTime": 1642306342312,
            "catchQuestion": "How many <b class=\"r\">red<\/b> marbles did you actually draw (before any changes)? ",
            "catchKey": -1,
            "catchResponse": -1,
            "catchTime": 1642306284239,
            "trialTime": 0
        },
        {
            "exptPart": "trial",
            "trialNumber": 43,
            "roleCurrent": "sender",
            "marblesSampled": 100,
            "probRed": 0.5,
            "lambda": 5,
            "drawnRed": 46,
            "reportedRed": 23,
            "inferredRed": 27,
            "playerTrialScore": 19,
            "oppTrialScore": -19,
            "playerTotalScore": -380,
            "oppTotalScore": -477,
            "waitTime": 2292.676951827602,
            "responseTime": 1642306379534,
            "catchQuestion": "How many <b class=\"r\">red<\/b> marbles did you actually draw (before any changes)? ",
            "catchKey": -1,
            "catchResponse": -1,
            "catchTime": 1642306284239,
            "trialTime": 0
        },
        {
            "exptPart": "trial",
            "trialNumber": 44,
            "roleCurrent": "receiver",
            "marblesSampled": 100,
            "probRed": 0.5,
            "lambda": 5,
            "drawnRed": 54,
            "reportedRed": 49,
            "inferredRed": 99,
            "playerTrialScore": -45,
            "oppTrialScore": 0,
            "playerTotalScore": -425,
            "oppTotalScore": -477,
            "waitTime": 5865.615834950633,
            "responseTime": 1642306392502,
            "catchQuestion": "How many <b class=\"r\">red<\/b> marbles did you actually draw (before any changes)? ",
            "catchKey": -1,
            "catchResponse": -1,
            "catchTime": 1642306284239,
            "trialTime": 0
        },
        {
            "exptPart": "trial",
            "trialNumber": 45,
            "roleCurrent": "sender",
            "marblesSampled": 100,
            "probRed": 0.5,
            "lambda": 5,
            "drawnRed": 54,
            "reportedRed": 30,
            "inferredRed": 35,
            "playerTrialScore": 19,
            "oppTrialScore": -19,
            "playerTotalScore": -406,
            "oppTotalScore": -496,
            "waitTime": 3181.6248954207063,
            "responseTime": 1642306451679,
            "catchQuestion": "How many <b class=\"r\">red<\/b> marbles did you actually draw (before any changes)? ",
            "catchKey": -1,
            "catchResponse": -1,
            "catchTime": 1642306451679,
            "trialTime": 0
        },
        {
            "exptPart": "trial",
            "trialNumber": 46,
            "roleCurrent": "receiver",
            "marblesSampled": 100,
            "probRed": 0.5,
            "lambda": 5,
            "drawnRed": 69,
            "reportedRed": 66,
            "inferredRed": 87,
            "playerTrialScore": -18,
            "oppTrialScore": 0,
            "playerTotalScore": -424,
            "oppTotalScore": -496,
            "waitTime": 5352.20460701451,
            "responseTime": 1642306560230,
            "catchQuestion": "How many <b class=\"r\">red<\/b> marbles did you actually draw (before any changes)? ",
            "catchKey": -1,
            "catchResponse": -1,
            "catchTime": 1642306451679,
            "trialTime": 0
        },
        {
            "exptPart": "trial",
            "trialNumber": 47,
            "roleCurrent": "sender",
            "marblesSampled": 100,
            "probRed": 0.5,
            "lambda": 5,
            "drawnRed": 20,
            "reportedRed": 20,
            "inferredRed": 25,
            "playerTrialScore": 0,
            "oppTrialScore": -5,
            "playerTotalScore": -424,
            "oppTotalScore": -501,
            "waitTime": 2590.409437791303,
            "responseTime": 1642306574776,
            "catchQuestion": "How many <b class=\"r\">red<\/b> marbles did you actually draw (before any changes)? ",
            "catchKey": -1,
            "catchResponse": -1,
            "catchTime": 1642306451679,
            "trialTime": 0
        },
        {
            "exptPart": "trial",
            "trialNumber": 48,
            "roleCurrent": "receiver",
            "marblesSampled": 100,
            "probRed": 0.5,
            "lambda": 5,
            "drawnRed": 56,
            "reportedRed": 50,
            "inferredRed": 100,
            "playerTrialScore": -44,
            "oppTrialScore": 0,
            "playerTotalScore": -468,
            "oppTotalScore": -501,
            "waitTime": 6189.673166057695,
            "responseTime": 1642306591056,
            "catchQuestion": "How many <b class=\"r\">red<\/b> marbles did you actually draw (before any changes)? ",
            "catchKey": -1,
            "catchResponse": -1,
            "catchTime": 1642306451679,
            "trialTime": 0
        },
        {
            "exptPart": "trial",
            "trialNumber": 49,
            "roleCurrent": "sender",
            "marblesSampled": 100,
            "probRed": 0.5,
            "lambda": 5,
            "drawnRed": 55,
            "reportedRed": 26,
            "inferredRed": 29,
            "playerTrialScore": 26,
            "oppTrialScore": -26,
            "playerTotalScore": -442,
            "oppTotalScore": -527,
            "waitTime": 2859.9436021758465,
            "responseTime": 1642306650675,
            "catchQuestion": "How many <b class=\"r\">red<\/b> marbles did you actually draw (before any changes)? ",
            "catchKey": -1,
            "catchResponse": -1,
            "catchTime": 1642306451679,
            "trialTime": 0
        },
        {
            "exptPart": "trial",
            "trialNumber": 50,
            "roleCurrent": "receiver",
            "marblesSampled": 100,
            "probRed": 0.5,
            "lambda": 5,
            "drawnRed": 65,
            "reportedRed": 57,
            "inferredRed": 90,
            "playerTrialScore": -25,
            "oppTrialScore": 0,
            "playerTotalScore": -467,
            "oppTotalScore": -527,
            "waitTime": 6688.086026956667,
            "responseTime": 1642306669526,
            "catchQuestion": "How many <b class=\"r\">red<\/b> marbles did you actually draw (before any changes)? ",
            "catchKey": -1,
            "catchResponse": -1,
            "catchTime": 1642306669526,
            "trialTime": 0
        },
        {
            "exptPart": "trial",
            "trialNumber": 51,
            "roleCurrent": "sender",
            "marblesSampled": 100,
            "probRed": 0.5,
            "lambda": 5,
            "drawnRed": 30,
            "reportedRed": 20,
            "inferredRed": 25,
            "playerTrialScore": 5,
            "oppTrialScore": -5,
            "playerTotalScore": -462,
            "oppTotalScore": -532,
            "waitTime": 2168.9279010649807,
            "responseTime": 1642306717873,
            "catchQuestion": "How many <b class=\"r\">red<\/b> marbles did you actually draw (before any changes)? ",
            "catchKey": -1,
            "catchResponse": -1,
            "catchTime": 1642306669526,
            "trialTime": 0
        },
        {
            "exptPart": "trial",
            "trialNumber": 52,
            "roleCurrent": "receiver",
            "marblesSampled": 100,
            "probRed": 0.5,
            "lambda": 5,
            "drawnRed": 57,
            "reportedRed": 53,
            "inferredRed": 90,
            "playerTrialScore": -33,
            "oppTrialScore": 0,
            "playerTotalScore": -495,
            "oppTotalScore": -532,
            "waitTime": 7382.154820845798,
            "responseTime": 1642306737198,
            "catchQuestion": "How many <b class=\"r\">red<\/b> marbles did you actually draw (before any changes)? ",
            "catchKey": -1,
            "catchResponse": -1,
            "catchTime": 1642306669526,
            "trialTime": 0
        },
        {
            "exptPart": "trial",
            "trialNumber": 53,
            "roleCurrent": "sender",
            "marblesSampled": 100,
            "probRed": 0.5,
            "lambda": 5,
            "drawnRed": 32,
            "reportedRed": 12,
            "inferredRed": 17,
            "playerTrialScore": 15,
            "oppTrialScore": -15,
            "playerTotalScore": -480,
            "oppTotalScore": -547,
            "waitTime": 2825.697637339741,
            "responseTime": 1642306776378,
            "catchQuestion": "How many <b class=\"r\">red<\/b> marbles did you actually draw (before any changes)? ",
            "catchKey": -1,
            "catchResponse": -1,
            "catchTime": 1642306669526,
            "trialTime": 0
        },
        {
            "exptPart": "trial",
            "trialNumber": 54,
            "roleCurrent": "receiver",
            "marblesSampled": 100,
            "probRed": 0.5,
            "lambda": 5,
            "drawnRed": 74,
            "reportedRed": 71,
            "inferredRed": 99,
            "playerTrialScore": -25,
            "oppTrialScore": 0,
            "playerTotalScore": -505,
            "oppTotalScore": -547,
            "waitTime": 7300.161937818371,
            "responseTime": 1642306790384,
            "catchQuestion": "How many <b class=\"r\">red<\/b> marbles did you actually draw (before any changes)? ",
            "catchKey": -1,
            "catchResponse": -1,
            "catchTime": 1642306669526,
            "trialTime": 0
        },
        {
            "exptPart": "trial",
            "trialNumber": 55,
            "roleCurrent": "sender",
            "marblesSampled": 100,
            "probRed": 0.5,
            "lambda": 5,
            "drawnRed": 87,
            "reportedRed": 8,
            "inferredRed": 12,
            "playerTrialScore": 75,
            "oppTrialScore": -75,
            "playerTotalScore": -430,
            "oppTotalScore": -622,
            "waitTime": 2359.384429183223,
            "responseTime": 1642306868459,
            "catchQuestion": "How many <b class=\"r\">red<\/b> marbles did you actually draw (before any changes)? ",
            "catchKey": -1,
            "catchResponse": -1,
            "catchTime": 1642306868460,
            "trialTime": 0
        },
        {
            "exptPart": "trial",
            "trialNumber": 56,
            "roleCurrent": "receiver",
            "marblesSampled": 100,
            "probRed": 0.5,
            "lambda": 5,
            "drawnRed": 62,
            "reportedRed": 58,
            "inferredRed": 90,
            "playerTrialScore": -28,
            "oppTrialScore": 0,
            "playerTotalScore": -458,
            "oppTotalScore": -622,
            "waitTime": 5698.326052342553,
            "responseTime": 1642306908124,
            "catchQuestion": "How many <b class=\"r\">red<\/b> marbles did you actually draw (before any changes)? ",
            "catchKey": -1,
            "catchResponse": -1,
            "catchTime": 1642306868460,
            "trialTime": 0
        },
        {
            "exptPart": "trial",
            "trialNumber": 57,
            "roleCurrent": "sender",
            "marblesSampled": 100,
            "probRed": 0.5,
            "lambda": 5,
            "drawnRed": 71,
            "reportedRed": 34,
            "inferredRed": 36,
            "playerTrialScore": 35,
            "oppTrialScore": -35,
            "playerTotalScore": -423,
            "oppTotalScore": -657,
            "waitTime": 2260.284271259242,
            "responseTime": 1642306951062,
            "catchQuestion": "How many <b class=\"r\">red<\/b> marbles did you actually draw (before any changes)? ",
            "catchKey": -1,
            "catchResponse": -1,
            "catchTime": 1642306868460,
            "trialTime": 0
        },
        {
            "exptPart": "trial",
            "trialNumber": 58,
            "roleCurrent": "receiver",
            "marblesSampled": 100,
            "probRed": 0.5,
            "lambda": 5,
            "drawnRed": 60,
            "reportedRed": 54,
            "inferredRed": 98,
            "playerTrialScore": -38,
            "oppTrialScore": 0,
            "playerTotalScore": -461,
            "oppTotalScore": -657,
            "waitTime": 6145.531142093498,
            "responseTime": 1642306973940,
            "catchQuestion": "How many <b class=\"r\">red<\/b> marbles did you actually draw (before any changes)? ",
            "catchKey": -1,
            "catchResponse": -1,
            "catchTime": 1642306868460,
            "trialTime": 0
        },
        {
            "exptPart": "trial",
            "trialNumber": 59,
            "roleCurrent": "sender",
            "marblesSampled": 100,
            "probRed": 0.5,
            "lambda": 5,
            "drawnRed": 70,
            "reportedRed": 39,
            "inferredRed": 42,
            "playerTrialScore": 28,
            "oppTrialScore": -28,
            "playerTotalScore": -433,
            "oppTotalScore": -685,
            "waitTime": 2373.399232466104,
            "responseTime": 1642307012660,
            "catchQuestion": "How many <b class=\"r\">red<\/b> marbles did you actually draw (before any changes)? ",
            "catchKey": -1,
            "catchResponse": -1,
            "catchTime": 1642306868460,
            "trialTime": 0
        },
        {
            "exptPart": "trial",
            "trialNumber": 60,
            "roleCurrent": "receiver",
            "marblesSampled": 100,
            "probRed": 0.5,
            "lambda": 5,
            "drawnRed": 14,
            "reportedRed": 9,
            "inferredRed": 100,
            "playerTrialScore": -86,
            "oppTrialScore": 0,
            "playerTotalScore": -519,
            "oppTotalScore": -685,
            "waitTime": 6713.746365840829,
            "responseTime": 1642307036142,
            "catchQuestion": "How many <b class=\"r\">red<\/b> marbles did you actually draw (before any changes)? ",
            "catchKey": -1,
            "catchResponse": -1,
            "catchTime": 1642307036142,
            "trialTime": 0
        },
        {
            "exptPart": "trial",
            "trialNumber": 61,
            "roleCurrent": "sender",
            "marblesSampled": 100,
            "probRed": 0.5,
            "lambda": 5,
            "drawnRed": 41,
            "reportedRed": 17,
            "inferredRed": 25,
            "playerTrialScore": 16,
            "oppTrialScore": -16,
            "playerTotalScore": -503,
            "oppTotalScore": -701,
            "waitTime": 2547.2216587752428,
            "responseTime": 1642307081249,
            "catchQuestion": "How many <b class=\"r\">red<\/b> marbles did you actually draw (before any changes)? ",
            "catchKey": -1,
            "catchResponse": -1,
            "catchTime": 1642307036142,
            "trialTime": 0
        },
        {
            "exptPart": "trial",
            "trialNumber": 62,
            "roleCurrent": "receiver",
            "marblesSampled": 100,
            "probRed": 0.5,
            "lambda": 5,
            "drawnRed": 57,
            "reportedRed": 51,
            "inferredRed": 90,
            "playerTrialScore": -33,
            "oppTrialScore": 0,
            "playerTotalScore": -536,
            "oppTotalScore": -701,
            "waitTime": 6397.243264354747,
            "responseTime": 1642307092037,
            "catchQuestion": "How many <b class=\"r\">red<\/b> marbles did you actually draw (before any changes)? ",
            "catchKey": -1,
            "catchResponse": -1,
            "catchTime": 1642307036142,
            "trialTime": 0
        },
        {
            "exptPart": "trial",
            "trialNumber": 63,
            "roleCurrent": "sender",
            "marblesSampled": 100,
            "probRed": 0.5,
            "lambda": 5,
            "drawnRed": 37,
            "reportedRed": 15,
            "inferredRed": 22,
            "playerTrialScore": 15,
            "oppTrialScore": -15,
            "playerTotalScore": -521,
            "oppTotalScore": -716,
            "waitTime": 3128.8378701690926,
            "responseTime": 1642307130668,
            "catchQuestion": "How many <b class=\"r\">red<\/b> marbles did you actually draw (before any changes)? ",
            "catchKey": -1,
            "catchResponse": -1,
            "catchTime": 1642307036142,
            "trialTime": 0
        },
        {
            "exptPart": "trial",
            "trialNumber": 64,
            "roleCurrent": "receiver",
            "marblesSampled": 100,
            "probRed": 0.5,
            "lambda": 5,
            "drawnRed": 68,
            "reportedRed": 59,
            "inferredRed": 99,
            "playerTrialScore": -31,
            "oppTrialScore": 0,
            "playerTotalScore": -552,
            "oppTotalScore": -716,
            "waitTime": 6239.318482811951,
            "responseTime": 1642307143458,
            "catchQuestion": "How many <b class=\"r\">red<\/b> marbles did you actually draw (before any changes)? ",
            "catchKey": -1,
            "catchResponse": -1,
            "catchTime": 1642307036142,
            "trialTime": 0
        },
        {
            "exptPart": "trial",
            "trialNumber": 65,
            "roleCurrent": "sender",
            "marblesSampled": 100,
            "probRed": 0.5,
            "lambda": 5,
            "drawnRed": 54,
            "reportedRed": 34,
            "inferredRed": 42,
            "playerTrialScore": 12,
            "oppTrialScore": -12,
            "playerTotalScore": -540,
            "oppTotalScore": -728,
            "waitTime": 3134.496774776178,
            "responseTime": 1642307192928,
            "catchQuestion": "How many <b class=\"r\">red<\/b> marbles did you actually draw (before any changes)? ",
            "catchKey": -1,
            "catchResponse": -1,
            "catchTime": 1642307192928,
            "trialTime": 0
        },
        {
            "exptPart": "trial",
            "trialNumber": 66,
            "roleCurrent": "receiver",
            "marblesSampled": 100,
            "probRed": 0.5,
            "lambda": 5,
            "drawnRed": 39,
            "reportedRed": 33,
            "inferredRed": 90,
            "playerTrialScore": -51,
            "oppTrialScore": 0,
            "playerTotalScore": -591,
            "oppTotalScore": -728,
            "waitTime": 5407.106496016484,
            "responseTime": 1642307215234,
            "catchQuestion": "How many <b class=\"r\">red<\/b> marbles did you actually draw (before any changes)? ",
            "catchKey": -1,
            "catchResponse": -1,
            "catchTime": 1642307192928,
            "trialTime": 0
        },
        {
            "exptPart": "trial",
            "trialNumber": 67,
            "roleCurrent": "sender",
            "marblesSampled": 100,
            "probRed": 0.5,
            "lambda": 5,
            "drawnRed": 56,
            "reportedRed": 34,
            "inferredRed": 42,
            "playerTrialScore": 14,
            "oppTrialScore": -14,
            "playerTotalScore": -577,
            "oppTotalScore": -742,
            "waitTime": 2561.5222289819685,
            "responseTime": 1642307257984,
            "catchQuestion": "How many <b class=\"r\">red<\/b> marbles did you actually draw (before any changes)? ",
            "catchKey": -1,
            "catchResponse": -1,
            "catchTime": 1642307192928,
            "trialTime": 0
        },
        {
            "exptPart": "trial",
            "trialNumber": 68,
            "roleCurrent": "receiver",
            "marblesSampled": 100,
            "probRed": 0.5,
            "lambda": 5,
            "drawnRed": 38,
            "reportedRed": 30,
            "inferredRed": 90,
            "playerTrialScore": -52,
            "oppTrialScore": 0,
            "playerTotalScore": -629,
            "oppTotalScore": -742,
            "waitTime": 5214.75404581586,
            "responseTime": 1642307267566,
            "catchQuestion": "How many <b class=\"r\">red<\/b> marbles did you actually draw (before any changes)? ",
            "catchKey": -1,
            "catchResponse": -1,
            "catchTime": 1642307192928,
            "trialTime": 0
        },
        {
            "exptPart": "trial",
            "trialNumber": 69,
            "roleCurrent": "sender",
            "marblesSampled": 100,
            "probRed": 0.5,
            "lambda": 5,
            "drawnRed": 28,
            "reportedRed": 22,
            "inferredRed": 28,
            "playerTrialScore": 0,
            "oppTrialScore": 0,
            "playerTotalScore": -629,
            "oppTotalScore": -742,
            "waitTime": 3021.670848150863,
            "responseTime": 1642307291956,
            "catchQuestion": "How many <b class=\"r\">red<\/b> marbles did you actually draw (before any changes)? ",
            "catchKey": -1,
            "catchResponse": -1,
            "catchTime": 1642307192928,
            "trialTime": 0
        },
        {
            "exptPart": "trial",
            "trialNumber": 70,
            "roleCurrent": "receiver",
            "marblesSampled": 100,
            "probRed": 0.5,
            "lambda": 5,
            "drawnRed": 38,
            "reportedRed": 33,
            "inferredRed": 99,
            "playerTrialScore": -61,
            "oppTrialScore": 0,
            "playerTotalScore": -690,
            "oppTotalScore": -742,
            "waitTime": 5795.147234717044,
            "responseTime": 1642307316242,
            "catchQuestion": "How many <b class=\"r\">red<\/b> marbles did you actually draw (before any changes)? ",
            "catchKey": -1,
            "catchResponse": -1,
            "catchTime": 1642307316242,
            "trialTime": 0
        },
        {
            "exptPart": "trial",
            "trialNumber": 71,
            "roleCurrent": "sender",
            "marblesSampled": 100,
            "probRed": 0.5,
            "lambda": 5,
            "drawnRed": 67,
            "reportedRed": 6,
            "inferredRed": 9,
            "playerTrialScore": 58,
            "oppTrialScore": -58,
            "playerTotalScore": -632,
            "oppTotalScore": -800,
            "waitTime": 3160.2036102761886,
            "responseTime": 1642307373882,
            "catchQuestion": "How many <b class=\"r\">red<\/b> marbles did you actually draw (before any changes)? ",
            "catchKey": -1,
            "catchResponse": -1,
            "catchTime": 1642307316242,
            "trialTime": 0
        },
        {
            "exptPart": "trial",
            "trialNumber": 72,
            "roleCurrent": "receiver",
            "marblesSampled": 100,
            "probRed": 0.5,
            "lambda": 5,
            "drawnRed": 59,
            "reportedRed": 54,
            "inferredRed": 90,
            "playerTrialScore": -31,
            "oppTrialScore": 0,
            "playerTotalScore": -663,
            "oppTotalScore": -800,
            "waitTime": 6942.699987951746,
            "responseTime": 1642307387138,
            "catchQuestion": "How many <b class=\"r\">red<\/b> marbles did your opponent report drawing? ",
            "catchKey": 54,
            "catchResponse": 54,
            "catchTime": 1642307387138,
            "trialTime": 0
        },
        {
            "exptPart": "trial",
            "trialNumber": 73,
            "roleCurrent": "sender",
            "marblesSampled": 100,
            "probRed": 0.5,
            "lambda": 5,
            "drawnRed": 51,
            "reportedRed": 33,
            "inferredRed": 39,
            "playerTrialScore": 12,
            "oppTrialScore": -12,
            "playerTotalScore": -651,
            "oppTotalScore": -812,
            "waitTime": 2497.60394493326,
            "responseTime": 1642307414495,
            "catchQuestion": "How many <b class=\"r\">red<\/b> marbles did your opponent report drawing? ",
            "catchKey": -1,
            "catchResponse": -1,
            "catchTime": 1642307387138,
            "trialTime": 0
        },
        {
            "exptPart": "trial",
            "trialNumber": 74,
            "roleCurrent": "receiver",
            "marblesSampled": 100,
            "probRed": 0.5,
            "lambda": 5,
            "drawnRed": 48,
            "reportedRed": 46,
            "inferredRed": 90,
            "playerTrialScore": -42,
            "oppTrialScore": 0,
            "playerTotalScore": -693,
            "oppTotalScore": -812,
            "waitTime": 5410.645920720507,
            "responseTime": 1642307426694,
            "catchQuestion": "How many <b class=\"r\">red<\/b> marbles did your opponent report drawing? ",
            "catchKey": -1,
            "catchResponse": -1,
            "catchTime": 1642307387138,
            "trialTime": 0
        },
        {
            "exptPart": "trial",
            "trialNumber": 75,
            "roleCurrent": "sender",
            "marblesSampled": 100,
            "probRed": 0.5,
            "lambda": 5,
            "drawnRed": 36,
            "reportedRed": 22,
            "inferredRed": 28,
            "playerTrialScore": 8,
            "oppTrialScore": -8,
            "playerTotalScore": -685,
            "oppTotalScore": -820,
            "waitTime": 2569.895828861459,
            "responseTime": 1642307447220,
            "catchQuestion": "How many <b class=\"r\">red<\/b> marbles did your opponent report drawing? ",
            "catchKey": -1,
            "catchResponse": -1,
            "catchTime": 1642307447220,
            "trialTime": 0
        },
        {
            "exptPart": "trial",
            "trialNumber": 76,
            "roleCurrent": "receiver",
            "marblesSampled": 100,
            "probRed": 0.5,
            "lambda": 5,
            "drawnRed": 19,
            "reportedRed": 11,
            "inferredRed": 90,
            "playerTrialScore": -71,
            "oppTrialScore": 0,
            "playerTotalScore": -756,
            "oppTotalScore": -820,
            "waitTime": 6901.69439864899,
            "responseTime": 1642307508562,
            "catchQuestion": "How many <b class=\"r\">red<\/b> marbles did your opponent report drawing? ",
            "catchKey": -1,
            "catchResponse": -1,
            "catchTime": 1642307447220,
            "trialTime": 0
        },
        {
            "exptPart": "trial",
            "trialNumber": 77,
            "roleCurrent": "sender",
            "marblesSampled": 100,
            "probRed": 0.5,
            "lambda": 5,
            "drawnRed": 65,
            "reportedRed": 6,
            "inferredRed": 8,
            "playerTrialScore": 57,
            "oppTrialScore": -57,
            "playerTotalScore": -699,
            "oppTotalScore": -877,
            "waitTime": 2131.4488373776103,
            "responseTime": 1642307559563,
            "catchQuestion": "How many <b class=\"r\">red<\/b> marbles did your opponent report drawing? ",
            "catchKey": -1,
            "catchResponse": -1,
            "catchTime": 1642307447220,
            "trialTime": 0
        },
        {
            "exptPart": "trial",
            "trialNumber": 78,
            "roleCurrent": "receiver",
            "marblesSampled": 100,
            "probRed": 0.5,
            "lambda": 5,
            "drawnRed": 46,
            "reportedRed": 43,
            "inferredRed": 90,
            "playerTrialScore": -44,
            "oppTrialScore": 0,
            "playerTotalScore": -743,
            "oppTotalScore": -877,
            "waitTime": 5602.321187079214,
            "responseTime": 1642307576183,
            "catchQuestion": "How many <b class=\"r\">red<\/b> marbles did your opponent report drawing? ",
            "catchKey": -1,
            "catchResponse": -1,
            "catchTime": 1642307447220,
            "trialTime": 0
        },
        {
            "exptPart": "trial",
            "trialNumber": 79,
            "roleCurrent": "sender",
            "marblesSampled": 100,
            "probRed": 0.5,
            "lambda": 5,
            "drawnRed": 72,
            "reportedRed": 29,
            "inferredRed": 35,
            "playerTrialScore": 37,
            "oppTrialScore": -37,
            "playerTotalScore": -706,
            "oppTotalScore": -914,
            "waitTime": 2987.4216879296227,
            "responseTime": 1642307621622,
            "catchQuestion": "How many <b class=\"r\">red<\/b> marbles did your opponent report drawing? ",
            "catchKey": -1,
            "catchResponse": -1,
            "catchTime": 1642307447220,
            "trialTime": 0
        },
        {
            "exptPart": "trial",
            "trialNumber": 80,
            "roleCurrent": "receiver",
            "marblesSampled": 100,
            "probRed": 0.5,
            "lambda": 5,
            "drawnRed": 64,
            "reportedRed": 63,
            "inferredRed": 99,
            "playerTrialScore": -35,
            "oppTrialScore": 0,
            "playerTotalScore": -741,
            "oppTotalScore": -914,
            "waitTime": 5797.393524059857,
            "responseTime": 1642307632374,
            "catchQuestion": "How many <b class=\"r\">red<\/b> marbles did your opponent report drawing? ",
            "catchKey": -1,
            "catchResponse": -1,
            "catchTime": 1642307632374,
            "trialTime": 0
        },
        {
            "exptPart": "trial",
            "trialNumber": 81,
            "roleCurrent": "sender",
            "marblesSampled": 100,
            "probRed": 0.5,
            "lambda": 5,
            "drawnRed": 45,
            "reportedRed": 28,
            "inferredRed": 32,
            "playerTrialScore": 13,
            "oppTrialScore": -13,
            "playerTotalScore": -728,
            "oppTotalScore": -927,
            "waitTime": 2896.1529635977267,
            "responseTime": 1642307661712,
            "catchQuestion": "How many <b class=\"r\">red<\/b> marbles did your opponent report drawing? ",
            "catchKey": -1,
            "catchResponse": -1,
            "catchTime": 1642307632374,
            "trialTime": 0
        },
        {
            "exptPart": "trial",
            "trialNumber": 82,
            "roleCurrent": "receiver",
            "marblesSampled": 100,
            "probRed": 0.5,
            "lambda": 5,
            "drawnRed": 66,
            "reportedRed": 61,
            "inferredRed": 99,
            "playerTrialScore": -33,
            "oppTrialScore": 0,
            "playerTotalScore": -761,
            "oppTotalScore": -927,
            "waitTime": 6402.954845218923,
            "responseTime": 1642307677110,
            "catchQuestion": "How many <b class=\"r\">red<\/b> marbles did your opponent report drawing? ",
            "catchKey": -1,
            "catchResponse": -1,
            "catchTime": 1642307632374,
            "trialTime": 0
        },
        {
            "exptPart": "trial",
            "trialNumber": 83,
            "roleCurrent": "sender",
            "marblesSampled": 100,
            "probRed": 0.5,
            "lambda": 5,
            "drawnRed": 82,
            "reportedRed": 11,
            "inferredRed": 14,
            "playerTrialScore": 68,
            "oppTrialScore": -68,
            "playerTotalScore": -693,
            "oppTotalScore": -995,
            "waitTime": 3150.535154688413,
            "responseTime": 1642307736000,
            "catchQuestion": "How many <b class=\"r\">red<\/b> marbles did your opponent report drawing? ",
            "catchKey": -1,
            "catchResponse": -1,
            "catchTime": 1642307632374,
            "trialTime": 0
        },
        {
            "exptPart": "trial",
            "trialNumber": 84,
            "roleCurrent": "receiver",
            "marblesSampled": 100,
            "probRed": 0.5,
            "lambda": 5,
            "drawnRed": 51,
            "reportedRed": 47,
            "inferredRed": 87,
            "playerTrialScore": -36,
            "oppTrialScore": 0,
            "playerTotalScore": -729,
            "oppTotalScore": -995,
            "waitTime": 7184.047193198682,
            "responseTime": 1642307753205,
            "catchQuestion": "How many <b class=\"r\">red<\/b> marbles did your opponent report drawing? ",
            "catchKey": -1,
            "catchResponse": -1,
            "catchTime": 1642307632374,
            "trialTime": 0
        },
        {
            "exptPart": "trial",
            "trialNumber": 85,
            "roleCurrent": "sender",
            "marblesSampled": 100,
            "probRed": 0.5,
            "lambda": 5,
            "drawnRed": 37,
            "reportedRed": 26,
            "inferredRed": 35,
            "playerTrialScore": 2,
            "oppTrialScore": -2,
            "playerTotalScore": -727,
            "oppTotalScore": -997,
            "waitTime": 2549.27996498447,
            "responseTime": 1642307772962,
            "catchQuestion": "How many <b class=\"r\">red<\/b> marbles did you actually draw (before any changes)? ",
            "catchKey": 37,
            "catchResponse": 37,
            "catchTime": 1642307772962,
            "trialTime": 0
        },
        {
            "exptPart": "trial",
            "trialNumber": 86,
            "roleCurrent": "receiver",
            "marblesSampled": 100,
            "probRed": 0.5,
            "lambda": 5,
            "drawnRed": 68,
            "reportedRed": 62,
            "inferredRed": 99,
            "playerTrialScore": -31,
            "oppTrialScore": 0,
            "playerTotalScore": -758,
            "oppTotalScore": -997,
            "waitTime": 5457.712218606603,
            "responseTime": 1642307791257,
            "catchQuestion": "How many <b class=\"r\">red<\/b> marbles did you actually draw (before any changes)? ",
            "catchKey": -1,
            "catchResponse": -1,
            "catchTime": 1642307772962,
            "trialTime": 0
        },
        {
            "exptPart": "trial",
            "trialNumber": 87,
            "roleCurrent": "sender",
            "marblesSampled": 100,
            "probRed": 0.5,
            "lambda": 5,
            "drawnRed": 20,
            "reportedRed": 12,
            "inferredRed": 14,
            "playerTrialScore": 6,
            "oppTrialScore": -6,
            "playerTotalScore": -752,
            "oppTotalScore": -1003,
            "waitTime": 2411.1587496224,
            "responseTime": 1642307808008,
            "catchQuestion": "How many <b class=\"r\">red<\/b> marbles did you actually draw (before any changes)? ",
            "catchKey": -1,
            "catchResponse": -1,
            "catchTime": 1642307772962,
            "trialTime": 0
        },
        {
            "exptPart": "trial",
            "trialNumber": 88,
            "roleCurrent": "receiver",
            "marblesSampled": 100,
            "probRed": 0.5,
            "lambda": 5,
            "drawnRed": 82,
            "reportedRed": 75,
            "inferredRed": 99,
            "playerTrialScore": -17,
            "oppTrialScore": 0,
            "playerTotalScore": -769,
            "oppTotalScore": -1003,
            "waitTime": 5498.954446843268,
            "responseTime": 1642307834391,
            "catchQuestion": "How many <b class=\"r\">red<\/b> marbles did you actually draw (before any changes)? ",
            "catchKey": -1,
            "catchResponse": -1,
            "catchTime": 1642307772962,
            "trialTime": 0
        },
        {
            "exptPart": "trial",
            "trialNumber": 89,
            "roleCurrent": "sender",
            "marblesSampled": 100,
            "probRed": 0.5,
            "lambda": 5,
            "drawnRed": 38,
            "reportedRed": 24,
            "inferredRed": 28,
            "playerTrialScore": 10,
            "oppTrialScore": -10,
            "playerTotalScore": -759,
            "oppTotalScore": -1013,
            "waitTime": 2631.8911827591273,
            "responseTime": 1642307860232,
            "catchQuestion": "How many <b class=\"r\">red<\/b> marbles did you actually draw (before any changes)? ",
            "catchKey": -1,
            "catchResponse": -1,
            "catchTime": 1642307772962,
            "trialTime": 0
        },
        {
            "exptPart": "trial",
            "trialNumber": 90,
            "roleCurrent": "receiver",
            "marblesSampled": 100,
            "probRed": 0.5,
            "lambda": 5,
            "drawnRed": 57,
            "reportedRed": 53,
            "inferredRed": 99,
            "playerTrialScore": -42,
            "oppTrialScore": 0,
            "playerTotalScore": -801,
            "oppTotalScore": -1013,
            "waitTime": 6732.481325897097,
            "responseTime": 1642307872095,
            "catchQuestion": "How many <b class=\"r\">red<\/b> marbles did you actually draw (before any changes)? ",
            "catchKey": -1,
            "catchResponse": -1,
            "catchTime": 1642307872096,
            "trialTime": 0
        },
        {
            "exptPart": "trial",
            "trialNumber": 91,
            "roleCurrent": "sender",
            "marblesSampled": 100,
            "probRed": 0.5,
            "lambda": 5,
            "drawnRed": 35,
            "reportedRed": 24,
            "inferredRed": 27,
            "playerTrialScore": 8,
            "oppTrialScore": -8,
            "playerTotalScore": -793,
            "oppTotalScore": -1021,
            "waitTime": 2909.256173425487,
            "responseTime": 1642307901489,
            "catchQuestion": "How many <b class=\"r\">red<\/b> marbles did you actually draw (before any changes)? ",
            "catchKey": 35,
            "catchResponse": 35,
            "catchTime": 1642307901489,
            "trialTime": 0
        },
        {
            "exptPart": "trial",
            "trialNumber": 92,
            "roleCurrent": "receiver",
            "marblesSampled": 100,
            "probRed": 0.5,
            "lambda": 5,
            "drawnRed": 29,
            "reportedRed": 21,
            "inferredRed": 90,
            "playerTrialScore": -61,
            "oppTrialScore": 0,
            "playerTotalScore": -854,
            "oppTotalScore": -1021,
            "waitTime": 6882.526320386708,
            "responseTime": 1642307921773,
            "catchQuestion": "How many <b class=\"r\">red<\/b> marbles did you actually draw (before any changes)? ",
            "catchKey": -1,
            "catchResponse": -1,
            "catchTime": 1642307901489,
            "trialTime": 0
        },
        {
            "exptPart": "trial",
            "trialNumber": 93,
            "roleCurrent": "sender",
            "marblesSampled": 100,
            "probRed": 0.5,
            "lambda": 5,
            "drawnRed": 49,
            "reportedRed": 34,
            "inferredRed": 41,
            "playerTrialScore": 8,
            "oppTrialScore": -8,
            "playerTotalScore": -846,
            "oppTotalScore": -1029,
            "waitTime": 2244.3591945259195,
            "responseTime": 1642307952397,
            "catchQuestion": "How many <b class=\"r\">red<\/b> marbles did you actually draw (before any changes)? ",
            "catchKey": -1,
            "catchResponse": -1,
            "catchTime": 1642307901489,
            "trialTime": 0
        },
        {
            "exptPart": "trial",
            "trialNumber": 94,
            "roleCurrent": "receiver",
            "marblesSampled": 100,
            "probRed": 0.5,
            "lambda": 5,
            "drawnRed": 44,
            "reportedRed": 40,
            "inferredRed": 90,
            "playerTrialScore": -46,
            "oppTrialScore": 0,
            "playerTotalScore": -892,
            "oppTotalScore": -1029,
            "waitTime": 5126.622196315705,
            "responseTime": 1642307965656,
            "catchQuestion": "How many <b class=\"r\">red<\/b> marbles did you actually draw (before any changes)? ",
            "catchKey": -1,
            "catchResponse": -1,
            "catchTime": 1642307901489,
            "trialTime": 0
        },
        {
            "exptPart": "trial",
            "trialNumber": 95,
            "roleCurrent": "sender",
            "marblesSampled": 100,
            "probRed": 0.5,
            "lambda": 5,
            "drawnRed": 82,
            "reportedRed": 7,
            "inferredRed": 13,
            "playerTrialScore": 69,
            "oppTrialScore": -69,
            "playerTotalScore": -823,
            "oppTotalScore": -1098,
            "waitTime": 2708.7965543391583,
            "responseTime": 1642308023288,
            "catchQuestion": "How many <b class=\"r\">red<\/b> marbles did you actually draw (before any changes)? ",
            "catchKey": 82,
            "catchResponse": 82,
            "catchTime": 1642308023288,
            "trialTime": 0
        },
        {
            "exptPart": "trial",
            "trialNumber": 96,
            "roleCurrent": "receiver",
            "marblesSampled": 100,
            "probRed": 0.5,
            "lambda": 5,
            "drawnRed": 64,
            "reportedRed": 58,
            "inferredRed": 90,
            "playerTrialScore": -26,
            "oppTrialScore": 0,
            "playerTotalScore": -849,
            "oppTotalScore": -1098,
            "waitTime": 7351.240233438536,
            "responseTime": 1642308046822,
            "catchQuestion": "How many <b class=\"r\">red<\/b> marbles did you actually draw (before any changes)? ",
            "catchKey": -1,
            "catchResponse": -1,
            "catchTime": 1642308023288,
            "trialTime": 0
        },
        {
            "exptPart": "trial",
            "trialNumber": 97,
            "roleCurrent": "sender",
            "marblesSampled": 100,
            "probRed": 0.5,
            "lambda": 5,
            "drawnRed": 28,
            "reportedRed": 21,
            "inferredRed": 25,
            "playerTrialScore": 3,
            "oppTrialScore": -3,
            "playerTotalScore": -846,
            "oppTotalScore": -1101,
            "waitTime": 2545.2534093016397,
            "responseTime": 1642308064861,
            "catchQuestion": "How many <b class=\"r\">red<\/b> marbles did you actually draw (before any changes)? ",
            "catchKey": -1,
            "catchResponse": -1,
            "catchTime": 1642308023288,
            "trialTime": 0
        },
        {
            "exptPart": "trial",
            "trialNumber": 98,
            "roleCurrent": "receiver",
            "marblesSampled": 100,
            "probRed": 0.5,
            "lambda": 5,
            "drawnRed": 51,
            "reportedRed": 46,
            "inferredRed": 99,
            "playerTrialScore": -48,
            "oppTrialScore": 0,
            "playerTotalScore": -894,
            "oppTotalScore": -1101,
            "waitTime": 7271.13938526287,
            "responseTime": 1642308076371,
            "catchQuestion": "How many <b class=\"r\">red<\/b> marbles did you actually draw (before any changes)? ",
            "catchKey": -1,
            "catchResponse": -1,
            "catchTime": 1642308023288,
            "trialTime": 0
        },
        {
            "exptPart": "trial",
            "trialNumber": 99,
            "roleCurrent": "sender",
            "marblesSampled": 100,
            "probRed": 0.5,
            "lambda": 5,
            "drawnRed": 29,
            "reportedRed": 15,
            "inferredRed": 17,
            "playerTrialScore": 12,
            "oppTrialScore": -12,
            "playerTotalScore": -882,
            "oppTotalScore": -1113,
            "waitTime": 2591.514927725625,
            "responseTime": 1642308098235,
            "catchQuestion": "How many <b class=\"r\">red<\/b> marbles did you actually draw (before any changes)? ",
            "catchKey": -1,
            "catchResponse": -1,
            "catchTime": 1642308023288,
            "trialTime": 0
        },
        {
            "exptPart": "trial",
            "trialNumber": 100,
            "roleCurrent": "receiver",
            "marblesSampled": 100,
            "probRed": 0.5,
            "lambda": 5,
            "drawnRed": 45,
            "reportedRed": 40,
            "inferredRed": 99,
            "playerTrialScore": -54,
            "oppTrialScore": 0,
            "playerTotalScore": -936,
            "oppTotalScore": -1113,
            "waitTime": 5765.475092325272,
            "responseTime": 1642308107194,
            "catchQuestion": "How many <b class=\"r\">red<\/b> marbles did your opponent report drawing? ",
            "catchKey": 40,
            "catchResponse": 40,
            "catchTime": 1642308107194,
            "trialTime": 0
        }
    ]
}